onset	duration	value	response	rt	good	TMS	seq
89.6684	1	81	n/a	n/a	1	0	0
89.8684	1	81	n/a	n/a	1	0	0
90.0684	1	81	n/a	n/a	1	0	0
90.2684	1	81	n/a	n/a	1	0	0
90.4684	1	81	n/a	n/a	1	0	0
90.6684	1	81	n/a	n/a	1	0	0
90.8684	1	81	n/a	n/a	1	0	0
91.0684	1	81	n/a	n/a	1	0	0
91.2684	1	81	n/a	n/a	1	0	0
91.4684	1	81	n/a	n/a	1	0	0
92.6274	1	10	n/a	n/a	1	51	1
93.744	1	10	n/a	n/a	1	51	2
95.0606	1	10	n/a	n/a	1	51	3
96.3772	1	21	n/a	n/a	1	51	0
97.5772	1	10	n/a	n/a	1	51	1
98.7772	1	21	n/a	n/a	1	51	0
100.077	1	10	n/a	n/a	1	51	1
101.277	1	10	n/a	n/a	1	51	2
102.527	1	10	n/a	n/a	1	51	3
103.5768	1	10	n/a	n/a	1	51	4
104.8268	1	10	n/a	n/a	1	51	5
106.06	1	10	n/a	n/a	1	51	6
107.3766	1	10	n/a	n/a	1	51	7
108.6932	1	21	n/a	n/a	1	51	0
109.9932	1	10	n/a	n/a	1	51	1
111.293	1	21	n/a	n/a	1	51	0
112.3264	1	10	n/a	n/a	1	51	1
113.3596	1	21	n/a	n/a	1	51	0
114.6428	1	10	n/a	n/a	1	51	1
115.9262	1	10	n/a	n/a	1	51	2
116.8006	1	81	n/a	n/a	1	0	0
117.0006	1	81	n/a	n/a	1	0	0
117.2006	1	81	n/a	n/a	1	0	0
117.4006	1	81	n/a	n/a	1	0	0
117.6006	1	81	n/a	n/a	1	0	0
117.8006	1	81	n/a	n/a	1	0	0
118.0006	1	81	n/a	n/a	1	0	0
118.2006	1	81	n/a	n/a	1	0	0
118.4006	1	81	n/a	n/a	1	0	0
118.6006	1	81	n/a	n/a	1	0	0
119.8926	1	10	n/a	n/a	1	51	1
121.1424	1	10	n/a	n/a	1	51	2
122.309	1	10	n/a	n/a	1	51	3
123.3756	1	10	n/a	n/a	1	51	4
124.4422	1	10	n/a	n/a	1	51	5
125.5088	1	21	n/a	n/a	1	51	0
126.7754	1	10	n/a	n/a	1	51	1
128.042	1	21	n/a	n/a	1	51	0
129.3086	1	10	n/a	n/a	1	51	1
130.592	1	10	n/a	n/a	1	51	2
131.7918	1	10	n/a	n/a	1	51	3
133.0084	1	10	n/a	n/a	1	51	4
134.1584	1	10	n/a	n/a	1	51	5
135.3084	1	21	n/a	n/a	1	51	0
136.5582	1	10	n/a	n/a	1	51	1
137.6082	1	10	n/a	n/a	1	51	2
138.7748	1	10	n/a	n/a	1	51	3
140.0414	1	10	n/a	n/a	1	51	4
141.208	1	10	n/a	n/a	1	51	5
142.3746	1	21	n/a	n/a	1	51	0
143.3332	1	81	n/a	n/a	1	0	0
143.5332	1	81	n/a	n/a	1	0	0
143.7332	1	81	n/a	n/a	1	0	0
143.9332	1	81	n/a	n/a	1	0	0
144.1332	1	81	n/a	n/a	1	0	0
144.3332	1	81	n/a	n/a	1	0	0
144.5332	1	81	n/a	n/a	1	0	0
144.7332	1	81	n/a	n/a	1	0	0
144.9332	1	81	n/a	n/a	1	0	0
145.1332	1	81	n/a	n/a	1	0	0
146.2744	1	10	n/a	n/a	1	51	1
147.3242	1	21	n/a	n/a	1	51	0
148.4242	1	10	n/a	n/a	1	51	1
149.6742	1	10	n/a	n/a	1	51	2
150.774	1	10	n/a	n/a	1	51	3
151.8574	1	10	n/a	n/a	1	51	4
153.174	1	10	n/a	n/a	1	51	5
154.4572	1	10	n/a	n/a	1	51	6
155.4904	1	10	n/a	n/a	1	51	7
156.5238	1	21	n/a	n/a	1	51	0
157.8236	1	10	n/a	n/a	1	51	1
159.1236	1	21	n/a	n/a	1	51	0
160.3736	1	10	n/a	n/a	1	51	1
161.6402	1	10	n/a	n/a	1	51	2
162.94	1	10	n/a	n/a	1	51	3
164.24	1	10	n/a	n/a	1	51	4
165.4232	1	10	n/a	n/a	1	51	5
166.6064	1	21	n/a	n/a	1	51	0
167.7898	1	10	n/a	n/a	1	51	1
168.973	1	21	n/a	n/a	1	51	0
169.9054	1	81	n/a	n/a	1	0	0
170.1054	1	81	n/a	n/a	1	0	0
170.3054	1	81	n/a	n/a	1	0	0
170.5054	1	81	n/a	n/a	1	0	0
170.7054	1	81	n/a	n/a	1	0	0
170.9054	1	81	n/a	n/a	1	0	0
171.1054	1	81	n/a	n/a	1	0	0
171.3054	1	81	n/a	n/a	1	0	0
171.5054	1	81	n/a	n/a	1	0	0
171.7054	1	81	n/a	n/a	1	0	0
173.0728	1	10	n/a	n/a	1	51	1
174.3726	1	10	n/a	n/a	1	51	2
175.4392	1	10	n/a	n/a	1	51	3
176.7058	1	10	n/a	n/a	1	51	4
177.7392	1	10	n/a	n/a	1	51	5
178.7724	1	21	n/a	n/a	1	51	0
180.0724	1	10	n/a	n/a	1	51	1
181.3722	1	21	n/a	n/a	1	51	0
182.5056	1	10	n/a	n/a	1	51	1
183.5554	1	10	n/a	n/a	1	51	2
184.7054	1	10	n/a	n/a	1	51	3
186.022	1	10	n/a	n/a	1	51	4
187.172	1	10	n/a	n/a	1	51	5
188.3218	1	21	n/a	n/a	1	51	0
189.3884	1	10	n/a	n/a	1	51	1
190.605	1	10	n/a	n/a	1	51	2
191.905	1	10	n/a	n/a	1	51	3
193.005	1	10	n/a	n/a	1	51	4
194.1716	1	10	n/a	n/a	1	51	5
195.3382	1	21	n/a	n/a	1	51	0
196.2538	1	81	n/a	n/a	1	0	0
196.4538	1	81	n/a	n/a	1	0	0
196.6538	1	81	n/a	n/a	1	0	0
196.8538	1	81	n/a	n/a	1	0	0
197.0538	1	81	n/a	n/a	1	0	0
197.2538	1	81	n/a	n/a	1	0	0
197.4538	1	81	n/a	n/a	1	0	0
197.6538	1	81	n/a	n/a	1	0	0
197.8538	1	81	n/a	n/a	1	0	0
198.0538	1	81	n/a	n/a	1	0	0
199.3546	1	10	n/a	n/a	1	51	1
200.5544	1	21	n/a	n/a	1	51	0
201.6044	1	10	n/a	n/a	1	51	1
202.6544	1	21	n/a	n/a	1	51	0
203.8042	1	10	n/a	n/a	1	51	1
205.0042	1	10	n/a	n/a	1	51	2
206.2042	1	10	n/a	n/a	1	51	3
207.2374	1	10	n/a	n/a	1	51	4
208.5206	1	10	n/a	n/a	1	51	5
209.804	1	10	n/a	n/a	1	51	6
211.1206	1	10	n/a	n/a	1	51	7
212.4372	1	21	n/a	n/a	1	51	0
213.737	1	10	n/a	n/a	1	51	1
214.937	1	10	n/a	n/a	1	51	2
216.1702	1	10	n/a	n/a	1	51	3
217.2868	1	10	n/a	n/a	1	51	4
218.6034	1	10	n/a	n/a	1	51	5
219.8034	1	10	n/a	n/a	1	51	6
221.12	1	10	n/a	n/a	1	51	7
222.4366	1	21	n/a	n/a	1	51	0
240.2952	1	82	n/a	n/a	1	0	0
240.4402	1	82	n/a	n/a	1	0	0
240.6162	1	82	n/a	n/a	1	0	0
240.8312	1	82	n/a	n/a	1	0	0
240.8822	1	82	n/a	n/a	1	0	0
241.2952	1	82	n/a	n/a	1	0	0
241.3692	1	82	n/a	n/a	1	0	0
241.3992	1	82	n/a	n/a	1	0	0
241.4972	1	82	n/a	n/a	1	0	0
241.8052	1	82	n/a	n/a	1	0	0
243.3352	1	10	n/a	n/a	1	50	1
244.4852	1	21	n/a	n/a	1	50	0
245.7184	1	10	n/a	n/a	1	50	1
247.035	1	10	n/a	n/a	1	50	2
248.2516	1	10	n/a	n/a	1	50	3
249.3516	1	10	n/a	n/a	1	50	4
250.4682	1	10	n/a	n/a	1	50	5
251.7014	1	10	n/a	n/a	1	50	6
252.8514	1	10	n/a	n/a	1	50	7
254.0014	1	21	n/a	n/a	1	50	0
255.1846	1	10	n/a	n/a	1	50	1
256.3678	1	21	n/a	n/a	1	50	0
257.5344	1	10	n/a	n/a	1	50	1
258.7344	1	10	n/a	n/a	1	50	2
259.851	1	10	n/a	n/a	1	50	3
261.0842	1	10	n/a	n/a	1	50	4
262.4008	1	10	n/a	n/a	1	50	5
263.6342	1	10	n/a	n/a	1	50	6
264.8508	1	10	n/a	n/a	1	50	7
266.0672	1	21	n/a	n/a	1	50	0
267.0798	1	82	n/a	n/a	1	0	0
267.2478	1	82	n/a	n/a	1	0	0
267.3718	1	82	n/a	n/a	1	0	0
267.7588	1	82	n/a	n/a	1	0	0
267.9888	1	82	n/a	n/a	1	0	0
268.0798	1	82	n/a	n/a	1	0	0
268.1348	1	82	n/a	n/a	1	0	0
268.4478	1	82	n/a	n/a	1	0	0
268.5298	1	82	n/a	n/a	1	0	0
268.7698	1	82	n/a	n/a	1	0	0
270.117	1	10	n/a	n/a	1	50	1
271.1504	1	10	n/a	n/a	1	50	2
272.1836	1	10	n/a	n/a	1	50	3
273.3668	1	10	n/a	n/a	1	50	4
274.6334	1	10	n/a	n/a	1	50	5
275.9	1	21	n/a	n/a	1	50	0
277.1834	1	10	n/a	n/a	1	50	1
278.4666	1	21	n/a	n/a	1	50	0
279.5664	1	10	n/a	n/a	1	50	1
280.6664	1	21	n/a	n/a	1	50	0
281.9164	1	10	n/a	n/a	1	50	1
283.1662	1	21	n/a	n/a	1	50	0
284.2328	1	10	n/a	n/a	1	50	1
285.4162	1	10	n/a	n/a	1	50	2
286.5994	1	10	n/a	n/a	1	50	3
287.8494	1	10	n/a	n/a	1	50	4
289.1492	1	10	n/a	n/a	1	50	5
290.4492	1	21	n/a	n/a	1	50	0
291.6324	1	10	n/a	n/a	1	50	1
292.8158	1	21	n/a	n/a	1	50	0
293.7494	1	82	n/a	n/a	1	0	0
294.0534	1	82	n/a	n/a	1	0	0
294.1794	1	82	n/a	n/a	1	0	0
294.2384	1	82	n/a	n/a	1	0	0
294.3914	1	82	n/a	n/a	1	0	0
294.7494	1	82	n/a	n/a	1	0	0
295.0794	1	82	n/a	n/a	1	0	0
295.1084	1	82	n/a	n/a	1	0	0
295.2144	1	82	n/a	n/a	1	0	0
295.6164	1	82	n/a	n/a	1	0	0
296.9488	1	10	n/a	n/a	1	50	1
298.1988	1	10	n/a	n/a	1	50	2
299.2986	1	10	n/a	n/a	1	50	3
300.6152	1	10	n/a	n/a	1	50	4
301.7318	1	10	n/a	n/a	1	50	5
302.8152	1	10	n/a	n/a	1	50	6
304.0484	1	10	n/a	n/a	1	50	7
305.2816	1	21	n/a	n/a	1	50	0
306.3316	1	10	n/a	n/a	1	50	1
307.3816	1	21	n/a	n/a	1	50	0
308.5148	1	10	n/a	n/a	1	50	1
309.698	1	10	n/a	n/a	1	50	2
310.798	1	10	n/a	n/a	1	50	3
311.898	1	21	n/a	n/a	1	50	0
313.0146	1	10	n/a	n/a	1	50	1
314.2812	1	10	n/a	n/a	1	50	2
315.5978	1	10	n/a	n/a	1	50	3
316.9144	1	21	n/a	n/a	1	50	0
317.981	1	10	n/a	n/a	1	50	1
319.0476	1	21	n/a	n/a	1	50	0
319.8382	1	82	n/a	n/a	1	0	0
320.2272	1	82	n/a	n/a	1	0	0
320.2812	1	82	n/a	n/a	1	0	0
320.3722	1	82	n/a	n/a	1	0	0
320.6372	1	82	n/a	n/a	1	0	0
320.8382	1	82	n/a	n/a	1	0	0
321.1432	1	82	n/a	n/a	1	0	0
321.4922	1	82	n/a	n/a	1	0	0
321.5722	1	82	n/a	n/a	1	0	0
321.7382	1	82	n/a	n/a	1	0	0
322.7972	1	10	n/a	n/a	1	50	1
323.8472	1	10	n/a	n/a	1	50	2
325.0304	1	10	n/a	n/a	1	50	3
326.2138	1	21	n/a	n/a	1	50	0
327.397	1	10	n/a	n/a	1	50	1
328.5802	1	21	n/a	n/a	1	50	0
329.8468	1	10	n/a	n/a	1	50	1
330.9634	1	10	n/a	n/a	1	50	2
331.9968	1	10	n/a	n/a	1	50	3
333.28	1	10	n/a	n/a	1	50	4
334.5632	1	10	n/a	n/a	1	50	5
335.6966	1	10	n/a	n/a	1	50	6
336.9632	1	10	n/a	n/a	1	50	7
338.2298	1	21	n/a	n/a	1	50	0
339.463	1	10	n/a	n/a	1	50	1
340.6462	1	10	n/a	n/a	1	50	2
341.7962	1	10	n/a	n/a	1	50	3
342.9128	1	10	n/a	n/a	1	50	4
343.946	1	10	n/a	n/a	1	50	5
345.196	1	10	n/a	n/a	1	50	6
346.1474	1	82	n/a	n/a	1	0	0
346.3714	1	82	n/a	n/a	1	0	0
346.4254	1	82	n/a	n/a	1	0	0
346.5284	1	82	n/a	n/a	1	0	0
346.8594	1	82	n/a	n/a	1	0	0
347.1474	1	82	n/a	n/a	1	0	0
347.5104	1	82	n/a	n/a	1	0	0
347.7904	1	82	n/a	n/a	1	0	0
348.0014	1	82	n/a	n/a	1	0	0
348.0584	1	82	n/a	n/a	1	0	0
349.1124	1	10	n/a	n/a	1	50	1
350.2124	1	10	n/a	n/a	1	50	2
351.2456	1	10	n/a	n/a	1	50	3
352.4956	1	10	n/a	n/a	1	50	4
353.5788	1	10	n/a	n/a	1	50	5
354.662	1	21	n/a	n/a	1	50	0
355.7786	1	10	n/a	n/a	1	50	1
357.0952	1	10	n/a	n/a	1	50	2
358.1286	1	10	n/a	n/a	1	50	3
359.1618	1	21	n/a	n/a	1	50	0
360.295	1	10	n/a	n/a	1	50	1
361.3284	1	10	n/a	n/a	1	50	2
362.595	1	10	n/a	n/a	1	50	3
363.8782	1	10	n/a	n/a	1	50	4
365.1282	1	10	n/a	n/a	1	50	5
366.378	1	21	n/a	n/a	1	50	0
367.5446	1	10	n/a	n/a	1	50	1
368.7946	1	10	n/a	n/a	1	50	2
370.0612	1	10	n/a	n/a	1	50	3
371.3444	1	10	n/a	n/a	1	50	4
384.5858	1	82	n/a	n/a	1	0	0
384.6448	1	82	n/a	n/a	1	0	0
384.9858	1	82	n/a	n/a	1	0	0
385.0918	1	82	n/a	n/a	1	0	0
385.3468	1	82	n/a	n/a	1	0	0
385.5858	1	82	n/a	n/a	1	0	0
386.0018	1	82	n/a	n/a	1	0	0
386.0978	1	82	n/a	n/a	1	0	0
386.3578	1	82	n/a	n/a	1	0	0
386.4158	1	82	n/a	n/a	1	0	0
387.7268	1	10	n/a	n/a	1	52	1
388.9934	1	10	n/a	n/a	1	52	2
390.0434	1	10	n/a	n/a	1	52	3
391.2432	1	10	n/a	n/a	1	52	4
392.4598	1	10	n/a	n/a	1	52	5
393.6764	1	21	n/a	n/a	1	52	0
394.8098	1	10	n/a	n/a	1	52	1
395.9764	1	10	n/a	n/a	1	52	2
397.243	1	10	n/a	n/a	1	52	3
398.3096	1	10	n/a	n/a	1	52	4
399.4594	1	10	n/a	n/a	1	52	5
400.6928	1	10	n/a	n/a	1	52	6
401.976	1	10	n/a	n/a	1	52	7
403.2592	1	21	n/a	n/a	1	52	0
404.4092	1	10	n/a	n/a	1	52	1
405.559	1	21	n/a	n/a	1	52	0
406.7424	1	10	n/a	n/a	1	52	1
407.959	1	10	n/a	n/a	1	52	2
409.0756	1	10	n/a	n/a	1	52	3
410.1922	1	21	n/a	n/a	1	52	0
411.1896	1	82	n/a	n/a	1	0	0
411.2986	1	82	n/a	n/a	1	0	0
411.7336	1	82	n/a	n/a	1	0	0
411.9996	1	82	n/a	n/a	1	0	0
412.0606	1	82	n/a	n/a	1	0	0
412.1896	1	82	n/a	n/a	1	0	0
412.2476	1	82	n/a	n/a	1	0	0
412.4126	1	82	n/a	n/a	1	0	0
412.7176	1	82	n/a	n/a	1	0	0
412.9936	1	82	n/a	n/a	1	0	0
414.342	1	10	n/a	n/a	1	52	1
415.4918	1	10	n/a	n/a	1	52	2
416.7418	1	10	n/a	n/a	1	52	3
417.9916	1	21	n/a	n/a	1	52	0
419.2082	1	10	n/a	n/a	1	52	1
420.4248	1	21	n/a	n/a	1	52	0
421.6082	1	10	n/a	n/a	1	52	1
422.7914	1	10	n/a	n/a	1	52	2
423.908	1	10	n/a	n/a	1	52	3
425.0246	1	21	n/a	n/a	1	52	0
426.2246	1	10	n/a	n/a	1	52	1
427.3412	1	10	n/a	n/a	1	52	2
428.4744	1	10	n/a	n/a	1	52	3
429.6076	1	21	n/a	n/a	1	52	0
430.8076	1	10	n/a	n/a	1	52	1
431.9076	1	10	n/a	n/a	1	52	2
432.9742	1	10	n/a	n/a	1	52	3
434.0574	1	10	n/a	n/a	1	52	4
435.3074	1	10	n/a	n/a	1	52	5
436.6072	1	10	n/a	n/a	1	52	6
437.5536	1	82	n/a	n/a	1	0	0
437.5936	1	82	n/a	n/a	1	0	0
438.0276	1	82	n/a	n/a	1	0	0
438.0936	1	82	n/a	n/a	1	0	0
438.3986	1	82	n/a	n/a	1	0	0
438.5536	1	82	n/a	n/a	1	0	0
438.6076	1	82	n/a	n/a	1	0	0
438.9186	1	82	n/a	n/a	1	0	0
439.0206	1	82	n/a	n/a	1	0	0
439.2866	1	82	n/a	n/a	1	0	0
440.5738	1	10	n/a	n/a	1	52	1
441.707	1	21	n/a	n/a	1	52	0
442.9236	1	10	n/a	n/a	1	52	1
444.1402	1	21	n/a	n/a	1	52	0
445.4734	1	10	n/a	n/a	1	52	1
446.8066	1	21	n/a	n/a	1	52	0
448.1066	1	10	n/a	n/a	1	52	1
449.4066	1	21	n/a	n/a	1	52	0
450.6898	1	10	n/a	n/a	1	52	1
451.9396	1	10	n/a	n/a	1	52	2
453.1896	1	10	n/a	n/a	1	52	3
454.4062	1	10	n/a	n/a	1	52	4
455.4562	1	10	n/a	n/a	1	52	5
456.506	1	10	n/a	n/a	1	52	6
457.5726	1	10	n/a	n/a	1	52	7
458.6394	1	21	n/a	n/a	1	52	0
459.806	1	10	n/a	n/a	1	52	1
460.9724	1	10	n/a	n/a	1	52	2
462.0724	1	10	n/a	n/a	1	52	3
463.3556	1	10	n/a	n/a	1	52	4
464.3062	1	82	n/a	n/a	1	0	0
464.3892	1	82	n/a	n/a	1	0	0
464.6512	1	82	n/a	n/a	1	0	0
464.8242	1	82	n/a	n/a	1	0	0
465.1272	1	82	n/a	n/a	1	0	0
465.3062	1	82	n/a	n/a	1	0	0
465.6972	1	82	n/a	n/a	1	0	0
465.8122	1	82	n/a	n/a	1	0	0
466.1032	1	82	n/a	n/a	1	0	0
466.2632	1	82	n/a	n/a	1	0	0
467.4388	1	10	n/a	n/a	1	52	1
468.7054	1	10	n/a	n/a	1	52	2
469.7386	1	10	n/a	n/a	1	52	3
471.0386	1	10	n/a	n/a	1	52	4
472.3052	1	10	n/a	n/a	1	52	5
473.5718	1	21	n/a	n/a	1	52	0
474.7884	1	10	n/a	n/a	1	52	1
475.955	1	10	n/a	n/a	1	52	2
477.0716	1	10	n/a	n/a	1	52	3
478.1882	1	21	n/a	n/a	1	52	0
479.3548	1	10	n/a	n/a	1	52	1
480.538	1	10	n/a	n/a	1	52	2
481.5712	1	10	n/a	n/a	1	52	3
482.6046	1	21	n/a	n/a	1	52	0
483.7212	1	10	n/a	n/a	1	52	1
484.871	1	10	n/a	n/a	1	52	2
485.9544	1	10	n/a	n/a	1	52	3
487.0376	1	21	n/a	n/a	1	52	0
488.1376	1	10	n/a	n/a	1	52	1
489.2376	1	21	n/a	n/a	1	52	0
489.9832	1	82	n/a	n/a	1	0	0
490.2492	1	82	n/a	n/a	1	0	0
490.5992	1	82	n/a	n/a	1	0	0
490.8932	1	82	n/a	n/a	1	0	0
490.9182	1	82	n/a	n/a	1	0	0
490.9832	1	82	n/a	n/a	1	0	0
491.0662	1	82	n/a	n/a	1	0	0
491.4982	1	82	n/a	n/a	1	0	0
491.6302	1	82	n/a	n/a	1	0	0
491.6502	1	82	n/a	n/a	1	0	0
493.104	1	10	n/a	n/a	1	52	1
494.2538	1	10	n/a	n/a	1	52	2
495.4204	1	10	n/a	n/a	1	52	3
496.7204	1	10	n/a	n/a	1	52	4
497.987	1	10	n/a	n/a	1	52	5
499.2536	1	10	n/a	n/a	1	52	6
500.3202	1	10	n/a	n/a	1	52	7
501.3868	1	21	n/a	n/a	1	52	0
502.5368	1	10	n/a	n/a	1	52	1
503.6866	1	21	n/a	n/a	1	52	0
504.8532	1	10	n/a	n/a	1	52	1
506.0198	1	10	n/a	n/a	1	52	2
507.2532	1	10	n/a	n/a	1	52	3
508.503	1	10	n/a	n/a	1	52	4
509.5696	1	10	n/a	n/a	1	52	5
510.7362	1	10	n/a	n/a	1	52	6
511.9362	1	10	n/a	n/a	1	52	7
513.136	1	21	n/a	n/a	1	52	0
514.336	1	10	n/a	n/a	1	52	1
515.6526	1	10	n/a	n/a	1	52	2
710.0134	1	82	n/a	n/a	1	0	0
710.3454	1	82	n/a	n/a	1	0	0
710.6014	1	82	n/a	n/a	1	0	0
710.6244	1	82	n/a	n/a	1	0	0
710.7524	1	82	n/a	n/a	1	0	0
711.0134	1	82	n/a	n/a	1	0	0
711.3764	1	82	n/a	n/a	1	0	0
711.4334	1	82	n/a	n/a	1	0	0
711.7334	1	82	n/a	n/a	1	0	0
711.9744	1	82	n/a	n/a	1	0	0
713.141	1	10	n/a	n/a	1	52	1
714.4242	1	10	n/a	n/a	1	52	2
715.4908	1	10	n/a	n/a	1	52	3
716.6408	1	10	n/a	n/a	1	52	4
717.8408	1	10	n/a	n/a	1	52	5
719.0406	1	21	n/a	n/a	1	52	0
720.3572	1	10	n/a	n/a	1	52	1
721.4738	1	10	n/a	n/a	1	52	2
722.6738	1	10	n/a	n/a	1	52	3
723.757	1	10	n/a	n/a	1	52	4
725.0236	1	10	n/a	n/a	1	52	5
726.2902	1	21	n/a	n/a	1	52	0
727.4734	1	10	n/a	n/a	1	52	1
728.6568	1	21	n/a	n/a	1	52	0
729.8234	1	10	n/a	n/a	1	52	1
731.1232	1	10	n/a	n/a	1	52	2
732.2732	1	10	n/a	n/a	1	52	3
733.3398	1	10	n/a	n/a	1	52	4
734.4898	1	10	n/a	n/a	1	52	5
735.6396	1	21	n/a	n/a	1	52	0
736.5854	1	82	n/a	n/a	1	0	0
736.7004	1	82	n/a	n/a	1	0	0
736.8634	1	82	n/a	n/a	1	0	0
737.2184	1	82	n/a	n/a	1	0	0
737.4694	1	82	n/a	n/a	1	0	0
737.5854	1	82	n/a	n/a	1	0	0
737.6464	1	82	n/a	n/a	1	0	0
737.9054	1	82	n/a	n/a	1	0	0
738.1024	1	82	n/a	n/a	1	0	0
738.4584	1	82	n/a	n/a	1	0	0
739.7394	1	10	n/a	n/a	1	52	1
740.906	1	10	n/a	n/a	1	52	2
741.9394	1	10	n/a	n/a	1	52	3
743.2226	1	10	n/a	n/a	1	52	4
744.3892	1	10	n/a	n/a	1	52	5
745.5558	1	21	n/a	n/a	1	52	0
746.6558	1	10	n/a	n/a	1	52	1
747.9556	1	10	n/a	n/a	1	52	2
749.1556	1	10	n/a	n/a	1	52	3
750.3554	1	21	n/a	n/a	1	52	0
751.4554	1	10	n/a	n/a	1	52	1
752.5386	1	10	n/a	n/a	1	52	2
753.672	1	10	n/a	n/a	1	52	3
754.9218	1	10	n/a	n/a	1	52	4
756.1384	1	10	n/a	n/a	1	52	5
757.355	1	21	n/a	n/a	1	52	0
758.4216	1	10	n/a	n/a	1	52	1
759.7216	1	10	n/a	n/a	1	52	2
760.8548	1	10	n/a	n/a	1	52	3
761.9882	1	10	n/a	n/a	1	52	4
762.7878	1	82	n/a	n/a	1	0	0
763.0208	1	82	n/a	n/a	1	0	0
763.1598	1	82	n/a	n/a	1	0	0
763.3508	1	82	n/a	n/a	1	0	0
763.6308	1	82	n/a	n/a	1	0	0
763.7878	1	82	n/a	n/a	1	0	0
763.8338	1	82	n/a	n/a	1	0	0
763.9568	1	82	n/a	n/a	1	0	0
764.2108	1	82	n/a	n/a	1	0	0
764.3838	1	82	n/a	n/a	1	0	0
765.738	1	10	n/a	n/a	1	52	1
766.9546	1	10	n/a	n/a	1	52	2
768.0544	1	10	n/a	n/a	1	52	3
769.1044	1	10	n/a	n/a	1	52	4
770.2544	1	10	n/a	n/a	1	52	5
771.4042	1	21	n/a	n/a	1	52	0
772.6042	1	10	n/a	n/a	1	52	1
773.8042	1	21	n/a	n/a	1	52	0
774.9208	1	10	n/a	n/a	1	52	1
776.0374	1	21	n/a	n/a	1	52	0
777.0706	1	10	n/a	n/a	1	52	1
778.1038	1	21	n/a	n/a	1	52	0
779.1704	1	10	n/a	n/a	1	52	1
780.3704	1	10	n/a	n/a	1	52	2
781.6536	1	10	n/a	n/a	1	52	3
782.8036	1	10	n/a	n/a	1	52	4
783.8368	1	10	n/a	n/a	1	52	5
784.8702	1	21	n/a	n/a	1	52	0
786.07	1	10	n/a	n/a	1	52	1
787.37	1	10	n/a	n/a	1	52	2
788.4814	1	82	n/a	n/a	1	0	0
788.7754	1	82	n/a	n/a	1	0	0
788.8444	1	82	n/a	n/a	1	0	0
788.8844	1	82	n/a	n/a	1	0	0
789.3164	1	82	n/a	n/a	1	0	0
789.4814	1	82	n/a	n/a	1	0	0
789.6084	1	82	n/a	n/a	1	0	0
789.8974	1	82	n/a	n/a	1	0	0
790.2794	1	82	n/a	n/a	1	0	0
790.3084	1	82	n/a	n/a	1	0	0
791.4364	1	10	n/a	n/a	1	52	1
792.5364	1	10	n/a	n/a	1	52	2
793.6196	1	10	n/a	n/a	1	52	3
794.7696	1	10	n/a	n/a	1	52	4
795.9862	1	10	n/a	n/a	1	52	5
797.2028	1	21	n/a	n/a	1	52	0
798.4694	1	10	n/a	n/a	1	52	1
799.6692	1	10	n/a	n/a	1	52	2
800.8526	1	10	n/a	n/a	1	52	3
802.0858	1	10	n/a	n/a	1	52	4
803.2024	1	10	n/a	n/a	1	52	5
804.4356	1	10	n/a	n/a	1	52	6
805.6522	1	10	n/a	n/a	1	52	7
806.8688	1	21	n/a	n/a	1	52	0
807.9022	1	10	n/a	n/a	1	52	1
808.9354	1	10	n/a	n/a	1	52	2
810.252	1	10	n/a	n/a	1	52	3
811.5352	1	10	n/a	n/a	1	52	4
812.8018	1	10	n/a	n/a	1	52	5
814.0018	1	10	n/a	n/a	1	52	6
814.7202	1	82	n/a	n/a	1	0	0
815.1102	1	82	n/a	n/a	1	0	0
815.3402	1	82	n/a	n/a	1	0	0
815.5952	1	82	n/a	n/a	1	0	0
815.6652	1	82	n/a	n/a	1	0	0
815.7202	1	82	n/a	n/a	1	0	0
815.7702	1	82	n/a	n/a	1	0	0
815.8792	1	82	n/a	n/a	1	0	0
816.1062	1	82	n/a	n/a	1	0	0
816.5332	1	82	n/a	n/a	1	0	0
817.7016	1	10	n/a	n/a	1	52	1
818.7848	1	21	n/a	n/a	1	52	0
819.9848	1	10	n/a	n/a	1	52	1
821.1846	1	21	n/a	n/a	1	52	0
822.368	1	10	n/a	n/a	1	52	1
823.5512	1	21	n/a	n/a	1	52	0
824.8678	1	10	n/a	n/a	1	52	1
826.1844	1	21	n/a	n/a	1	52	0
827.3342	1	10	n/a	n/a	1	52	1
828.4342	1	10	n/a	n/a	1	52	2
829.5674	1	10	n/a	n/a	1	52	3
830.7008	1	21	n/a	n/a	1	52	0
831.8006	1	10	n/a	n/a	1	52	1
832.934	1	10	n/a	n/a	1	52	2
834.0006	1	10	n/a	n/a	1	52	3
835.0672	1	21	n/a	n/a	1	52	0
836.1338	1	10	n/a	n/a	1	52	1
837.2004	1	21	n/a	n/a	1	52	0
838.417	1	10	n/a	n/a	1	52	1
839.6336	1	21	n/a	n/a	1	52	0
848.0564	1	81	n/a	n/a	1	0	0
848.2564	1	81	n/a	n/a	1	0	0
848.4564	1	81	n/a	n/a	1	0	0
848.6564	1	81	n/a	n/a	1	0	0
848.8564	1	81	n/a	n/a	1	0	0
849.0564	1	81	n/a	n/a	1	0	0
849.2564	1	81	n/a	n/a	1	0	0
849.4564	1	81	n/a	n/a	1	0	0
849.6564	1	81	n/a	n/a	1	0	0
849.8564	1	81	n/a	n/a	1	0	0
851.1328	1	10	n/a	n/a	1	50	1
852.2494	1	10	n/a	n/a	1	50	2
853.366	1	10	n/a	n/a	1	50	3
854.4826	1	21	n/a	n/a	1	50	0
855.5826	1	10	n/a	n/a	1	50	1
856.6826	1	21	n/a	n/a	1	50	0
857.9658	1	10	n/a	n/a	1	50	1
859.0658	1	10	n/a	n/a	1	50	2
860.1824	1	10	n/a	n/a	1	50	3
861.249	1	10	n/a	n/a	1	50	4
862.3156	1	10	n/a	n/a	1	50	5
863.6322	1	10	n/a	n/a	1	50	6
864.7154	1	10	n/a	n/a	1	50	7
865.7986	1	21	n/a	n/a	1	50	0
866.832	1	10	n/a	n/a	1	50	1
868.0652	1	10	n/a	n/a	1	50	2
869.3152	1	10	n/a	n/a	1	50	3
870.5818	1	10	n/a	n/a	1	50	4
871.665	1	10	n/a	n/a	1	50	5
872.7482	1	21	n/a	n/a	1	50	0
873.682	1	81	n/a	n/a	1	0	0
873.882	1	81	n/a	n/a	1	0	0
874.082	1	81	n/a	n/a	1	0	0
874.282	1	81	n/a	n/a	1	0	0
874.482	1	81	n/a	n/a	1	0	0
874.682	1	81	n/a	n/a	1	0	0
874.882	1	81	n/a	n/a	1	0	0
875.082	1	81	n/a	n/a	1	0	0
875.282	1	81	n/a	n/a	1	0	0
875.482	1	81	n/a	n/a	1	0	0
876.8148	1	10	n/a	n/a	1	50	1
878.048	1	21	n/a	n/a	1	50	0
879.2646	1	10	n/a	n/a	1	50	1
880.5812	1	10	n/a	n/a	1	50	2
881.8978	1	10	n/a	n/a	1	50	3
883.181	1	10	n/a	n/a	1	50	4
884.2976	1	10	n/a	n/a	1	50	5
885.4642	1	10	n/a	n/a	1	50	6
886.6974	1	10	n/a	n/a	1	50	7
887.9308	1	21	n/a	n/a	1	50	0
889.2474	1	10	n/a	n/a	1	50	1
890.2972	1	10	n/a	n/a	1	50	2
891.5638	1	10	n/a	n/a	1	50	3
892.8638	1	10	n/a	n/a	1	50	4
894.1304	1	10	n/a	n/a	1	50	5
895.397	1	21	n/a	n/a	1	50	0
896.4468	1	10	n/a	n/a	1	50	1
897.4968	1	10	n/a	n/a	1	50	2
898.73	1	10	n/a	n/a	1	50	3
899.8634	1	10	n/a	n/a	1	50	4
900.8698	1	81	n/a	n/a	1	0	0
901.0698	1	81	n/a	n/a	1	0	0
901.2698	1	81	n/a	n/a	1	0	0
901.4698	1	81	n/a	n/a	1	0	0
901.6698	1	81	n/a	n/a	1	0	0
901.8698	1	81	n/a	n/a	1	0	0
902.0698	1	81	n/a	n/a	1	0	0
902.2698	1	81	n/a	n/a	1	0	0
902.4698	1	81	n/a	n/a	1	0	0
902.6698	1	81	n/a	n/a	1	0	0
903.9964	1	10	n/a	n/a	1	50	1
905.2464	1	10	n/a	n/a	1	50	2
906.4464	1	10	n/a	n/a	1	50	3
907.6462	1	21	n/a	n/a	1	50	0
908.7796	1	10	n/a	n/a	1	50	1
909.9794	1	10	n/a	n/a	1	50	2
911.296	1	10	n/a	n/a	1	50	3
912.446	1	10	n/a	n/a	1	50	4
913.5292	1	10	n/a	n/a	1	50	5
914.7792	1	10	n/a	n/a	1	50	6
915.9958	1	10	n/a	n/a	1	50	7
917.2124	1	21	n/a	n/a	1	50	0
918.2622	1	10	n/a	n/a	1	50	1
919.5456	1	10	n/a	n/a	1	50	2
920.8122	1	10	n/a	n/a	1	50	3
922.0788	1	21	n/a	n/a	1	50	0
923.3454	1	10	n/a	n/a	1	50	1
924.6452	1	10	n/a	n/a	1	50	2
925.9284	1	10	n/a	n/a	1	50	3
927.1784	1	10	n/a	n/a	1	50	4
928.1698	1	81	n/a	n/a	1	0	0
928.3698	1	81	n/a	n/a	1	0	0
928.5698	1	81	n/a	n/a	1	0	0
928.7698	1	81	n/a	n/a	1	0	0
928.9698	1	81	n/a	n/a	1	0	0
929.1698	1	81	n/a	n/a	1	0	0
929.3698	1	81	n/a	n/a	1	0	0
929.5698	1	81	n/a	n/a	1	0	0
929.7698	1	81	n/a	n/a	1	0	0
929.9698	1	81	n/a	n/a	1	0	0
931.2782	1	10	n/a	n/a	1	50	1
932.5948	1	10	n/a	n/a	1	50	2
933.8446	1	10	n/a	n/a	1	50	3
935.0946	1	21	n/a	n/a	1	50	0
936.4112	1	10	n/a	n/a	1	50	1
937.7278	1	21	n/a	n/a	1	50	0
938.7944	1	10	n/a	n/a	1	50	1
940.111	1	10	n/a	n/a	1	50	2
941.2776	1	10	n/a	n/a	1	50	3
942.4442	1	21	n/a	n/a	1	50	0
943.6942	1	10	n/a	n/a	1	50	1
944.944	1	21	n/a	n/a	1	50	0
946.0274	1	10	n/a	n/a	1	50	1
947.1272	1	10	n/a	n/a	1	50	2
948.3438	1	10	n/a	n/a	1	50	3
949.5772	1	10	n/a	n/a	1	50	4
950.6938	1	10	n/a	n/a	1	50	5
951.8104	1	21	n/a	n/a	1	50	0
952.877	1	10	n/a	n/a	1	50	1
954.0102	1	10	n/a	n/a	1	50	2
955.0026	1	81	n/a	n/a	1	0	0
955.2026	1	81	n/a	n/a	1	0	0
955.4026	1	81	n/a	n/a	1	0	0
955.6026	1	81	n/a	n/a	1	0	0
955.8026	1	81	n/a	n/a	1	0	0
956.0026	1	81	n/a	n/a	1	0	0
956.2026	1	81	n/a	n/a	1	0	0
956.4026	1	81	n/a	n/a	1	0	0
956.6026	1	81	n/a	n/a	1	0	0
956.8026	1	81	n/a	n/a	1	0	0
958.0766	1	10	n/a	n/a	1	50	1
959.2598	1	21	n/a	n/a	1	50	0
960.4764	1	10	n/a	n/a	1	50	1
961.6598	1	10	n/a	n/a	1	50	2
962.693	1	10	n/a	n/a	1	50	3
963.843	1	10	n/a	n/a	1	50	4
964.9096	1	10	n/a	n/a	1	50	5
965.9762	1	21	n/a	n/a	1	50	0
967.2928	1	10	n/a	n/a	1	50	1
968.5426	1	10	n/a	n/a	1	50	2
969.6426	1	10	n/a	n/a	1	50	3
970.7426	1	10	n/a	n/a	1	50	4
971.8592	1	10	n/a	n/a	1	50	5
973.009	1	10	n/a	n/a	1	50	6
974.209	1	10	n/a	n/a	1	50	7
975.409	1	21	n/a	n/a	1	50	0
976.4588	1	10	n/a	n/a	1	50	1
977.6088	1	10	n/a	n/a	1	50	2
978.792	1	10	n/a	n/a	1	50	3
979.8254	1	10	n/a	n/a	1	50	4
992.4436	1	81	n/a	n/a	1	0	0
992.6436	1	81	n/a	n/a	1	0	0
992.8436	1	81	n/a	n/a	1	0	0
993.0436	1	81	n/a	n/a	1	0	0
993.2436	1	81	n/a	n/a	1	0	0
993.4436	1	81	n/a	n/a	1	0	0
993.6436	1	81	n/a	n/a	1	0	0
993.8436	1	81	n/a	n/a	1	0	0
994.0436	1	81	n/a	n/a	1	0	0
994.2436	1	81	n/a	n/a	1	0	0
995.591	1	10	n/a	n/a	1	51	1
996.891	1	10	n/a	n/a	1	51	2
998.1576	1	10	n/a	n/a	1	51	3
999.3242	1	10	n/a	n/a	1	51	4
1000.4408	1	10	n/a	n/a	1	51	5
1001.7408	1	10	n/a	n/a	1	51	6
1002.8074	1	10	n/a	n/a	1	51	7
1003.874	1	21	n/a	n/a	1	51	0
1004.9072	1	10	n/a	n/a	1	51	1
1006.1072	1	10	n/a	n/a	1	51	2
1007.3736	1	10	n/a	n/a	1	51	3
1008.5902	1	10	n/a	n/a	1	51	4
1009.8402	1	10	n/a	n/a	1	51	5
1011.0902	1	21	n/a	n/a	1	51	0
1012.3068	1	10	n/a	n/a	1	51	1
1013.5234	1	21	n/a	n/a	1	51	0
1014.7732	1	10	n/a	n/a	1	51	1
1016.0398	1	10	n/a	n/a	1	51	2
1017.2398	1	10	n/a	n/a	1	51	3
1018.4398	1	10	n/a	n/a	1	51	4
1019.5452	1	81	n/a	n/a	1	0	0
1019.7452	1	81	n/a	n/a	1	0	0
1019.9452	1	81	n/a	n/a	1	0	0
1020.1452	1	81	n/a	n/a	1	0	0
1020.3452	1	81	n/a	n/a	1	0	0
1020.5452	1	81	n/a	n/a	1	0	0
1020.7452	1	81	n/a	n/a	1	0	0
1020.9452	1	81	n/a	n/a	1	0	0
1021.1452	1	81	n/a	n/a	1	0	0
1021.3452	1	81	n/a	n/a	1	0	0
1022.7062	1	10	n/a	n/a	1	51	1
1023.9728	1	21	n/a	n/a	1	51	0
1025.2894	1	10	n/a	n/a	1	51	1
1026.506	1	10	n/a	n/a	1	51	2
1027.8224	1	10	n/a	n/a	1	51	3
1029.139	1	21	n/a	n/a	1	51	0
1030.289	1	10	n/a	n/a	1	51	1
1031.4722	1	10	n/a	n/a	1	51	2
1032.6222	1	10	n/a	n/a	1	51	3
1033.7722	1	10	n/a	n/a	1	51	4
1034.972	1	10	n/a	n/a	1	51	5
1036.2386	1	10	n/a	n/a	1	51	6
1037.4052	1	10	n/a	n/a	1	51	7
1038.5718	1	21	n/a	n/a	1	51	0
1039.6052	1	10	n/a	n/a	1	51	1
1040.8718	1	10	n/a	n/a	1	51	2
1042.1716	1	10	n/a	n/a	1	51	3
1043.355	1	10	n/a	n/a	1	51	4
1044.5382	1	10	n/a	n/a	1	51	5
1045.7214	1	21	n/a	n/a	1	51	0
1046.4418	1	81	n/a	n/a	1	0	0
1046.6418	1	81	n/a	n/a	1	0	0
1046.8418	1	81	n/a	n/a	1	0	0
1047.0418	1	81	n/a	n/a	1	0	0
1047.2418	1	81	n/a	n/a	1	0	0
1047.4418	1	81	n/a	n/a	1	0	0
1047.6418	1	81	n/a	n/a	1	0	0
1047.8418	1	81	n/a	n/a	1	0	0
1048.0418	1	81	n/a	n/a	1	0	0
1048.2418	1	81	n/a	n/a	1	0	0
1049.4712	1	10	n/a	n/a	1	51	1
1050.6544	1	10	n/a	n/a	1	51	2
1051.971	1	10	n/a	n/a	1	51	3
1053.2044	1	10	n/a	n/a	1	51	4
1054.2542	1	10	n/a	n/a	1	51	5
1055.5042	1	10	n/a	n/a	1	51	6
1056.6542	1	10	n/a	n/a	1	51	7
1057.804	1	21	n/a	n/a	1	51	0
1059.1206	1	10	n/a	n/a	1	51	1
1060.4372	1	21	n/a	n/a	1	51	0
1061.7372	1	10	n/a	n/a	1	51	1
1062.9204	1	10	n/a	n/a	1	51	2
1064.0204	1	10	n/a	n/a	1	51	3
1065.1204	1	21	n/a	n/a	1	51	0
1066.4368	1	10	n/a	n/a	1	51	1
1067.6202	1	10	n/a	n/a	1	51	2
1068.7034	1	10	n/a	n/a	1	51	3
1069.7366	1	10	n/a	n/a	1	51	4
1070.8866	1	10	n/a	n/a	1	51	5
1072.0366	1	21	n/a	n/a	1	51	0
1072.888	1	81	n/a	n/a	1	0	0
1073.088	1	81	n/a	n/a	1	0	0
1073.288	1	81	n/a	n/a	1	0	0
1073.488	1	81	n/a	n/a	1	0	0
1073.688	1	81	n/a	n/a	1	0	0
1073.888	1	81	n/a	n/a	1	0	0
1074.088	1	81	n/a	n/a	1	0	0
1074.288	1	81	n/a	n/a	1	0	0
1074.488	1	81	n/a	n/a	1	0	0
1074.688	1	81	n/a	n/a	1	0	0
1075.903	1	10	n/a	n/a	1	51	1
1077.0196	1	21	n/a	n/a	1	51	0
1078.2362	1	10	n/a	n/a	1	51	1
1079.4528	1	21	n/a	n/a	1	51	0
1080.7694	1	10	n/a	n/a	1	51	1
1081.9694	1	10	n/a	n/a	1	51	2
1083.0026	1	10	n/a	n/a	1	51	3
1084.0358	1	21	n/a	n/a	1	51	0
1085.1024	1	10	n/a	n/a	1	51	1
1086.3358	1	10	n/a	n/a	1	51	2
1087.619	1	10	n/a	n/a	1	51	3
1088.7522	1	10	n/a	n/a	1	51	4
1090.0688	1	10	n/a	n/a	1	51	5
1091.3854	1	21	n/a	n/a	1	51	0
1092.5354	1	10	n/a	n/a	1	51	1
1093.6852	1	21	n/a	n/a	1	51	0
1094.8018	1	10	n/a	n/a	1	51	1
1096.0352	1	10	n/a	n/a	1	51	2
1097.285	1	10	n/a	n/a	1	51	3
1098.6016	1	10	n/a	n/a	1	51	4
1099.459	1	81	n/a	n/a	1	0	0
1099.659	1	81	n/a	n/a	1	0	0
1099.859	1	81	n/a	n/a	1	0	0
1100.059	1	81	n/a	n/a	1	0	0
1100.259	1	81	n/a	n/a	1	0	0
1100.459	1	81	n/a	n/a	1	0	0
1100.659	1	81	n/a	n/a	1	0	0
1100.859	1	81	n/a	n/a	1	0	0
1101.059	1	81	n/a	n/a	1	0	0
1101.259	1	81	n/a	n/a	1	0	0
1102.5848	1	10	n/a	n/a	1	51	1
1103.868	1	10	n/a	n/a	1	51	2
1105.0846	1	10	n/a	n/a	1	51	3
1106.1512	1	10	n/a	n/a	1	51	4
1107.2344	1	10	n/a	n/a	1	51	5
1108.5178	1	10	n/a	n/a	1	51	6
1109.801	1	10	n/a	n/a	1	51	7
1111.0842	1	21	n/a	n/a	1	51	0
1112.1342	1	10	n/a	n/a	1	51	1
1113.1842	1	21	n/a	n/a	1	51	0
1114.334	1	10	n/a	n/a	1	51	1
1115.484	1	10	n/a	n/a	1	51	2
1116.5506	1	10	n/a	n/a	1	51	3
1117.7006	1	10	n/a	n/a	1	51	4
1118.8504	1	10	n/a	n/a	1	51	5
1120.0004	1	21	n/a	n/a	1	51	0
1121.267	1	10	n/a	n/a	1	51	1
1122.4336	1	10	n/a	n/a	1	51	2
1123.4836	1	10	n/a	n/a	1	51	3
1124.5334	1	21	n/a	n/a	1	51	0
1180.89	1	82	n/a	n/a	1	0	0
1181.231	1	82	n/a	n/a	1	0	0
1181.474	1	82	n/a	n/a	1	0	0
1181.523	1	82	n/a	n/a	1	0	0
1181.819	1	82	n/a	n/a	1	0	0
1181.89	1	82	n/a	n/a	1	0	0
1182.161	1	82	n/a	n/a	1	0	0
1182.337	1	82	n/a	n/a	1	0	0
1182.718	1	82	n/a	n/a	1	0	0
1182.78	1	82	n/a	n/a	1	0	0
1183.9514	1	10	n/a	n/a	1	52	1
1184.9848	1	10	n/a	n/a	1	52	2
1186.1014	1	10	n/a	n/a	1	52	3
1187.218	1	21	n/a	n/a	1	52	0
1188.5178	1	10	n/a	n/a	1	52	1
1189.7344	1	10	n/a	n/a	1	52	2
1191.051	1	10	n/a	n/a	1	52	3
1192.3676	1	21	n/a	n/a	1	52	0
1193.4676	1	10	n/a	n/a	1	52	1
1194.7674	1	10	n/a	n/a	1	52	2
1196.0674	1	10	n/a	n/a	1	52	3
1197.184	1	10	n/a	n/a	1	52	4
1198.3506	1	10	n/a	n/a	1	52	5
1199.5172	1	21	n/a	n/a	1	52	0
1200.6004	1	10	n/a	n/a	1	52	1
1201.6838	1	21	n/a	n/a	1	52	0
1202.717	1	10	n/a	n/a	1	52	1
1203.9002	1	10	n/a	n/a	1	52	2
1205.0502	1	10	n/a	n/a	1	52	3
1206.2002	1	10	n/a	n/a	1	52	4
1207.1676	1	82	n/a	n/a	1	0	0
1207.2686	1	82	n/a	n/a	1	0	0
1207.6186	1	82	n/a	n/a	1	0	0
1207.6736	1	82	n/a	n/a	1	0	0
1207.8416	1	82	n/a	n/a	1	0	0
1208.1676	1	82	n/a	n/a	1	0	0
1208.5476	1	82	n/a	n/a	1	0	0
1208.8076	1	82	n/a	n/a	1	0	0
1208.8506	1	82	n/a	n/a	1	0	0
1208.9236	1	82	n/a	n/a	1	0	0
1210.3666	1	10	n/a	n/a	1	52	1
1211.5164	1	10	n/a	n/a	1	52	2
1212.583	1	10	n/a	n/a	1	52	3
1213.783	1	10	n/a	n/a	1	52	4
1215.0162	1	10	n/a	n/a	1	52	5
1216.2662	1	10	n/a	n/a	1	52	6
1217.3662	1	10	n/a	n/a	1	52	7
1218.466	1	21	n/a	n/a	1	52	0
1219.6494	1	10	n/a	n/a	1	52	1
1220.7992	1	10	n/a	n/a	1	52	2
1221.8658	1	10	n/a	n/a	1	52	3
1222.9324	1	21	n/a	n/a	1	52	0
1224.2658	1	10	n/a	n/a	1	52	1
1225.4656	1	10	n/a	n/a	1	52	2
1226.5322	1	10	n/a	n/a	1	52	3
1227.5656	1	10	n/a	n/a	1	52	4
1228.6988	1	10	n/a	n/a	1	52	5
1229.832	1	21	n/a	n/a	1	52	0
1231.082	1	10	n/a	n/a	1	52	1
1232.332	1	21	n/a	n/a	1	52	0
1233.0926	1	82	n/a	n/a	1	0	0
1233.1806	1	82	n/a	n/a	1	0	0
1233.2266	1	82	n/a	n/a	1	0	0
1233.6246	1	82	n/a	n/a	1	0	0
1233.6446	1	82	n/a	n/a	1	0	0
1234.0926	1	82	n/a	n/a	1	0	0
1234.4296	1	82	n/a	n/a	1	0	0
1234.5196	1	82	n/a	n/a	1	0	0
1234.5566	1	82	n/a	n/a	1	0	0
1234.6166	1	82	n/a	n/a	1	0	0
1236.0484	1	10	n/a	n/a	1	52	1
1237.3482	1	10	n/a	n/a	1	52	2
1238.4148	1	10	n/a	n/a	1	52	3
1239.5314	1	10	n/a	n/a	1	52	4
1240.7814	1	10	n/a	n/a	1	52	5
1241.8814	1	10	n/a	n/a	1	52	6
1243.1646	1	10	n/a	n/a	1	52	7
1244.4478	1	21	n/a	n/a	1	52	0
1245.5812	1	10	n/a	n/a	1	52	1
1246.7144	1	21	n/a	n/a	1	52	0
1248.031	1	10	n/a	n/a	1	52	1
1249.3476	1	21	n/a	n/a	1	52	0
1250.6142	1	10	n/a	n/a	1	52	1
1251.7142	1	10	n/a	n/a	1	52	2
1252.764	1	10	n/a	n/a	1	52	3
1253.9806	1	10	n/a	n/a	1	52	4
1255.2806	1	10	n/a	n/a	1	52	5
1256.5804	1	21	n/a	n/a	1	52	0
1257.6638	1	10	n/a	n/a	1	52	1
1258.8304	1	10	n/a	n/a	1	52	2
1259.6678	1	82	n/a	n/a	1	0	0
1259.9548	1	82	n/a	n/a	1	0	0
1260.2098	1	82	n/a	n/a	1	0	0
1260.3378	1	82	n/a	n/a	1	0	0
1260.3668	1	82	n/a	n/a	1	0	0
1260.6678	1	82	n/a	n/a	1	0	0
1260.8328	1	82	n/a	n/a	1	0	0
1261.1908	1	82	n/a	n/a	1	0	0
1261.2548	1	82	n/a	n/a	1	0	0
1261.6358	1	82	n/a	n/a	1	0	0
1262.6134	1	10	n/a	n/a	1	52	1
1263.93	1	10	n/a	n/a	1	52	2
1264.98	1	10	n/a	n/a	1	52	3
1266.03	1	10	n/a	n/a	1	52	4
1267.2798	1	10	n/a	n/a	1	52	5
1268.5298	1	21	n/a	n/a	1	52	0
1269.8464	1	10	n/a	n/a	1	52	1
1271.163	1	21	n/a	n/a	1	52	0
1272.2296	1	10	n/a	n/a	1	52	1
1273.4794	1	10	n/a	n/a	1	52	2
1274.7794	1	10	n/a	n/a	1	52	3
1276.0794	1	21	n/a	n/a	1	52	0
1277.246	1	10	n/a	n/a	1	52	1
1278.4792	1	10	n/a	n/a	1	52	2
1279.7292	1	10	n/a	n/a	1	52	3
1280.979	1	10	n/a	n/a	1	52	4
1282.0956	1	10	n/a	n/a	1	52	5
1283.2122	1	21	n/a	n/a	1	52	0
1284.5122	1	10	n/a	n/a	1	52	1
1285.7622	1	10	n/a	n/a	1	52	2
1286.6216	1	82	n/a	n/a	1	0	0
1286.7176	1	82	n/a	n/a	1	0	0
1287.0516	1	82	n/a	n/a	1	0	0
1287.1126	1	82	n/a	n/a	1	0	0
1287.3996	1	82	n/a	n/a	1	0	0
1287.6216	1	82	n/a	n/a	1	0	0
1287.7196	1	82	n/a	n/a	1	0	0
1288.0406	1	82	n/a	n/a	1	0	0
1288.2706	1	82	n/a	n/a	1	0	0
1288.4496	1	82	n/a	n/a	1	0	0
1289.7952	1	10	n/a	n/a	1	52	1
1290.8618	1	10	n/a	n/a	1	52	2
1291.895	1	10	n/a	n/a	1	52	3
1292.9284	1	21	n/a	n/a	1	52	0
1293.9616	1	10	n/a	n/a	1	52	1
1295.1282	1	10	n/a	n/a	1	52	2
1296.3948	1	10	n/a	n/a	1	52	3
1297.6614	1	21	n/a	n/a	1	52	0
1298.8446	1	10	n/a	n/a	1	52	1
1300.028	1	21	n/a	n/a	1	52	0
1301.1778	1	10	n/a	n/a	1	52	1
1302.3278	1	21	n/a	n/a	1	52	0
1303.5944	1	10	n/a	n/a	1	52	1
1304.861	1	21	n/a	n/a	1	52	0
1306.0942	1	10	n/a	n/a	1	52	1
1307.1276	1	10	n/a	n/a	1	52	2
1308.3942	1	10	n/a	n/a	1	52	3
1309.4608	1	10	n/a	n/a	1	52	4
1310.6106	1	10	n/a	n/a	1	52	5
1311.744	1	10	n/a	n/a	1	52	6
1323.0514	1	81	n/a	n/a	1	0	0
1323.2514	1	81	n/a	n/a	1	0	0
1323.4514	1	81	n/a	n/a	1	0	0
1323.6514	1	81	n/a	n/a	1	0	0
1323.8514	1	81	n/a	n/a	1	0	0
1324.0514	1	81	n/a	n/a	1	0	0
1324.2514	1	81	n/a	n/a	1	0	0
1324.4514	1	81	n/a	n/a	1	0	0
1324.6514	1	81	n/a	n/a	1	0	0
1324.8514	1	81	n/a	n/a	1	0	0
1325.9764	1	10	n/a	n/a	1	50	1
1327.2264	1	10	n/a	n/a	1	50	2
1328.443	1	10	n/a	n/a	1	50	3
1329.7762	1	10	n/a	n/a	1	50	4
1330.8928	1	10	n/a	n/a	1	50	5
1332.0094	1	21	n/a	n/a	1	50	0
1333.1594	1	10	n/a	n/a	1	50	1
1334.2092	1	10	n/a	n/a	1	50	2
1335.4758	1	10	n/a	n/a	1	50	3
1336.7758	1	10	n/a	n/a	1	50	4
1338.009	1	10	n/a	n/a	1	50	5
1339.159	1	10	n/a	n/a	1	50	6
1340.1922	1	10	n/a	n/a	1	50	7
1341.2256	1	21	n/a	n/a	1	50	0
1342.4088	1	10	n/a	n/a	1	50	1
1343.4588	1	10	n/a	n/a	1	50	2
1344.7754	1	10	n/a	n/a	1	50	3
1346.0918	1	21	n/a	n/a	1	50	0
1347.4084	1	10	n/a	n/a	1	50	1
1348.475	1	10	n/a	n/a	1	50	2
1349.2046	1	81	n/a	n/a	1	0	0
1349.4046	1	81	n/a	n/a	1	0	0
1349.6046	1	81	n/a	n/a	1	0	0
1349.8046	1	81	n/a	n/a	1	0	0
1350.0046	1	81	n/a	n/a	1	0	0
1350.2046	1	81	n/a	n/a	1	0	0
1350.4046	1	81	n/a	n/a	1	0	0
1350.6046	1	81	n/a	n/a	1	0	0
1350.8046	1	81	n/a	n/a	1	0	0
1351.0046	1	81	n/a	n/a	1	0	0
1352.3582	1	10	n/a	n/a	1	50	1
1353.6248	1	21	n/a	n/a	1	50	0
1354.708	1	10	n/a	n/a	1	50	1
1355.8914	1	10	n/a	n/a	1	50	2
1357.158	1	10	n/a	n/a	1	50	3
1358.4412	1	10	n/a	n/a	1	50	4
1359.5744	1	10	n/a	n/a	1	50	5
1360.7078	1	21	n/a	n/a	1	50	0
1361.8242	1	10	n/a	n/a	1	50	1
1362.9908	1	10	n/a	n/a	1	50	2
1364.0242	1	10	n/a	n/a	1	50	3
1365.2408	1	10	n/a	n/a	1	50	4
1366.424	1	10	n/a	n/a	1	50	5
1367.6072	1	21	n/a	n/a	1	50	0
1368.8238	1	10	n/a	n/a	1	50	1
1370.0238	1	10	n/a	n/a	1	50	2
1371.257	1	10	n/a	n/a	1	50	3
1372.4904	1	21	n/a	n/a	1	50	0
1373.6736	1	10	n/a	n/a	1	50	1
1374.9902	1	10	n/a	n/a	1	50	2
1376.0898	1	81	n/a	n/a	1	0	0
1376.2898	1	81	n/a	n/a	1	0	0
1376.4898	1	81	n/a	n/a	1	0	0
1376.6898	1	81	n/a	n/a	1	0	0
1376.8898	1	81	n/a	n/a	1	0	0
1377.0898	1	81	n/a	n/a	1	0	0
1377.2898	1	81	n/a	n/a	1	0	0
1377.4898	1	81	n/a	n/a	1	0	0
1377.6898	1	81	n/a	n/a	1	0	0
1377.8898	1	81	n/a	n/a	1	0	0
1379.1566	1	10	n/a	n/a	1	50	1
1380.2232	1	10	n/a	n/a	1	50	2
1381.5064	1	10	n/a	n/a	1	50	3
1382.673	1	10	n/a	n/a	1	50	4
1383.8396	1	10	n/a	n/a	1	50	5
1385.0062	1	21	n/a	n/a	1	50	0
1386.2728	1	10	n/a	n/a	1	50	1
1387.4394	1	10	n/a	n/a	1	50	2
1388.5728	1	10	n/a	n/a	1	50	3
1389.706	1	21	n/a	n/a	1	50	0
1390.8226	1	10	n/a	n/a	1	50	1
1392.0058	1	10	n/a	n/a	1	50	2
1393.1892	1	10	n/a	n/a	1	50	3
1394.4224	1	10	n/a	n/a	1	50	4
1395.5224	1	10	n/a	n/a	1	50	5
1396.6222	1	21	n/a	n/a	1	50	0
1397.9388	1	10	n/a	n/a	1	50	1
1399.0388	1	10	n/a	n/a	1	50	2
1400.0888	1	10	n/a	n/a	1	50	3
1401.172	1	10	n/a	n/a	1	50	4
1402.0224	1	81	n/a	n/a	1	0	0
1402.2224	1	81	n/a	n/a	1	0	0
1402.4224	1	81	n/a	n/a	1	0	0
1402.6224	1	81	n/a	n/a	1	0	0
1402.8224	1	81	n/a	n/a	1	0	0
1403.0224	1	81	n/a	n/a	1	0	0
1403.2224	1	81	n/a	n/a	1	0	0
1403.4224	1	81	n/a	n/a	1	0	0
1403.6224	1	81	n/a	n/a	1	0	0
1403.8224	1	81	n/a	n/a	1	0	0
1405.205	1	10	n/a	n/a	1	50	1
1406.305	1	10	n/a	n/a	1	50	2
1407.6216	1	10	n/a	n/a	1	50	3
1408.9382	1	21	n/a	n/a	1	50	0
1410.1382	1	10	n/a	n/a	1	50	1
1411.3214	1	10	n/a	n/a	1	50	2
1412.638	1	10	n/a	n/a	1	50	3
1413.888	1	10	n/a	n/a	1	50	4
1415.0212	1	10	n/a	n/a	1	50	5
1416.1544	1	21	n/a	n/a	1	50	0
1417.3044	1	10	n/a	n/a	1	50	1
1418.4544	1	21	n/a	n/a	1	50	0
1419.7208	1	10	n/a	n/a	1	50	1
1420.9874	1	21	n/a	n/a	1	50	0
1422.054	1	10	n/a	n/a	1	50	1
1423.2874	1	10	n/a	n/a	1	50	2
1424.5372	1	10	n/a	n/a	1	50	3
1425.7538	1	10	n/a	n/a	1	50	4
1426.8538	1	10	n/a	n/a	1	50	5
1427.9704	1	10	n/a	n/a	1	50	6
1428.8058	1	81	n/a	n/a	1	0	0
1429.0058	1	81	n/a	n/a	1	0	0
1429.2058	1	81	n/a	n/a	1	0	0
1429.4058	1	81	n/a	n/a	1	0	0
1429.6058	1	81	n/a	n/a	1	0	0
1429.8058	1	81	n/a	n/a	1	0	0
1430.0058	1	81	n/a	n/a	1	0	0
1430.2058	1	81	n/a	n/a	1	0	0
1430.4058	1	81	n/a	n/a	1	0	0
1430.6058	1	81	n/a	n/a	1	0	0
1431.8702	1	10	n/a	n/a	1	50	1
1432.9534	1	10	n/a	n/a	1	50	2
1433.9868	1	10	n/a	n/a	1	50	3
1435.02	1	21	n/a	n/a	1	50	0
1436.1866	1	10	n/a	n/a	1	50	1
1437.3698	1	10	n/a	n/a	1	50	2
1438.5532	1	10	n/a	n/a	1	50	3
1439.7364	1	21	n/a	n/a	1	50	0
1440.9696	1	10	n/a	n/a	1	50	1
1442.003	1	10	n/a	n/a	1	50	2
1443.2862	1	10	n/a	n/a	1	50	3
1444.5694	1	21	n/a	n/a	1	50	0
1445.6194	1	10	n/a	n/a	1	50	1
1446.8194	1	10	n/a	n/a	1	50	2
1448.1526	1	10	n/a	n/a	1	50	3
1449.2024	1	10	n/a	n/a	1	50	4
1450.319	1	10	n/a	n/a	1	50	5
1451.4356	1	21	n/a	n/a	1	50	0
1452.6356	1	10	n/a	n/a	1	50	1
1453.9522	1	10	n/a	n/a	1	50	2
1464.5964	1	81	n/a	n/a	1	0	0
1464.7964	1	81	n/a	n/a	1	0	0
1464.9964	1	81	n/a	n/a	1	0	0
1465.1964	1	81	n/a	n/a	1	0	0
1465.3964	1	81	n/a	n/a	1	0	0
1465.5964	1	81	n/a	n/a	1	0	0
1465.7964	1	81	n/a	n/a	1	0	0
1465.9964	1	81	n/a	n/a	1	0	0
1466.1964	1	81	n/a	n/a	1	0	0
1466.3964	1	81	n/a	n/a	1	0	0
1467.7848	1	10	n/a	n/a	1	51	1
1469.1014	1	10	n/a	n/a	1	51	2
1470.1846	1	10	n/a	n/a	1	51	3
1471.3512	1	10	n/a	n/a	1	51	4
1472.5012	1	10	n/a	n/a	1	51	5
1473.551	1	10	n/a	n/a	1	51	6
1474.6676	1	10	n/a	n/a	1	51	7
1475.7842	1	21	n/a	n/a	1	51	0
1476.9342	1	10	n/a	n/a	1	51	1
1478.2508	1	10	n/a	n/a	1	51	2
1479.484	1	10	n/a	n/a	1	51	3
1480.6674	1	10	n/a	n/a	1	51	4
1481.9172	1	10	n/a	n/a	1	51	5
1483.1672	1	21	n/a	n/a	1	51	0
1484.3338	1	10	n/a	n/a	1	51	1
1485.5004	1	21	n/a	n/a	1	51	0
1486.6836	1	10	n/a	n/a	1	51	1
1487.8336	1	10	n/a	n/a	1	51	2
1488.9668	1	10	n/a	n/a	1	51	3
1490.1668	1	10	n/a	n/a	1	51	4
1491.2372	1	81	n/a	n/a	1	0	0
1491.4372	1	81	n/a	n/a	1	0	0
1491.6372	1	81	n/a	n/a	1	0	0
1491.8372	1	81	n/a	n/a	1	0	0
1492.0372	1	81	n/a	n/a	1	0	0
1492.2372	1	81	n/a	n/a	1	0	0
1492.4372	1	81	n/a	n/a	1	0	0
1492.6372	1	81	n/a	n/a	1	0	0
1492.8372	1	81	n/a	n/a	1	0	0
1493.0372	1	81	n/a	n/a	1	0	0
1494.1666	1	10	n/a	n/a	1	51	1
1495.4832	1	10	n/a	n/a	1	51	2
1496.7498	1	10	n/a	n/a	1	51	3
1498.0162	1	21	n/a	n/a	1	51	0
1499.0828	1	10	n/a	n/a	1	51	1
1500.3994	1	10	n/a	n/a	1	51	2
1501.6494	1	10	n/a	n/a	1	51	3
1502.9326	1	10	n/a	n/a	1	51	4
1504.2326	1	10	n/a	n/a	1	51	5
1505.4658	1	10	n/a	n/a	1	51	6
1506.7658	1	10	n/a	n/a	1	51	7
1508.0656	1	21	n/a	n/a	1	51	0
1509.1824	1	10	n/a	n/a	1	51	1
1510.3488	1	10	n/a	n/a	1	51	2
1511.5154	1	10	n/a	n/a	1	51	3
1512.682	1	21	n/a	n/a	1	51	0
1513.9154	1	10	n/a	n/a	1	51	1
1515.0652	1	10	n/a	n/a	1	51	2
1516.3318	1	10	n/a	n/a	1	51	3
1517.5984	1	21	n/a	n/a	1	51	0
1518.4702	1	81	n/a	n/a	1	0	0
1518.6702	1	81	n/a	n/a	1	0	0
1518.8702	1	81	n/a	n/a	1	0	0
1519.0702	1	81	n/a	n/a	1	0	0
1519.2702	1	81	n/a	n/a	1	0	0
1519.4702	1	81	n/a	n/a	1	0	0
1519.6702	1	81	n/a	n/a	1	0	0
1519.8702	1	81	n/a	n/a	1	0	0
1520.0702	1	81	n/a	n/a	1	0	0
1520.2702	1	81	n/a	n/a	1	0	0
1521.5316	1	10	n/a	n/a	1	51	1
1522.8148	1	10	n/a	n/a	1	51	2
1524.098	1	10	n/a	n/a	1	51	3
1525.4146	1	10	n/a	n/a	1	51	4
1526.5146	1	10	n/a	n/a	1	51	5
1527.7646	1	10	n/a	n/a	1	51	6
1528.9478	1	10	n/a	n/a	1	51	7
1530.131	1	21	n/a	n/a	1	51	0
1531.431	1	10	n/a	n/a	1	51	1
1532.6142	1	10	n/a	n/a	1	51	2
1533.8308	1	10	n/a	n/a	1	51	3
1535.0474	1	21	n/a	n/a	1	51	0
1536.2474	1	10	n/a	n/a	1	51	1
1537.5474	1	10	n/a	n/a	1	51	2
1538.7138	1	10	n/a	n/a	1	51	3
1540.0138	1	10	n/a	n/a	1	51	4
1541.2638	1	10	n/a	n/a	1	51	5
1542.5136	1	21	n/a	n/a	1	51	0
1543.547	1	10	n/a	n/a	1	51	1
1544.5968	1	10	n/a	n/a	1	51	2
1545.3722	1	81	n/a	n/a	1	0	0
1545.5722	1	81	n/a	n/a	1	0	0
1545.7722	1	81	n/a	n/a	1	0	0
1545.9722	1	81	n/a	n/a	1	0	0
1546.1722	1	81	n/a	n/a	1	0	0
1546.3722	1	81	n/a	n/a	1	0	0
1546.5722	1	81	n/a	n/a	1	0	0
1546.7722	1	81	n/a	n/a	1	0	0
1546.9722	1	81	n/a	n/a	1	0	0
1547.1722	1	81	n/a	n/a	1	0	0
1548.4634	1	10	n/a	n/a	1	51	1
1549.6632	1	21	n/a	n/a	1	51	0
1550.8966	1	10	n/a	n/a	1	51	1
1552.1132	1	10	n/a	n/a	1	51	2
1553.2464	1	10	n/a	n/a	1	51	3
1554.4796	1	10	n/a	n/a	1	51	4
1555.7462	1	10	n/a	n/a	1	51	5
1557.0128	1	21	n/a	n/a	1	51	0
1558.1294	1	10	n/a	n/a	1	51	1
1559.246	1	21	n/a	n/a	1	51	0
1560.296	1	10	n/a	n/a	1	51	1
1561.3792	1	10	n/a	n/a	1	51	2
1562.5292	1	10	n/a	n/a	1	51	3
1563.679	1	21	n/a	n/a	1	51	0
1564.8456	1	10	n/a	n/a	1	51	1
1566.0122	1	21	n/a	n/a	1	51	0
1567.2456	1	10	n/a	n/a	1	51	1
1568.3954	1	10	n/a	n/a	1	51	2
1569.612	1	10	n/a	n/a	1	51	3
1570.812	1	10	n/a	n/a	1	51	4
1571.8814	1	81	n/a	n/a	1	0	0
1572.0814	1	81	n/a	n/a	1	0	0
1572.2814	1	81	n/a	n/a	1	0	0
1572.4814	1	81	n/a	n/a	1	0	0
1572.6814	1	81	n/a	n/a	1	0	0
1572.8816	1	81	n/a	n/a	1	0	0
1573.0816	1	81	n/a	n/a	1	0	0
1573.2816	1	81	n/a	n/a	1	0	0
1573.4816	1	81	n/a	n/a	1	0	0
1573.6816	1	81	n/a	n/a	1	0	0
1574.8952	1	10	n/a	n/a	1	51	1
1576.0284	1	10	n/a	n/a	1	51	2
1577.1116	1	10	n/a	n/a	1	51	3
1578.2782	1	10	n/a	n/a	1	51	4
1579.4948	1	10	n/a	n/a	1	51	5
1580.628	1	10	n/a	n/a	1	51	6
1581.6614	1	10	n/a	n/a	1	51	7
1582.6946	1	21	n/a	n/a	1	51	0
1583.828	1	10	n/a	n/a	1	51	1
1585.0278	1	10	n/a	n/a	1	51	2
1586.1778	1	10	n/a	n/a	1	51	3
1587.261	1	10	n/a	n/a	1	51	4
1588.311	1	10	n/a	n/a	1	51	5
1589.361	1	21	n/a	n/a	1	51	0
1590.4442	1	10	n/a	n/a	1	51	1
1591.5108	1	10	n/a	n/a	1	51	2
1592.7608	1	10	n/a	n/a	1	51	3
1593.9606	1	10	n/a	n/a	1	51	4
1595.2106	1	10	n/a	n/a	1	51	5
1596.3606	1	10	n/a	n/a	1	51	6
1948.6916	1	81	n/a	n/a	1	0	0
1948.8916	1	81	n/a	n/a	1	0	0
1949.0916	1	81	n/a	n/a	1	0	0
1949.2916	1	81	n/a	n/a	1	0	0
1949.4916	1	81	n/a	n/a	1	0	0
1949.6916	1	81	n/a	n/a	1	0	0
1949.8916	1	81	n/a	n/a	1	0	0
1950.0916	1	81	n/a	n/a	1	0	0
1950.2916	1	81	n/a	n/a	1	0	0
1950.4916	1	81	n/a	n/a	1	0	0
1951.7062	1	10	n/a	n/a	1	51	1
1952.7728	1	10	n/a	n/a	1	51	2
1954.0728	1	10	n/a	n/a	1	51	3
1955.1728	1	10	n/a	n/a	1	51	4
1956.4894	1	10	n/a	n/a	1	51	5
1957.806	1	21	n/a	n/a	1	51	0
1958.9558	1	10	n/a	n/a	1	51	1
1960.1058	1	10	n/a	n/a	1	51	2
1961.289	1	10	n/a	n/a	1	51	3
1962.4722	1	21	n/a	n/a	1	51	0
1963.5888	1	10	n/a	n/a	1	51	1
1964.7054	1	21	n/a	n/a	1	51	0
1965.7722	1	10	n/a	n/a	1	51	1
1966.8388	1	21	n/a	n/a	1	51	0
1968.022	1	10	n/a	n/a	1	51	1
1969.2052	1	21	n/a	n/a	1	51	0
1970.5218	1	10	n/a	n/a	1	51	1
1971.7218	1	10	n/a	n/a	1	51	2
1972.8384	1	10	n/a	n/a	1	51	3
1974.055	1	10	n/a	n/a	1	51	4
1974.8324	1	81	n/a	n/a	1	0	0
1975.0324	1	81	n/a	n/a	1	0	0
1975.2324	1	81	n/a	n/a	1	0	0
1975.4324	1	81	n/a	n/a	1	0	0
1975.6324	1	81	n/a	n/a	1	0	0
1975.8324	1	81	n/a	n/a	1	0	0
1976.0324	1	81	n/a	n/a	1	0	0
1976.2324	1	81	n/a	n/a	1	0	0
1976.4324	1	81	n/a	n/a	1	0	0
1976.6324	1	81	n/a	n/a	1	0	0
1978.0214	1	10	n/a	n/a	1	51	1
1979.2546	1	10	n/a	n/a	1	51	2
1980.288	1	10	n/a	n/a	1	51	3
1981.3212	1	21	n/a	n/a	1	51	0
1982.4044	1	10	n/a	n/a	1	51	1
1983.571	1	10	n/a	n/a	1	51	2
1984.821	1	10	n/a	n/a	1	51	3
1985.871	1	10	n/a	n/a	1	51	4
1986.9708	1	10	n/a	n/a	1	51	5
1988.0542	1	10	n/a	n/a	1	51	6
1989.304	1	10	n/a	n/a	1	51	7
1990.554	1	21	n/a	n/a	1	51	0
1991.8206	1	10	n/a	n/a	1	51	1
1992.9706	1	10	n/a	n/a	1	51	2
1994.1704	1	10	n/a	n/a	1	51	3
1995.4704	1	10	n/a	n/a	1	51	4
1996.787	1	10	n/a	n/a	1	51	5
1998.1036	1	21	n/a	n/a	1	51	0
1999.3534	1	10	n/a	n/a	1	51	1
2000.6534	1	10	n/a	n/a	1	51	2
2001.4978	1	81	n/a	n/a	1	0	0
2001.6978	1	81	n/a	n/a	1	0	0
2001.8978	1	81	n/a	n/a	1	0	0
2002.0978	1	81	n/a	n/a	1	0	0
2002.2978	1	81	n/a	n/a	1	0	0
2002.4978	1	81	n/a	n/a	1	0	0
2002.6978	1	81	n/a	n/a	1	0	0
2002.8978	1	81	n/a	n/a	1	0	0
2003.0978	1	81	n/a	n/a	1	0	0
2003.2978	1	81	n/a	n/a	1	0	0
2004.6032	1	10	n/a	n/a	1	51	1
2005.6364	1	10	n/a	n/a	1	51	2
2006.7196	1	10	n/a	n/a	1	51	3
2007.8362	1	10	n/a	n/a	1	51	4
2008.9862	1	10	n/a	n/a	1	51	5
2010.0862	1	10	n/a	n/a	1	51	6
2011.186	1	10	n/a	n/a	1	51	7
2012.286	1	21	n/a	n/a	1	51	0
2013.4526	1	10	n/a	n/a	1	51	1
2014.7692	1	10	n/a	n/a	1	51	2
2015.8358	1	10	n/a	n/a	1	51	3
2016.9024	1	21	n/a	n/a	1	51	0
2017.9524	1	10	n/a	n/a	1	51	1
2019.0024	1	21	n/a	n/a	1	51	0
2020.1522	1	10	n/a	n/a	1	51	1
2021.3356	1	10	n/a	n/a	1	51	2
2022.3854	1	10	n/a	n/a	1	51	3
2023.4354	1	21	n/a	n/a	1	51	0
2024.5686	1	10	n/a	n/a	1	51	1
2025.8686	1	10	n/a	n/a	1	51	2
2026.971	1	81	n/a	n/a	1	0	0
2027.171	1	81	n/a	n/a	1	0	0
2027.371	1	81	n/a	n/a	1	0	0
2027.571	1	81	n/a	n/a	1	0	0
2027.771	1	81	n/a	n/a	1	0	0
2027.971	1	81	n/a	n/a	1	0	0
2028.171	1	81	n/a	n/a	1	0	0
2028.371	1	81	n/a	n/a	1	0	0
2028.571	1	81	n/a	n/a	1	0	0
2028.771	1	81	n/a	n/a	1	0	0
2030.0516	1	10	n/a	n/a	1	51	1
2031.1516	1	10	n/a	n/a	1	51	2
2032.3016	1	10	n/a	n/a	1	51	3
2033.4682	1	10	n/a	n/a	1	51	4
2034.7348	1	10	n/a	n/a	1	51	5
2035.9514	1	10	n/a	n/a	1	51	6
2037.0346	1	10	n/a	n/a	1	51	7
2038.1178	1	21	n/a	n/a	1	51	0
2039.2178	1	10	n/a	n/a	1	51	1
2040.5178	1	10	n/a	n/a	1	51	2
2041.7342	1	10	n/a	n/a	1	51	3
2042.8176	1	10	n/a	n/a	1	51	4
2043.9008	1	10	n/a	n/a	1	51	5
2045.0008	1	10	n/a	n/a	1	51	6
2046.1508	1	10	n/a	n/a	1	51	7
2047.3006	1	21	n/a	n/a	1	51	0
2048.5338	1	10	n/a	n/a	1	51	1
2049.6338	1	10	n/a	n/a	1	51	2
2050.8504	1	10	n/a	n/a	1	51	3
2051.9338	1	10	n/a	n/a	1	51	4
2052.801	1	81	n/a	n/a	1	0	0
2053.001	1	81	n/a	n/a	1	0	0
2053.201	1	81	n/a	n/a	1	0	0
2053.401	1	81	n/a	n/a	1	0	0
2053.601	1	81	n/a	n/a	1	0	0
2053.8012	1	81	n/a	n/a	1	0	0
2054.0012	1	81	n/a	n/a	1	0	0
2054.2012	1	81	n/a	n/a	1	0	0
2054.4012	1	81	n/a	n/a	1	0	0
2054.6012	1	81	n/a	n/a	1	0	0
2055.7334	1	10	n/a	n/a	1	51	1
2056.85	1	10	n/a	n/a	1	51	2
2057.9334	1	10	n/a	n/a	1	51	3
2059.0166	1	21	n/a	n/a	1	51	0
2060.2666	1	10	n/a	n/a	1	51	1
2061.4498	1	10	n/a	n/a	1	51	2
2062.483	1	10	n/a	n/a	1	51	3
2063.733	1	10	n/a	n/a	1	51	4
2064.7662	1	10	n/a	n/a	1	51	5
2065.8496	1	10	n/a	n/a	1	51	6
2066.9162	1	10	n/a	n/a	1	51	7
2067.9828	1	21	n/a	n/a	1	51	0
2069.2494	1	10	n/a	n/a	1	51	1
2070.516	1	21	n/a	n/a	1	51	0
2071.8158	1	10	n/a	n/a	1	51	1
2072.8658	1	10	n/a	n/a	1	51	2
2073.949	1	10	n/a	n/a	1	51	3
2075.0324	1	21	n/a	n/a	1	51	0
2076.1822	1	10	n/a	n/a	1	51	1
2077.2656	1	10	n/a	n/a	1	51	2
2085.9454	1	82	n/a	n/a	1	0	0
2086.3404	1	82	n/a	n/a	1	0	0
2086.4374	1	82	n/a	n/a	1	0	0
2086.7414	1	82	n/a	n/a	1	0	0
2086.8124	1	82	n/a	n/a	1	0	0
2086.9454	1	82	n/a	n/a	1	0	0
2087.0244	1	82	n/a	n/a	1	0	0
2087.1964	1	82	n/a	n/a	1	0	0
2087.3184	1	82	n/a	n/a	1	0	0
2087.3714	1	82	n/a	n/a	1	0	0
2089.1316	1	10	n/a	n/a	1	50	1
2090.4482	1	10	n/a	n/a	1	50	2
2091.6646	1	10	n/a	n/a	1	50	3
2092.8812	1	21	n/a	n/a	1	50	0
2094.1312	1	10	n/a	n/a	1	50	1
2095.3978	1	21	n/a	n/a	1	50	0
2096.6978	1	10	n/a	n/a	1	50	1
2097.9976	1	21	n/a	n/a	1	50	0
2099.1642	1	10	n/a	n/a	1	50	1
2100.3308	1	21	n/a	n/a	1	50	0
2101.5308	1	10	n/a	n/a	1	50	1
2102.7308	1	21	n/a	n/a	1	50	0
2103.764	1	10	n/a	n/a	1	50	1
2104.864	1	10	n/a	n/a	1	50	2
2106.1306	1	10	n/a	n/a	1	50	3
2107.1804	1	10	n/a	n/a	1	50	4
2108.4138	1	10	n/a	n/a	1	50	5
2109.697	1	10	n/a	n/a	1	50	6
2110.9302	1	10	n/a	n/a	1	50	7
2112.1634	1	21	n/a	n/a	1	50	0
2112.987	1	82	n/a	n/a	1	0	0
2113.336	1	82	n/a	n/a	1	0	0
2113.461	1	82	n/a	n/a	1	0	0
2113.544	1	82	n/a	n/a	1	0	0
2113.782	1	82	n/a	n/a	1	0	0
2113.987	1	82	n/a	n/a	1	0	0
2114.23	1	82	n/a	n/a	1	0	0
2114.281	1	82	n/a	n/a	1	0	0
2114.546	1	82	n/a	n/a	1	0	0
2114.631	1	82	n/a	n/a	1	0	0
2116.18	1	10	n/a	n/a	1	50	1
2117.3298	1	10	n/a	n/a	1	50	2
2118.3798	1	10	n/a	n/a	1	50	3
2119.6798	1	10	n/a	n/a	1	50	4
2120.7464	1	10	n/a	n/a	1	50	5
2121.8796	1	10	n/a	n/a	1	50	6
2123.0628	1	10	n/a	n/a	1	50	7
2124.2462	1	21	n/a	n/a	1	50	0
2125.3128	1	10	n/a	n/a	1	50	1
2126.5294	1	10	n/a	n/a	1	50	2
2127.7792	1	10	n/a	n/a	1	50	3
2128.9626	1	10	n/a	n/a	1	50	4
2130.1958	1	10	n/a	n/a	1	50	5
2131.429	1	21	n/a	n/a	1	50	0
2132.579	1	10	n/a	n/a	1	50	1
2133.7288	1	21	n/a	n/a	1	50	0
2134.9954	1	10	n/a	n/a	1	50	1
2136.1788	1	10	n/a	n/a	1	50	2
2137.3454	1	10	n/a	n/a	1	50	3
2138.4786	1	10	n/a	n/a	1	50	4
2139.372	1	82	n/a	n/a	1	0	0
2139.418	1	82	n/a	n/a	1	0	0
2139.5	1	82	n/a	n/a	1	0	0
2139.735	1	82	n/a	n/a	1	0	0
2139.842	1	82	n/a	n/a	1	0	0
2140.372	1	82	n/a	n/a	1	0	0
2140.416	1	82	n/a	n/a	1	0	0
2140.664	1	82	n/a	n/a	1	0	0
2140.828	1	82	n/a	n/a	1	0	0
2140.902	1	82	n/a	n/a	1	0	0
2142.4118	1	10	n/a	n/a	1	50	1
2143.5616	1	10	n/a	n/a	1	50	2
2144.7782	1	10	n/a	n/a	1	50	3
2146.0948	1	10	n/a	n/a	1	50	4
2147.3614	1	10	n/a	n/a	1	50	5
2148.628	1	21	n/a	n/a	1	50	0
2149.9112	1	10	n/a	n/a	1	50	1
2151.1946	1	21	n/a	n/a	1	50	0
2152.4612	1	10	n/a	n/a	1	50	1
2153.7278	1	10	n/a	n/a	1	50	2
2155.011	1	10	n/a	n/a	1	50	3
2156.1276	1	10	n/a	n/a	1	50	4
2157.1942	1	10	n/a	n/a	1	50	5
2158.2608	1	21	n/a	n/a	1	50	0
2159.4274	1	10	n/a	n/a	1	50	1
2160.7274	1	10	n/a	n/a	1	50	2
2161.894	1	10	n/a	n/a	1	50	3
2163.0772	1	10	n/a	n/a	1	50	4
2164.177	1	10	n/a	n/a	1	50	5
2165.2604	1	10	n/a	n/a	1	50	6
2166.0398	1	82	n/a	n/a	1	0	0
2166.4458	1	82	n/a	n/a	1	0	0
2166.5088	1	82	n/a	n/a	1	0	0
2166.6148	1	82	n/a	n/a	1	0	0
2166.7438	1	82	n/a	n/a	1	0	0
2167.0398	1	82	n/a	n/a	1	0	0
2167.3718	1	82	n/a	n/a	1	0	0
2167.4008	1	82	n/a	n/a	1	0	0
2167.7698	1	82	n/a	n/a	1	0	0
2167.9488	1	82	n/a	n/a	1	0	0
2169.1268	1	10	n/a	n/a	1	50	1
2170.3268	1	10	n/a	n/a	1	50	2
2171.6266	1	10	n/a	n/a	1	50	3
2172.71	1	10	n/a	n/a	1	50	4
2173.9098	1	10	n/a	n/a	1	50	5
2175.1098	1	21	n/a	n/a	1	50	0
2176.143	1	10	n/a	n/a	1	50	1
2177.393	1	10	n/a	n/a	1	50	2
2178.7096	1	10	n/a	n/a	1	50	3
2180.0262	1	21	n/a	n/a	1	50	0
2181.176	1	10	n/a	n/a	1	50	1
2182.2094	1	10	n/a	n/a	1	50	2
2183.476	1	10	n/a	n/a	1	50	3
2184.5758	1	10	n/a	n/a	1	50	4
2185.6758	1	10	n/a	n/a	1	50	5
2186.7758	1	10	n/a	n/a	1	50	6
2187.8424	1	10	n/a	n/a	1	50	7
2188.909	1	21	n/a	n/a	1	50	0
2190.009	1	10	n/a	n/a	1	50	1
2191.2422	1	10	n/a	n/a	1	50	2
2192.2676	1	82	n/a	n/a	1	0	0
2192.3206	1	82	n/a	n/a	1	0	0
2192.4496	1	82	n/a	n/a	1	0	0
2192.8216	1	82	n/a	n/a	1	0	0
2193.1016	1	82	n/a	n/a	1	0	0
2193.2676	1	82	n/a	n/a	1	0	0
2193.5846	1	82	n/a	n/a	1	0	0
2193.7596	1	82	n/a	n/a	1	0	0
2193.7836	1	82	n/a	n/a	1	0	0
2193.8406	1	82	n/a	n/a	1	0	0
2195.2252	1	10	n/a	n/a	1	50	1
2196.3418	1	10	n/a	n/a	1	50	2
2197.6084	1	10	n/a	n/a	1	50	3
2198.875	1	21	n/a	n/a	1	50	0
2199.9416	1	10	n/a	n/a	1	50	1
2201.0082	1	21	n/a	n/a	1	50	0
2202.2082	1	10	n/a	n/a	1	50	1
2203.4748	1	10	n/a	n/a	1	50	2
2204.5748	1	10	n/a	n/a	1	50	3
2205.6914	1	10	n/a	n/a	1	50	4
2206.808	1	10	n/a	n/a	1	50	5
2207.9246	1	21	n/a	n/a	1	50	0
2209.2078	1	10	n/a	n/a	1	50	1
2210.3744	1	10	n/a	n/a	1	50	2
2211.641	1	10	n/a	n/a	1	50	3
2212.9242	1	10	n/a	n/a	1	50	4
2214.1574	1	10	n/a	n/a	1	50	5
2215.3908	1	10	n/a	n/a	1	50	6
2216.5906	1	10	n/a	n/a	1	50	7
2217.7906	1	21	n/a	n/a	1	50	0
2237.6108	1	82	n/a	n/a	1	0	0
2237.7298	1	82	n/a	n/a	1	0	0
2237.9678	1	82	n/a	n/a	1	0	0
2238.3598	1	82	n/a	n/a	1	0	0
2238.3878	1	82	n/a	n/a	1	0	0
2238.611	1	82	n/a	n/a	1	0	0
2238.753	1	82	n/a	n/a	1	0	0
2239.008	1	82	n/a	n/a	1	0	0
2239.345	1	82	n/a	n/a	1	0	0
2239.387	1	82	n/a	n/a	1	0	0
2240.5392	1	10	n/a	n/a	1	52	1
2241.7892	1	10	n/a	n/a	1	52	2
2242.8558	1	10	n/a	n/a	1	52	3
2244.0558	1	10	n/a	n/a	1	52	4
2245.2224	1	10	n/a	n/a	1	52	5
2246.339	1	10	n/a	n/a	1	52	6
2247.5222	1	10	n/a	n/a	1	52	7
2248.7054	1	21	n/a	n/a	1	52	0
2249.7388	1	10	n/a	n/a	1	52	1
2251.0554	1	10	n/a	n/a	1	52	2
2252.372	1	10	n/a	n/a	1	52	3
2253.5886	1	10	n/a	n/a	1	52	4
2254.855	1	10	n/a	n/a	1	52	5
2256.1216	1	21	n/a	n/a	1	52	0
2257.3716	1	10	n/a	n/a	1	52	1
2258.4716	1	10	n/a	n/a	1	52	2
2259.6714	1	10	n/a	n/a	1	52	3
2260.788	1	10	n/a	n/a	1	52	4
2261.938	1	10	n/a	n/a	1	52	5
2263.038	1	10	n/a	n/a	1	52	6
2263.8744	1	82	n/a	n/a	1	0	0
2264.0164	1	82	n/a	n/a	1	0	0
2264.0764	1	82	n/a	n/a	1	0	0
2264.4184	1	82	n/a	n/a	1	0	0
2264.6704	1	82	n/a	n/a	1	0	0
2264.8744	1	82	n/a	n/a	1	0	0
2264.8954	1	82	n/a	n/a	1	0	0
2265.0744	1	82	n/a	n/a	1	0	0
2265.3504	1	82	n/a	n/a	1	0	0
2265.7334	1	82	n/a	n/a	1	0	0
2266.8044	1	10	n/a	n/a	1	52	1
2267.8376	1	21	n/a	n/a	1	52	0
2268.921	1	10	n/a	n/a	1	52	1
2270.0876	1	10	n/a	n/a	1	52	2
2271.3042	1	10	n/a	n/a	1	52	3
2272.454	1	10	n/a	n/a	1	52	4
2273.7706	1	10	n/a	n/a	1	52	5
2275.0872	1	21	n/a	n/a	1	52	0
2276.3706	1	10	n/a	n/a	1	52	1
2277.4038	1	10	n/a	n/a	1	52	2
2278.6204	1	10	n/a	n/a	1	52	3
2279.837	1	21	n/a	n/a	1	52	0
2280.9202	1	10	n/a	n/a	1	52	1
2282.0868	1	10	n/a	n/a	1	52	2
2283.3868	1	10	n/a	n/a	1	52	3
2284.6866	1	10	n/a	n/a	1	52	4
2285.77	1	10	n/a	n/a	1	52	5
2286.8532	1	21	n/a	n/a	1	52	0
2288.0864	1	10	n/a	n/a	1	52	1
2289.2698	1	10	n/a	n/a	1	52	2
2290.0972	1	82	n/a	n/a	1	0	0
2290.2622	1	82	n/a	n/a	1	0	0
2290.2962	1	82	n/a	n/a	1	0	0
2290.3742	1	82	n/a	n/a	1	0	0
2290.7732	1	82	n/a	n/a	1	0	0
2291.0972	1	82	n/a	n/a	1	0	0
2291.4162	1	82	n/a	n/a	1	0	0
2291.5642	1	82	n/a	n/a	1	0	0
2291.9732	1	82	n/a	n/a	1	0	0
2291.9992	1	82	n/a	n/a	1	0	0
2293.2696	1	10	n/a	n/a	1	52	1
2294.3862	1	10	n/a	n/a	1	52	2
2295.586	1	10	n/a	n/a	1	52	3
2296.786	1	21	n/a	n/a	1	52	0
2297.8192	1	10	n/a	n/a	1	52	1
2298.8526	1	21	n/a	n/a	1	52	0
2299.9524	1	10	n/a	n/a	1	52	1
2301.0524	1	21	n/a	n/a	1	52	0
2302.169	1	10	n/a	n/a	1	52	1
2303.4856	1	10	n/a	n/a	1	52	2
2304.7854	1	10	n/a	n/a	1	52	3
2305.952	1	10	n/a	n/a	1	52	4
2307.0686	1	10	n/a	n/a	1	52	5
2308.302	1	10	n/a	n/a	1	52	6
2309.4686	1	10	n/a	n/a	1	52	7
2310.6352	1	21	n/a	n/a	1	52	0
2311.9518	1	10	n/a	n/a	1	52	1
2312.985	1	10	n/a	n/a	1	52	2
2314.2182	1	10	n/a	n/a	1	52	3
2315.3516	1	10	n/a	n/a	1	52	4
2316.311	1	82	n/a	n/a	1	0	0
2316.347	1	82	n/a	n/a	1	0	0
2316.438	1	82	n/a	n/a	1	0	0
2316.835	1	82	n/a	n/a	1	0	0
2317.099	1	82	n/a	n/a	1	0	0
2317.311	1	82	n/a	n/a	1	0	0
2317.544	1	82	n/a	n/a	1	0	0
2317.594	1	82	n/a	n/a	1	0	0
2317.796	1	82	n/a	n/a	1	0	0
2318.053	1	82	n/a	n/a	1	0	0
2319.5012	1	10	n/a	n/a	1	52	1
2320.8012	1	21	n/a	n/a	1	52	0
2321.8512	1	10	n/a	n/a	1	52	1
2322.901	1	21	n/a	n/a	1	52	0
2324.0844	1	10	n/a	n/a	1	52	1
2325.251	1	10	n/a	n/a	1	52	2
2326.3176	1	10	n/a	n/a	1	52	3
2327.3674	1	10	n/a	n/a	1	52	4
2328.684	1	10	n/a	n/a	1	52	5
2330.0006	1	21	n/a	n/a	1	52	0
2331.084	1	10	n/a	n/a	1	52	1
2332.1672	1	10	n/a	n/a	1	52	2
2333.4338	1	10	n/a	n/a	1	52	3
2334.4838	1	10	n/a	n/a	1	52	4
2335.7836	1	10	n/a	n/a	1	52	5
2337.0836	1	21	n/a	n/a	1	52	0
2338.2668	1	10	n/a	n/a	1	52	1
2339.5834	1	10	n/a	n/a	1	52	2
2340.65	1	10	n/a	n/a	1	52	3
2341.75	1	10	n/a	n/a	1	52	4
2342.6764	1	82	n/a	n/a	1	0	0
2342.8214	1	82	n/a	n/a	1	0	0
2342.9934	1	82	n/a	n/a	1	0	0
2343.3974	1	82	n/a	n/a	1	0	0
2343.4404	1	82	n/a	n/a	1	0	0
2343.6764	1	82	n/a	n/a	1	0	0
2343.7144	1	82	n/a	n/a	1	0	0
2343.8734	1	82	n/a	n/a	1	0	0
2344.1864	1	82	n/a	n/a	1	0	0
2344.5834	1	82	n/a	n/a	1	0	0
2345.6164	1	10	n/a	n/a	1	52	1
2346.683	1	21	n/a	n/a	1	52	0
2347.883	1	10	n/a	n/a	1	52	1
2349.0496	1	10	n/a	n/a	1	52	2
2350.3662	1	10	n/a	n/a	1	52	3
2351.6494	1	10	n/a	n/a	1	52	4
2352.6826	1	10	n/a	n/a	1	52	5
2353.716	1	21	n/a	n/a	1	52	0
2354.9826	1	10	n/a	n/a	1	52	1
2356.1824	1	10	n/a	n/a	1	52	2
2357.2324	1	10	n/a	n/a	1	52	3
2358.2824	1	21	n/a	n/a	1	52	0
2359.5822	1	10	n/a	n/a	1	52	1
2360.6656	1	10	n/a	n/a	1	52	2
2361.9654	1	10	n/a	n/a	1	52	3
2363.282	1	10	n/a	n/a	1	52	4
2364.432	1	10	n/a	n/a	1	52	5
2365.7152	1	10	n/a	n/a	1	52	6
2366.8152	1	10	n/a	n/a	1	52	7
2367.9152	1	21	n/a	n/a	1	52	0
