onset	duration	value	response	rt	good	TMS	seq
144.6454	1	82	n/a	n/a	1	0	0
144.6734	1	82	n/a	n/a	1	0	0
144.7824	1	82	n/a	n/a	1	0	0
144.8514	1	82	n/a	n/a	1	0	0
144.9854	1	82	n/a	n/a	1	0	0
145.6454	1	82	n/a	n/a	1	0	0
145.9344	1	82	n/a	n/a	1	0	0
146.0184	1	82	n/a	n/a	1	0	0
146.3334	1	82	n/a	n/a	1	0	0
146.4664	1	82	n/a	n/a	1	0	0
147.664	1	10	n/a	n/a	1	52	1
148.7972	1	10	n/a	n/a	1	52	2
149.8472	1	10	n/a	n/a	1	52	3
150.9638	1	10	n/a	n/a	1	52	4
152.1138	1	10	n/a	n/a	1	52	5
153.2636	1	21	n/a	n/a	1	52	0
154.3802	1	10	n/a	n/a	1	52	1
155.4968	1	21	n/a	n/a	1	52	0
156.6302	1	10	n/a	n/a	1	52	1
157.93	1	10	n/a	n/a	1	52	2
159.1134	1	10	n/a	n/a	1	52	3
160.1632	1	10	n/a	n/a	1	52	4
161.3298	1	10	n/a	n/a	1	52	5
162.4798	1	10	n/a	n/a	1	52	6
163.5964	1	10	n/a	n/a	1	52	7
164.713	1	21	n/a	n/a	1	52	0
165.7962	1	10	n/a	n/a	1	52	1
166.8796	1	21	n/a	n/a	1	52	0
168.1294	1	10	n/a	n/a	1	52	1
169.4294	1	10	n/a	n/a	1	52	2
170.5382	1	82	n/a	n/a	1	0	0
170.5782	1	82	n/a	n/a	1	0	0
170.8032	1	82	n/a	n/a	1	0	0
171.1022	1	82	n/a	n/a	1	0	0
171.4872	1	82	n/a	n/a	1	0	0
171.539	1	82	n/a	n/a	1	0	0
171.691	1	82	n/a	n/a	1	0	0
171.748	1	82	n/a	n/a	1	0	0
172.045	1	82	n/a	n/a	1	0	0
172.453	1	82	n/a	n/a	1	0	0
173.5624	1	10	n/a	n/a	1	52	1
174.879	1	10	n/a	n/a	1	52	2
175.9956	1	10	n/a	n/a	1	52	3
177.1622	1	10	n/a	n/a	1	52	4
178.2122	1	10	n/a	n/a	1	52	5
179.2622	1	21	n/a	n/a	1	52	0
180.312	1	10	n/a	n/a	1	52	1
181.3954	1	10	n/a	n/a	1	52	2
182.662	1	10	n/a	n/a	1	52	3
183.8618	1	10	n/a	n/a	1	52	4
184.8952	1	10	n/a	n/a	1	52	5
185.9284	1	21	n/a	n/a	1	52	0
187.1116	1	10	n/a	n/a	1	52	1
188.345	1	10	n/a	n/a	1	52	2
189.6616	1	10	n/a	n/a	1	52	3
190.8448	1	10	n/a	n/a	1	52	4
192.1446	1	10	n/a	n/a	1	52	5
193.4612	1	10	n/a	n/a	1	52	6
194.5112	1	10	n/a	n/a	1	52	7
195.5612	1	21	n/a	n/a	1	52	0
196.5778	1	82	n/a	n/a	1	0	0
196.7998	1	82	n/a	n/a	1	0	0
196.8198	1	82	n/a	n/a	1	0	0
196.9498	1	82	n/a	n/a	1	0	0
197.3198	1	82	n/a	n/a	1	0	0
197.5778	1	82	n/a	n/a	1	0	0
197.707	1	82	n/a	n/a	1	0	0
198.084	1	82	n/a	n/a	1	0	0
198.395	1	82	n/a	n/a	1	0	0
198.487	1	82	n/a	n/a	1	0	0
199.711	1	10	n/a	n/a	1	52	1
200.8276	1	10	n/a	n/a	1	52	2
202.0442	1	10	n/a	n/a	1	52	3
203.3606	1	10	n/a	n/a	1	52	4
204.494	1	10	n/a	n/a	1	52	5
205.7106	1	10	n/a	n/a	1	52	6
206.9104	1	10	n/a	n/a	1	52	7
208.1104	1	21	n/a	n/a	1	52	0
209.2104	1	10	n/a	n/a	1	52	1
210.4102	1	10	n/a	n/a	1	52	2
211.4602	1	10	n/a	n/a	1	52	3
212.7768	1	10	n/a	n/a	1	52	4
214.0934	1	10	n/a	n/a	1	52	5
215.3766	1	10	n/a	n/a	1	52	6
216.4766	1	10	n/a	n/a	1	52	7
217.5766	1	21	n/a	n/a	1	52	0
218.7264	1	10	n/a	n/a	1	52	1
219.8764	1	10	n/a	n/a	1	52	2
221.0596	1	10	n/a	n/a	1	52	3
222.2428	1	21	n/a	n/a	1	52	0
223.0296	1	82	n/a	n/a	1	0	0
223.1276	1	82	n/a	n/a	1	0	0
223.4996	1	82	n/a	n/a	1	0	0
223.8286	1	82	n/a	n/a	1	0	0
223.8706	1	82	n/a	n/a	1	0	0
224.0296	1	82	n/a	n/a	1	0	0
224.3706	1	82	n/a	n/a	1	0	0
224.4496	1	82	n/a	n/a	1	0	0
224.6956	1	82	n/a	n/a	1	0	0
224.8106	1	82	n/a	n/a	1	0	0
226.026	1	10	n/a	n/a	1	52	1
227.226	1	10	n/a	n/a	1	52	2
228.3426	1	10	n/a	n/a	1	52	3
229.6258	1	10	n/a	n/a	1	52	4
230.859	1	10	n/a	n/a	1	52	5
232.0924	1	21	n/a	n/a	1	52	0
233.309	1	10	n/a	n/a	1	52	1
234.4256	1	10	n/a	n/a	1	52	2
235.6254	1	10	n/a	n/a	1	52	3
236.7754	1	10	n/a	n/a	1	52	4
239.3752	1	21	n/a	n/a	1	52	0
240.4084	1	10	n/a	n/a	1	52	1
241.5084	1	10	n/a	n/a	1	52	2
242.675	1	10	n/a	n/a	1	52	3
243.9082	1	10	n/a	n/a	1	52	4
245.0916	1	10	n/a	n/a	1	52	5
246.2582	1	10	n/a	n/a	1	52	6
247.2914	1	10	n/a	n/a	1	52	7
248.3246	1	21	n/a	n/a	1	52	0
249.2674	1	82	n/a	n/a	1	0	0
249.4444	1	82	n/a	n/a	1	0	0
249.7534	1	82	n/a	n/a	1	0	0
250.1364	1	82	n/a	n/a	1	0	0
250.2324	1	82	n/a	n/a	1	0	0
250.2682	1	82	n/a	n/a	1	0	0
250.3672	1	82	n/a	n/a	1	0	0
250.6172	1	82	n/a	n/a	1	0	0
250.8972	1	82	n/a	n/a	1	0	0
251.0492	1	82	n/a	n/a	1	0	0
252.3912	1	10	n/a	n/a	1	52	1
253.4744	1	10	n/a	n/a	1	52	2
254.6244	1	10	n/a	n/a	1	52	3
255.8908	1	10	n/a	n/a	1	52	4
256.9742	1	10	n/a	n/a	1	52	5
258.0574	1	21	n/a	n/a	1	52	0
259.1074	1	10	n/a	n/a	1	52	1
260.1574	1	21	n/a	n/a	1	52	0
261.274	1	10	n/a	n/a	1	52	1
263.8238	1	10	n/a	n/a	1	52	3
265.1236	1	10	n/a	n/a	1	52	4
266.3902	1	10	n/a	n/a	1	52	5
267.5568	1	10	n/a	n/a	1	52	6
268.7234	1	10	n/a	n/a	1	52	7
269.89	1	21	n/a	n/a	1	52	0
271.0734	1	10	n/a	n/a	1	52	1
272.1066	1	10	n/a	n/a	1	52	2
273.1898	1	10	n/a	n/a	1	52	3
274.2732	1	21	n/a	n/a	1	52	0
341.6942	1	82	n/a	n/a	1	0	0
341.9402	1	82	n/a	n/a	1	0	0
342.0482	1	82	n/a	n/a	1	0	0
342.1932	1	82	n/a	n/a	1	0	0
342.2412	1	82	n/a	n/a	1	0	0
342.6942	1	82	n/a	n/a	1	0	0
343.0012	1	82	n/a	n/a	1	0	0
343.0342	1	82	n/a	n/a	1	0	0
343.1202	1	82	n/a	n/a	1	0	0
343.5262	1	82	n/a	n/a	1	0	0
344.8022	1	10	n/a	n/a	1	50	1
345.9356	1	10	n/a	n/a	1	50	2
347.1022	1	10	n/a	n/a	1	50	3
348.252	1	10	n/a	n/a	1	50	4
349.3686	1	10	n/a	n/a	1	50	5
350.4852	1	21	n/a	n/a	1	50	0
351.5352	1	10	n/a	n/a	1	50	1
352.6518	1	10	n/a	n/a	1	50	2
353.8184	1	10	n/a	n/a	1	50	3
354.985	1	21	n/a	n/a	1	50	0
356.1182	1	10	n/a	n/a	1	50	1
357.3016	1	10	n/a	n/a	1	50	2
358.3514	1	10	n/a	n/a	1	50	3
359.4014	1	10	n/a	n/a	1	50	4
360.468	1	10	n/a	n/a	1	50	5
361.5346	1	21	n/a	n/a	1	50	0
362.6178	1	10	n/a	n/a	1	50	1
363.9344	1	10	n/a	n/a	1	50	2
365.2178	1	10	n/a	n/a	1	50	3
366.3176	1	10	n/a	n/a	1	50	4
367.0892	1	82	n/a	n/a	1	0	0
367.2092	1	82	n/a	n/a	1	0	0
367.3672	1	82	n/a	n/a	1	0	0
367.6962	1	82	n/a	n/a	1	0	0
367.9852	1	82	n/a	n/a	1	0	0
368.0892	1	82	n/a	n/a	1	0	0
368.1622	1	82	n/a	n/a	1	0	0
368.2982	1	82	n/a	n/a	1	0	0
368.5332	1	82	n/a	n/a	1	0	0
368.8062	1	82	n/a	n/a	1	0	0
370.2342	1	10	n/a	n/a	1	50	1
371.434	1	10	n/a	n/a	1	50	2
372.6672	1	10	n/a	n/a	1	50	3
373.8172	1	10	n/a	n/a	1	50	4
375.1338	1	10	n/a	n/a	1	50	5
376.317	1	10	n/a	n/a	1	50	6
377.6336	1	10	n/a	n/a	1	50	7
378.9502	1	21	n/a	n/a	1	50	0
379.9836	1	10	n/a	n/a	1	50	1
381.0168	1	21	n/a	n/a	1	50	0
382.2668	1	10	n/a	n/a	1	50	1
383.55	1	10	n/a	n/a	1	50	2
384.8666	1	10	n/a	n/a	1	50	3
386.0498	1	10	n/a	n/a	1	50	4
387.233	1	10	n/a	n/a	1	50	5
388.2996	1	10	n/a	n/a	1	50	6
389.3496	1	10	n/a	n/a	1	50	7
390.3996	1	21	n/a	n/a	1	50	0
391.6994	1	10	n/a	n/a	1	50	1
392.9994	1	21	n/a	n/a	1	50	0
393.867	1	82	n/a	n/a	1	0	0
394.125	1	82	n/a	n/a	1	0	0
394.217	1	82	n/a	n/a	1	0	0
394.656	1	82	n/a	n/a	1	0	0
394.826	1	82	n/a	n/a	1	0	0
394.867	1	82	n/a	n/a	1	0	0
395.305	1	82	n/a	n/a	1	0	0
395.327	1	82	n/a	n/a	1	0	0
395.49	1	82	n/a	n/a	1	0	0
395.609	1	82	n/a	n/a	1	0	0
396.9992	1	10	n/a	n/a	1	50	1
398.3158	1	10	n/a	n/a	1	50	2
399.4658	1	10	n/a	n/a	1	50	3
400.649	1	10	n/a	n/a	1	50	4
401.949	1	10	n/a	n/a	1	50	5
403.0322	1	10	n/a	n/a	1	50	6
404.3154	1	10	n/a	n/a	1	50	7
405.5986	1	21	n/a	n/a	1	50	0
406.7152	1	10	n/a	n/a	1	50	1
407.9152	1	10	n/a	n/a	1	50	2
408.9818	1	10	n/a	n/a	1	50	3
410.0818	1	10	n/a	n/a	1	50	4
411.265	1	10	n/a	n/a	1	50	5
412.4482	1	21	n/a	n/a	1	50	0
413.7648	1	10	n/a	n/a	1	50	1
415.0814	1	21	n/a	n/a	1	50	0
416.2648	1	10	n/a	n/a	1	50	1
417.548	1	10	n/a	n/a	1	50	2
418.7978	1	10	n/a	n/a	1	50	3
420.0478	1	21	n/a	n/a	1	50	0
420.8954	1	82	n/a	n/a	1	0	0
421.1504	1	82	n/a	n/a	1	0	0
421.1754	1	82	n/a	n/a	1	0	0
421.2254	1	82	n/a	n/a	1	0	0
421.5344	1	82	n/a	n/a	1	0	0
421.8954	1	82	n/a	n/a	1	0	0
421.9754	1	82	n/a	n/a	1	0	0
422.1974	1	82	n/a	n/a	1	0	0
422.6334	1	82	n/a	n/a	1	0	0
422.7924	1	82	n/a	n/a	1	0	0
423.981	1	10	n/a	n/a	1	50	1
425.1808	1	21	n/a	n/a	1	50	0
426.2142	1	10	n/a	n/a	1	50	1
427.364	1	10	n/a	n/a	1	50	2
428.664	1	10	n/a	n/a	1	50	3
429.9638	1	21	n/a	n/a	1	50	0
431.1972	1	10	n/a	n/a	1	50	1
432.347	1	10	n/a	n/a	1	50	2
433.547	1	10	n/a	n/a	1	50	3
434.5802	1	10	n/a	n/a	1	50	4
435.6136	1	10	n/a	n/a	1	50	5
436.6468	1	21	n/a	n/a	1	50	0
437.9468	1	10	n/a	n/a	1	50	1
439.2466	1	10	n/a	n/a	1	50	2
440.4466	1	10	n/a	n/a	1	50	3
441.6132	1	10	n/a	n/a	1	50	4
442.7132	1	10	n/a	n/a	1	50	5
443.813	1	21	n/a	n/a	1	50	0
445.0964	1	10	n/a	n/a	1	50	1
446.3796	1	10	n/a	n/a	1	50	2
447.29	1	82	n/a	n/a	1	0	0
447.514	1	82	n/a	n/a	1	0	0
447.877	1	82	n/a	n/a	1	0	0
447.938	1	82	n/a	n/a	1	0	0
448.064	1	82	n/a	n/a	1	0	0
448.29	1	82	n/a	n/a	1	0	0
448.35	1	82	n/a	n/a	1	0	0
448.72	1	82	n/a	n/a	1	0	0
448.825	1	82	n/a	n/a	1	0	0
448.994	1	82	n/a	n/a	1	0	0
450.2294	1	10	n/a	n/a	1	50	1
451.5292	1	10	n/a	n/a	1	50	2
452.6292	1	10	n/a	n/a	1	50	3
453.7292	1	10	n/a	n/a	1	50	4
454.979	1	10	n/a	n/a	1	50	5
456.1456	1	10	n/a	n/a	1	50	6
457.229	1	10	n/a	n/a	1	50	7
458.3122	1	21	n/a	n/a	1	50	0
459.3454	1	10	n/a	n/a	1	50	1
460.562	1	10	n/a	n/a	1	50	2
461.7286	1	10	n/a	n/a	1	50	3
462.8952	1	21	n/a	n/a	1	50	0
464.0952	1	10	n/a	n/a	1	50	1
465.2952	1	21	n/a	n/a	1	50	0
466.345	1	10	n/a	n/a	1	50	1
467.5116	1	10	n/a	n/a	1	50	2
468.6282	1	10	n/a	n/a	1	50	3
469.7448	1	21	n/a	n/a	1	50	0
470.7948	1	10	n/a	n/a	1	50	1
472.0448	1	10	n/a	n/a	1	50	2
504.2378	1	81	n/a	n/a	1	0	0
504.4378	1	81	n/a	n/a	1	0	0
504.6378	1	81	n/a	n/a	1	0	0
504.8378	1	81	n/a	n/a	1	0	0
505.0378	1	81	n/a	n/a	1	0	0
505.2378	1	81	n/a	n/a	1	0	0
505.4378	1	81	n/a	n/a	1	0	0
505.6378	1	81	n/a	n/a	1	0	0
505.8378	1	81	n/a	n/a	1	0	0
506.0378	1	81	n/a	n/a	1	0	0
507.3594	1	10	n/a	n/a	1	51	1
508.6758	1	10	n/a	n/a	1	51	2
509.7258	1	10	n/a	n/a	1	51	3
510.9758	1	10	n/a	n/a	1	51	4
512.109	1	10	n/a	n/a	1	51	5
513.309	1	10	n/a	n/a	1	51	6
514.3588	1	10	n/a	n/a	1	51	7
515.4088	1	21	n/a	n/a	1	51	0
516.692	1	10	n/a	n/a	1	51	1
517.9754	1	21	n/a	n/a	1	51	0
519.142	1	10	n/a	n/a	1	51	1
520.3586	1	10	n/a	n/a	1	51	2
521.4752	1	10	n/a	n/a	1	51	3
522.7584	1	10	n/a	n/a	1	51	4
524.025	1	10	n/a	n/a	1	51	5
525.2916	1	21	n/a	n/a	1	51	0
526.4916	1	10	n/a	n/a	1	51	1
527.7914	1	10	n/a	n/a	1	51	2
529.0914	1	10	n/a	n/a	1	51	3
530.308	1	10	n/a	n/a	1	51	4
531.1474	1	81	n/a	n/a	1	0	0
531.3474	1	81	n/a	n/a	1	0	0
531.5474	1	81	n/a	n/a	1	0	0
531.7474	1	81	n/a	n/a	1	0	0
531.9474	1	81	n/a	n/a	1	0	0
532.1474	1	81	n/a	n/a	1	0	0
532.3474	1	81	n/a	n/a	1	0	0
532.5474	1	81	n/a	n/a	1	0	0
532.7474	1	81	n/a	n/a	1	0	0
532.9474	1	81	n/a	n/a	1	0	0
534.2578	1	10	n/a	n/a	1	51	1
535.3076	1	10	n/a	n/a	1	51	2
536.4076	1	10	n/a	n/a	1	51	3
537.5076	1	10	n/a	n/a	1	51	4
538.8242	1	10	n/a	n/a	1	51	5
540.1074	1	10	n/a	n/a	1	51	6
541.424	1	10	n/a	n/a	1	51	7
542.7406	1	21	n/a	n/a	1	51	0
544.0072	1	10	n/a	n/a	1	51	1
545.2738	1	21	n/a	n/a	1	51	0
546.4236	1	10	n/a	n/a	1	51	1
547.4736	1	10	n/a	n/a	1	51	2
548.7236	1	10	n/a	n/a	1	51	3
549.7734	1	10	n/a	n/a	1	51	4
551.0068	1	10	n/a	n/a	1	51	5
552.29	1	10	n/a	n/a	1	51	6
553.3232	1	10	n/a	n/a	1	51	7
554.3566	1	21	n/a	n/a	1	51	0
555.4732	1	10	n/a	n/a	1	51	1
556.5064	1	10	n/a	n/a	1	51	2
557.432	1	81	n/a	n/a	1	0	0
557.632	1	81	n/a	n/a	1	0	0
557.832	1	81	n/a	n/a	1	0	0
558.032	1	81	n/a	n/a	1	0	0
558.232	1	81	n/a	n/a	1	0	0
558.432	1	81	n/a	n/a	1	0	0
558.632	1	81	n/a	n/a	1	0	0
558.832	1	81	n/a	n/a	1	0	0
559.032	1	81	n/a	n/a	1	0	0
559.232	1	81	n/a	n/a	1	0	0
560.4062	1	10	n/a	n/a	1	51	1
561.556	1	10	n/a	n/a	1	51	2
562.7894	1	10	n/a	n/a	1	51	3
564.1226	1	10	n/a	n/a	1	51	4
565.3726	1	10	n/a	n/a	1	51	5
566.6724	1	10	n/a	n/a	1	51	6
567.7058	1	10	n/a	n/a	1	51	7
568.739	1	21	n/a	n/a	1	51	0
569.9556	1	10	n/a	n/a	1	51	1
571.0388	1	10	n/a	n/a	1	51	2
572.2388	1	10	n/a	n/a	1	51	3
573.422	1	10	n/a	n/a	1	51	4
574.5886	1	10	n/a	n/a	1	51	5
575.772	1	10	n/a	n/a	1	51	6
577.0552	1	10	n/a	n/a	1	51	7
578.3384	1	21	n/a	n/a	1	51	0
579.5884	1	10	n/a	n/a	1	51	1
580.7716	1	10	n/a	n/a	1	51	2
581.9882	1	10	n/a	n/a	1	51	3
583.1882	1	10	n/a	n/a	1	51	4
584.0236	1	81	n/a	n/a	1	0	0
584.2236	1	81	n/a	n/a	1	0	0
584.4236	1	81	n/a	n/a	1	0	0
584.6236	1	81	n/a	n/a	1	0	0
584.8236	1	81	n/a	n/a	1	0	0
585.0236	1	81	n/a	n/a	1	0	0
585.2236	1	81	n/a	n/a	1	0	0
585.4236	1	81	n/a	n/a	1	0	0
585.6236	1	81	n/a	n/a	1	0	0
585.8236	1	81	n/a	n/a	1	0	0
587.138	1	10	n/a	n/a	1	51	1
588.3544	1	21	n/a	n/a	1	51	0
589.5544	1	10	n/a	n/a	1	51	1
590.871	1	10	n/a	n/a	1	51	2
592.171	1	10	n/a	n/a	1	51	3
593.3042	1	10	n/a	n/a	1	51	4
594.6208	1	10	n/a	n/a	1	51	5
595.654	1	10	n/a	n/a	1	51	6
596.704	1	10	n/a	n/a	1	51	7
597.754	1	21	n/a	n/a	1	51	0
598.8206	1	10	n/a	n/a	1	51	1
599.9872	1	10	n/a	n/a	1	51	2
601.1538	1	10	n/a	n/a	1	51	3
602.2204	1	10	n/a	n/a	1	51	4
603.3536	1	10	n/a	n/a	1	51	5
604.4868	1	21	n/a	n/a	1	51	0
605.6534	1	10	n/a	n/a	1	51	1
606.97	1	10	n/a	n/a	1	51	2
608.02	1	10	n/a	n/a	1	51	3
609.07	1	21	n/a	n/a	1	51	0
609.9384	1	81	n/a	n/a	1	0	0
610.1384	1	81	n/a	n/a	1	0	0
610.3384	1	81	n/a	n/a	1	0	0
610.5384	1	81	n/a	n/a	1	0	0
610.7384	1	81	n/a	n/a	1	0	0
610.9384	1	81	n/a	n/a	1	0	0
611.1384	1	81	n/a	n/a	1	0	0
611.3384	1	81	n/a	n/a	1	0	0
611.5384	1	81	n/a	n/a	1	0	0
611.7384	1	81	n/a	n/a	1	0	0
613.1198	1	10	n/a	n/a	1	51	1
614.203	1	10	n/a	n/a	1	51	2
615.3862	1	10	n/a	n/a	1	51	3
616.6694	1	10	n/a	n/a	1	51	4
617.9194	1	10	n/a	n/a	1	51	5
619.1694	1	21	n/a	n/a	1	51	0
620.486	1	10	n/a	n/a	1	51	1
621.5858	1	10	n/a	n/a	1	51	2
622.8024	1	10	n/a	n/a	1	51	3
624.019	1	21	n/a	n/a	1	51	0
625.3024	1	10	n/a	n/a	1	51	1
626.5356	1	10	n/a	n/a	1	51	2
627.6356	1	10	n/a	n/a	1	51	3
628.8188	1	10	n/a	n/a	1	51	4
630.1186	1	10	n/a	n/a	1	51	5
631.2186	1	10	n/a	n/a	1	51	6
632.3352	1	10	n/a	n/a	1	51	7
633.4518	1	21	n/a	n/a	1	51	0
634.6018	1	10	n/a	n/a	1	51	1
635.8184	1	10	n/a	n/a	1	51	2
834.3194	1	81	n/a	n/a	1	0	0
834.5194	1	81	n/a	n/a	1	0	0
834.7194	1	81	n/a	n/a	1	0	0
834.9194	1	81	n/a	n/a	1	0	0
835.1194	1	81	n/a	n/a	1	0	0
835.3194	1	81	n/a	n/a	1	0	0
835.5194	1	81	n/a	n/a	1	0	0
835.7194	1	81	n/a	n/a	1	0	0
835.9194	1	81	n/a	n/a	1	0	0
836.1194	1	81	n/a	n/a	1	0	0
837.2564	1	10	n/a	n/a	1	51	1
838.3064	1	21	n/a	n/a	1	51	0
839.423	1	10	n/a	n/a	1	51	1
840.5396	1	10	n/a	n/a	1	51	2
841.8562	1	10	n/a	n/a	1	51	3
843.1728	1	21	n/a	n/a	1	51	0
844.206	1	10	n/a	n/a	1	51	1
845.4726	1	10	n/a	n/a	1	51	2
846.7392	1	10	n/a	n/a	1	51	3
848.0058	1	21	n/a	n/a	1	51	0
849.2058	1	10	n/a	n/a	1	51	1
850.3556	1	10	n/a	n/a	1	51	2
851.539	1	10	n/a	n/a	1	51	3
852.6556	1	10	n/a	n/a	1	51	4
853.8054	1	10	n/a	n/a	1	51	5
854.9554	1	21	n/a	n/a	1	51	0
856.2386	1	10	n/a	n/a	1	51	1
857.522	1	21	n/a	n/a	1	51	0
858.7052	1	10	n/a	n/a	1	51	1
859.9552	1	10	n/a	n/a	1	51	2
861.0236	1	81	n/a	n/a	1	0	0
861.2236	1	81	n/a	n/a	1	0	0
861.4236	1	81	n/a	n/a	1	0	0
861.6236	1	81	n/a	n/a	1	0	0
861.8236	1	81	n/a	n/a	1	0	0
862.0236	1	81	n/a	n/a	1	0	0
862.2236	1	81	n/a	n/a	1	0	0
862.4236	1	81	n/a	n/a	1	0	0
862.6236	1	81	n/a	n/a	1	0	0
862.8236	1	81	n/a	n/a	1	0	0
863.9548	1	10	n/a	n/a	1	51	1
864.9882	1	21	n/a	n/a	1	51	0
866.238	1	10	n/a	n/a	1	51	1
867.3046	1	10	n/a	n/a	1	51	2
868.6046	1	10	n/a	n/a	1	51	3
869.9046	1	21	n/a	n/a	1	51	0
870.9712	1	10	n/a	n/a	1	51	1
872.221	1	10	n/a	n/a	1	51	2
873.2876	1	10	n/a	n/a	1	51	3
874.5876	1	10	n/a	n/a	1	51	4
875.6876	1	10	n/a	n/a	1	51	5
876.8208	1	10	n/a	n/a	1	51	6
877.8874	1	10	n/a	n/a	1	51	7
878.954	1	21	n/a	n/a	1	51	0
880.2706	1	10	n/a	n/a	1	51	1
881.5872	1	21	n/a	n/a	1	51	0
882.8204	1	10	n/a	n/a	1	51	1
884.137	1	10	n/a	n/a	1	51	2
885.237	1	10	n/a	n/a	1	51	3
886.3368	1	21	n/a	n/a	1	51	0
887.1386	1	81	n/a	n/a	1	0	0
887.3386	1	81	n/a	n/a	1	0	0
887.5386	1	81	n/a	n/a	1	0	0
887.7386	1	81	n/a	n/a	1	0	0
887.9386	1	81	n/a	n/a	1	0	0
888.1386	1	81	n/a	n/a	1	0	0
888.3386	1	81	n/a	n/a	1	0	0
888.5386	1	81	n/a	n/a	1	0	0
888.7386	1	81	n/a	n/a	1	0	0
888.9386	1	81	n/a	n/a	1	0	0
890.07	1	10	n/a	n/a	1	51	1
891.17	1	10	n/a	n/a	1	51	2
892.4866	1	10	n/a	n/a	1	51	3
893.8032	1	21	n/a	n/a	1	51	0
894.953	1	10	n/a	n/a	1	51	1
896.2196	1	10	n/a	n/a	1	51	2
897.4196	1	10	n/a	n/a	1	51	3
898.6194	1	21	n/a	n/a	1	51	0
899.8694	1	10	n/a	n/a	1	51	1
901.1026	1	10	n/a	n/a	1	51	2
902.2526	1	10	n/a	n/a	1	51	3
903.4026	1	21	n/a	n/a	1	51	0
904.5358	1	10	n/a	n/a	1	51	1
905.819	1	10	n/a	n/a	1	51	2
907.019	1	10	n/a	n/a	1	51	3
908.2856	1	10	n/a	n/a	1	51	4
909.3188	1	10	n/a	n/a	1	51	5
910.4522	1	10	n/a	n/a	1	51	6
911.5854	1	10	n/a	n/a	1	51	7
912.7186	1	21	n/a	n/a	1	51	0
913.7152	1	81	n/a	n/a	1	0	0
913.9152	1	81	n/a	n/a	1	0	0
914.1152	1	81	n/a	n/a	1	0	0
914.3152	1	81	n/a	n/a	1	0	0
914.5152	1	81	n/a	n/a	1	0	0
914.7152	1	81	n/a	n/a	1	0	0
914.9152	1	81	n/a	n/a	1	0	0
915.1152	1	81	n/a	n/a	1	0	0
915.3152	1	81	n/a	n/a	1	0	0
915.5152	1	81	n/a	n/a	1	0	0
916.6518	1	10	n/a	n/a	1	51	1
917.735	1	10	n/a	n/a	1	51	2
918.8016	1	10	n/a	n/a	1	51	3
920.0182	1	10	n/a	n/a	1	51	4
921.1182	1	10	n/a	n/a	1	51	5
922.168	1	10	n/a	n/a	1	51	6
923.3014	1	10	n/a	n/a	1	51	7
924.4346	1	21	n/a	n/a	1	51	0
925.5012	1	10	n/a	n/a	1	51	1
926.7344	1	10	n/a	n/a	1	51	2
928.0178	1	10	n/a	n/a	1	51	3
929.2176	1	10	n/a	n/a	1	51	4
930.451	1	10	n/a	n/a	1	51	5
931.6176	1	10	n/a	n/a	1	51	6
932.6842	1	10	n/a	n/a	1	51	7
933.7508	1	21	n/a	n/a	1	51	0
934.784	1	10	n/a	n/a	1	51	1
935.8672	1	10	n/a	n/a	1	51	2
936.9672	1	10	n/a	n/a	1	51	3
938.1672	1	10	n/a	n/a	1	51	4
939.0466	1	81	n/a	n/a	1	0	0
939.2466	1	81	n/a	n/a	1	0	0
939.4466	1	81	n/a	n/a	1	0	0
939.6466	1	81	n/a	n/a	1	0	0
939.8466	1	81	n/a	n/a	1	0	0
940.0466	1	81	n/a	n/a	1	0	0
940.2466	1	81	n/a	n/a	1	0	0
940.4466	1	81	n/a	n/a	1	0	0
940.6466	1	81	n/a	n/a	1	0	0
940.8466	1	81	n/a	n/a	1	0	0
942.0002	1	10	n/a	n/a	1	51	1
943.0502	1	10	n/a	n/a	1	51	2
944.2834	1	10	n/a	n/a	1	51	3
945.4168	1	10	n/a	n/a	1	51	4
946.5666	1	10	n/a	n/a	1	51	5
947.7166	1	21	n/a	n/a	1	51	0
949.0166	1	10	n/a	n/a	1	51	1
950.1332	1	10	n/a	n/a	1	51	2
951.2664	1	10	n/a	n/a	1	51	3
952.4664	1	10	n/a	n/a	1	51	4
953.5662	1	10	n/a	n/a	1	51	5
954.6662	1	21	n/a	n/a	1	51	0
955.9494	1	10	n/a	n/a	1	51	1
957.1326	1	10	n/a	n/a	1	51	2
958.2992	1	10	n/a	n/a	1	51	3
959.5326	1	10	n/a	n/a	1	51	4
960.7492	1	10	n/a	n/a	1	51	5
961.9658	1	21	n/a	n/a	1	51	0
963.0324	1	10	n/a	n/a	1	51	1
964.3156	1	10	n/a	n/a	1	51	2
1023.9518	1	81	n/a	n/a	1	0	0
1024.1518	1	81	n/a	n/a	1	0	0
1024.3518	1	81	n/a	n/a	1	0	0
1024.5518	1	81	n/a	n/a	1	0	0
1024.7518	1	81	n/a	n/a	1	0	0
1024.9518	1	81	n/a	n/a	1	0	0
1025.1518	1	81	n/a	n/a	1	0	0
1025.3518	1	81	n/a	n/a	1	0	0
1025.5518	1	81	n/a	n/a	1	0	0
1025.7518	1	81	n/a	n/a	1	0	0
1027.0952	1	10	n/a	n/a	1	50	1
1028.3618	1	21	n/a	n/a	1	50	0
1029.4618	1	10	n/a	n/a	1	50	1
1030.7784	1	10	n/a	n/a	1	50	2
1031.895	1	10	n/a	n/a	1	50	3
1033.0116	1	21	n/a	n/a	1	50	0
1034.2948	1	10	n/a	n/a	1	50	1
1035.5114	1	10	n/a	n/a	1	50	2
1036.5946	1	10	n/a	n/a	1	50	3
1037.678	1	21	n/a	n/a	1	50	0
1038.8112	1	10	n/a	n/a	1	50	1
1039.9112	1	10	n/a	n/a	1	50	2
1041.0444	1	10	n/a	n/a	1	50	3
1042.2944	1	10	n/a	n/a	1	50	4
1043.3942	1	10	n/a	n/a	1	50	5
1044.4942	1	21	n/a	n/a	1	50	0
1045.7774	1	10	n/a	n/a	1	50	1
1046.9274	1	10	n/a	n/a	1	50	2
1048.1774	1	10	n/a	n/a	1	50	3
1049.3106	1	10	n/a	n/a	1	50	4
1050.202	1	81	n/a	n/a	1	0	0
1050.402	1	81	n/a	n/a	1	0	0
1050.602	1	81	n/a	n/a	1	0	0
1050.802	1	81	n/a	n/a	1	0	0
1051.002	1	81	n/a	n/a	1	0	0
1051.202	1	81	n/a	n/a	1	0	0
1051.402	1	81	n/a	n/a	1	0	0
1051.602	1	81	n/a	n/a	1	0	0
1051.802	1	81	n/a	n/a	1	0	0
1052.002	1	81	n/a	n/a	1	0	0
1053.3604	1	10	n/a	n/a	1	50	1
1054.627	1	21	n/a	n/a	1	50	0
1055.7102	1	10	n/a	n/a	1	50	1
1056.7934	1	21	n/a	n/a	1	50	0
1057.8934	1	10	n/a	n/a	1	50	1
1058.9934	1	21	n/a	n/a	1	50	0
1060.1432	1	10	n/a	n/a	1	50	1
1061.2598	1	10	n/a	n/a	1	50	2
1062.3764	1	10	n/a	n/a	1	50	3
1063.493	1	21	n/a	n/a	1	50	0
1064.693	1	10	n/a	n/a	1	50	1
1065.9596	1	10	n/a	n/a	1	50	2
1067.1596	1	10	n/a	n/a	1	50	3
1068.3762	1	10	n/a	n/a	1	50	4
1069.526	1	10	n/a	n/a	1	50	5
1070.676	1	10	n/a	n/a	1	50	6
1071.9426	1	10	n/a	n/a	1	50	7
1073.2092	1	21	n/a	n/a	1	50	0
1074.3258	1	10	n/a	n/a	1	50	1
1075.4424	1	21	n/a	n/a	1	50	0
1076.487	1	81	n/a	n/a	1	0	0
1076.687	1	81	n/a	n/a	1	0	0
1076.887	1	81	n/a	n/a	1	0	0
1077.087	1	81	n/a	n/a	1	0	0
1077.287	1	81	n/a	n/a	1	0	0
1077.487	1	81	n/a	n/a	1	0	0
1077.687	1	81	n/a	n/a	1	0	0
1077.887	1	81	n/a	n/a	1	0	0
1078.087	1	81	n/a	n/a	1	0	0
1078.287	1	81	n/a	n/a	1	0	0
1079.5754	1	10	n/a	n/a	1	50	1
1080.692	1	10	n/a	n/a	1	50	2
1081.8754	1	10	n/a	n/a	1	50	3
1082.942	1	10	n/a	n/a	1	50	4
1084.0586	1	10	n/a	n/a	1	50	5
1085.1752	1	21	n/a	n/a	1	50	0
1086.4084	1	10	n/a	n/a	1	50	1
1087.6584	1	10	n/a	n/a	1	50	2
1088.825	1	10	n/a	n/a	1	50	3
1089.9916	1	21	n/a	n/a	1	50	0
1091.2914	1	10	n/a	n/a	1	50	1
1092.608	1	10	n/a	n/a	1	50	2
1093.6746	1	10	n/a	n/a	1	50	3
1094.7412	1	10	n/a	n/a	1	50	4
1095.9246	1	10	n/a	n/a	1	50	5
1096.9578	1	10	n/a	n/a	1	50	6
1098.191	1	10	n/a	n/a	1	50	7
1099.4242	1	21	n/a	n/a	1	50	0
1100.5242	1	10	n/a	n/a	1	50	1
1101.6242	1	10	n/a	n/a	1	50	2
1102.4326	1	81	n/a	n/a	1	0	0
1102.6326	1	81	n/a	n/a	1	0	0
1102.8326	1	81	n/a	n/a	1	0	0
1103.0326	1	81	n/a	n/a	1	0	0
1103.2326	1	81	n/a	n/a	1	0	0
1103.4326	1	81	n/a	n/a	1	0	0
1103.6326	1	81	n/a	n/a	1	0	0
1103.8326	1	81	n/a	n/a	1	0	0
1104.0326	1	81	n/a	n/a	1	0	0
1104.2326	1	81	n/a	n/a	1	0	0
1105.5406	1	10	n/a	n/a	1	50	1
1106.7406	1	10	n/a	n/a	1	50	2
1108.0072	1	10	n/a	n/a	1	50	3
1109.307	1	10	n/a	n/a	1	50	4
1110.5404	1	10	n/a	n/a	1	50	5
1111.7736	1	21	n/a	n/a	1	50	0
1112.8402	1	10	n/a	n/a	1	50	1
1114.0068	1	10	n/a	n/a	1	50	2
1115.2566	1	10	n/a	n/a	1	50	3
1116.5066	1	21	n/a	n/a	1	50	0
1117.7732	1	10	n/a	n/a	1	50	1
1118.8064	1	10	n/a	n/a	1	50	2
1119.923	1	10	n/a	n/a	1	50	3
1121.0396	1	21	n/a	n/a	1	50	0
1122.373	1	10	n/a	n/a	1	50	1
1123.4062	1	10	n/a	n/a	1	50	2
1124.5894	1	10	n/a	n/a	1	50	3
1125.7728	1	21	n/a	n/a	1	50	0
1127.0894	1	10	n/a	n/a	1	50	1
1128.406	1	10	n/a	n/a	1	50	2
1129.1696	1	81	n/a	n/a	1	0	0
1129.3696	1	81	n/a	n/a	1	0	0
1129.5696	1	81	n/a	n/a	1	0	0
1129.7696	1	81	n/a	n/a	1	0	0
1129.9696	1	81	n/a	n/a	1	0	0
1130.1696	1	81	n/a	n/a	1	0	0
1130.3696	1	81	n/a	n/a	1	0	0
1130.5696	1	81	n/a	n/a	1	0	0
1130.7696	1	81	n/a	n/a	1	0	0
1130.9696	1	81	n/a	n/a	1	0	0
1132.139	1	10	n/a	n/a	1	50	1
1133.3556	1	10	n/a	n/a	1	50	2
1134.6722	1	10	n/a	n/a	1	50	3
1135.8888	1	10	n/a	n/a	1	50	4
1136.972	1	10	n/a	n/a	1	50	5
1138.022	1	10	n/a	n/a	1	50	6
1139.1886	1	10	n/a	n/a	1	50	7
1140.3552	1	21	n/a	n/a	1	50	0
1141.6552	1	10	n/a	n/a	1	50	1
1142.9384	1	10	n/a	n/a	1	50	2
1143.9884	1	10	n/a	n/a	1	50	3
1145.0382	1	21	n/a	n/a	1	50	0
1146.2548	1	10	n/a	n/a	1	50	1
1147.4714	1	21	n/a	n/a	1	50	0
1148.7048	1	10	n/a	n/a	1	50	1
1149.938	1	10	n/a	n/a	1	50	2
1150.988	1	10	n/a	n/a	1	50	3
1152.0378	1	21	n/a	n/a	1	50	0
1153.2712	1	10	n/a	n/a	1	50	1
1154.5044	1	21	n/a	n/a	1	50	0
1192.0276	1	82	n/a	n/a	1	0	0
1192.0756	1	82	n/a	n/a	1	0	0
1192.3726	1	82	n/a	n/a	1	0	0
1192.4426	1	82	n/a	n/a	1	0	0
1192.7826	1	82	n/a	n/a	1	0	0
1193.0276	1	82	n/a	n/a	1	0	0
1193.0546	1	82	n/a	n/a	1	0	0
1193.1536	1	82	n/a	n/a	1	0	0
1193.2186	1	82	n/a	n/a	1	0	0
1193.5346	1	82	n/a	n/a	1	0	0
1194.952	1	10	n/a	n/a	1	52	1
1195.9852	1	10	n/a	n/a	1	52	2
1197.2518	1	10	n/a	n/a	1	52	3
1198.3352	1	10	n/a	n/a	1	52	4
1199.5184	1	10	n/a	n/a	1	52	5
1200.5516	1	10	n/a	n/a	1	52	6
1201.7182	1	10	n/a	n/a	1	52	7
1202.8848	1	21	n/a	n/a	1	52	0
1204.1348	1	10	n/a	n/a	1	52	1
1205.3848	1	21	n/a	n/a	1	52	0
1206.668	1	10	n/a	n/a	1	52	1
1207.8678	1	10	n/a	n/a	1	52	2
1209.0012	1	10	n/a	n/a	1	52	3
1210.1344	1	21	n/a	n/a	1	52	0
1211.301	1	10	n/a	n/a	1	52	1
1212.5676	1	10	n/a	n/a	1	52	2
1213.7508	1	10	n/a	n/a	1	52	3
1214.8342	1	10	n/a	n/a	1	52	4
1215.9174	1	10	n/a	n/a	1	52	5
1217.0006	1	21	n/a	n/a	1	52	0
1218.0284	1	82	n/a	n/a	1	0	0
1218.2034	1	82	n/a	n/a	1	0	0
1218.2664	1	82	n/a	n/a	1	0	0
1218.4964	1	82	n/a	n/a	1	0	0
1219.0292	1	82	n/a	n/a	1	0	0
1219.1732	1	82	n/a	n/a	1	0	0
1219.1972	1	82	n/a	n/a	1	0	0
1219.4702	1	82	n/a	n/a	1	0	0
1219.5782	1	82	n/a	n/a	1	0	0
1221.0004	1	10	n/a	n/a	1	52	1
1222.0838	1	21	n/a	n/a	1	52	0
1223.317	1	10	n/a	n/a	1	52	1
1224.5502	1	21	n/a	n/a	1	52	0
1225.6002	1	10	n/a	n/a	1	52	1
1226.9002	1	10	n/a	n/a	1	52	2
1227.9668	1	10	n/a	n/a	1	52	3
1229.0166	1	10	n/a	n/a	1	52	4
1230.05	1	10	n/a	n/a	1	52	5
1231.0832	1	21	n/a	n/a	1	52	0
1232.2832	1	10	n/a	n/a	1	52	1
1233.4998	1	21	n/a	n/a	1	52	0
1234.633	1	10	n/a	n/a	1	52	1
1235.7162	1	10	n/a	n/a	1	52	2
1236.9662	1	10	n/a	n/a	1	52	3
1238.1828	1	10	n/a	n/a	1	52	4
1239.2494	1	10	n/a	n/a	1	52	5
1240.316	1	21	n/a	n/a	1	52	0
1241.566	1	10	n/a	n/a	1	52	1
1242.7826	1	10	n/a	n/a	1	52	2
1243.897	1	82	n/a	n/a	1	0	0
1243.982	1	82	n/a	n/a	1	0	0
1244.003	1	82	n/a	n/a	1	0	0
1244.436	1	82	n/a	n/a	1	0	0
1244.813	1	82	n/a	n/a	1	0	0
1244.897	1	82	n/a	n/a	1	0	0
1245.198	1	82	n/a	n/a	1	0	0
1245.313	1	82	n/a	n/a	1	0	0
1245.404	1	82	n/a	n/a	1	0	0
1245.681	1	82	n/a	n/a	1	0	0
1246.8322	1	10	n/a	n/a	1	52	1
1247.9488	1	10	n/a	n/a	1	52	2
1249.1654	1	10	n/a	n/a	1	52	3
1250.4654	1	10	n/a	n/a	1	52	4
1251.5654	1	10	n/a	n/a	1	52	5
1252.6652	1	21	n/a	n/a	1	52	0
1253.7152	1	10	n/a	n/a	1	52	1
1254.9818	1	10	n/a	n/a	1	52	2
1256.1318	1	10	n/a	n/a	1	52	3
1257.415	1	10	n/a	n/a	1	52	4
1258.7316	1	10	n/a	n/a	1	52	5
1260.0482	1	21	n/a	n/a	1	52	0
1261.348	1	10	n/a	n/a	1	52	1
1262.6314	1	10	n/a	n/a	1	52	2
1263.8146	1	10	n/a	n/a	1	52	3
1264.8812	1	10	n/a	n/a	1	52	4
1265.9812	1	10	n/a	n/a	1	52	5
1267.081	1	21	n/a	n/a	1	52	0
1268.131	1	10	n/a	n/a	1	52	1
1269.3142	1	10	n/a	n/a	1	52	2
1270.426	1	82	n/a	n/a	1	0	0
1270.771	1	82	n/a	n/a	1	0	0
1271.143	1	82	n/a	n/a	1	0	0
1271.312	1	82	n/a	n/a	1	0	0
1271.351	1	82	n/a	n/a	1	0	0
1271.426	1	82	n/a	n/a	1	0	0
1271.852	1	82	n/a	n/a	1	0	0
1272.011	1	82	n/a	n/a	1	0	0
1272.098	1	82	n/a	n/a	1	0	0
1272.144	1	82	n/a	n/a	1	0	0
1273.464	1	10	n/a	n/a	1	52	1
1274.7806	1	10	n/a	n/a	1	52	2
1275.8306	1	10	n/a	n/a	1	52	3
1276.8804	1	21	n/a	n/a	1	52	0
1277.9472	1	10	n/a	n/a	1	52	1
1279.0138	1	21	n/a	n/a	1	52	0
1280.047	1	10	n/a	n/a	1	52	1
1281.2302	1	10	n/a	n/a	1	52	2
1282.4136	1	10	n/a	n/a	1	52	3
1283.5968	1	21	n/a	n/a	1	52	0
1284.7134	1	10	n/a	n/a	1	52	1
1285.83	1	21	n/a	n/a	1	52	0
1287.0632	1	10	n/a	n/a	1	52	1
1288.3464	1	10	n/a	n/a	1	52	2
1289.4798	1	10	n/a	n/a	1	52	3
1290.7296	1	10	n/a	n/a	1	52	4
1292.0462	1	10	n/a	n/a	1	52	5
1293.3628	1	21	n/a	n/a	1	52	0
1294.4128	1	10	n/a	n/a	1	52	1
1295.446	1	10	n/a	n/a	1	52	2
1296.4786	1	82	n/a	n/a	1	0	0
1296.5046	1	82	n/a	n/a	1	0	0
1296.9166	1	82	n/a	n/a	1	0	0
1297.0016	1	82	n/a	n/a	1	0	0
1297.3736	1	82	n/a	n/a	1	0	0
1297.4786	1	82	n/a	n/a	1	0	0
1297.8466	1	82	n/a	n/a	1	0	0
1298.0766	1	82	n/a	n/a	1	0	0
1298.1756	1	82	n/a	n/a	1	0	0
1298.3056	1	82	n/a	n/a	1	0	0
1299.6458	1	10	n/a	n/a	1	52	1
1300.9124	1	21	n/a	n/a	1	52	0
1302.029	1	10	n/a	n/a	1	52	1
1303.079	1	10	n/a	n/a	1	52	2
1304.3788	1	10	n/a	n/a	1	52	3
1305.4454	1	10	n/a	n/a	1	52	4
1306.662	1	10	n/a	n/a	1	52	5
1307.912	1	10	n/a	n/a	1	52	6
1308.9452	1	10	n/a	n/a	1	52	7
1309.9786	1	21	n/a	n/a	1	52	0
1311.2118	1	10	n/a	n/a	1	52	1
1312.3284	1	10	n/a	n/a	1	52	2
1313.495	1	10	n/a	n/a	1	52	3
1314.695	1	10	n/a	n/a	1	52	4
1315.8282	1	10	n/a	n/a	1	52	5
1317.1114	1	10	n/a	n/a	1	52	6
1318.278	1	10	n/a	n/a	1	52	7
1319.4446	1	21	n/a	n/a	1	52	0
1320.7612	1	10	n/a	n/a	1	52	1
1321.8946	1	10	n/a	n/a	1	52	2
1421.8304	1	81	n/a	n/a	1	0	0
1422.0304	1	81	n/a	n/a	1	0	0
1422.2304	1	81	n/a	n/a	1	0	0
1422.4304	1	81	n/a	n/a	1	0	0
1422.6304	1	81	n/a	n/a	1	0	0
1422.8304	1	81	n/a	n/a	1	0	0
1423.0304	1	81	n/a	n/a	1	0	0
1423.2304	1	81	n/a	n/a	1	0	0
1423.4304	1	81	n/a	n/a	1	0	0
1423.6304	1	81	n/a	n/a	1	0	0
1424.7552	1	10	n/a	n/a	1	51	1
1425.7884	1	21	n/a	n/a	1	51	0
1426.8884	1	10	n/a	n/a	1	51	1
1428.0882	1	10	n/a	n/a	1	51	2
1429.3048	1	10	n/a	n/a	1	51	3
1430.5548	1	10	n/a	n/a	1	51	4
1431.838	1	10	n/a	n/a	1	51	5
1432.8714	1	10	n/a	n/a	1	51	6
1433.9046	1	10	n/a	n/a	1	51	7
1434.9378	1	21	n/a	n/a	1	51	0
1435.9878	1	10	n/a	n/a	1	51	1
1437.271	1	10	n/a	n/a	1	51	2
1438.5044	1	10	n/a	n/a	1	51	3
1439.7042	1	10	n/a	n/a	1	51	4
1440.8042	1	10	n/a	n/a	1	51	5
1441.8374	1	10	n/a	n/a	1	51	6
1442.8708	1	10	n/a	n/a	1	51	7
1443.904	1	21	n/a	n/a	1	51	0
1445.1706	1	10	n/a	n/a	1	51	1
1446.4538	1	10	n/a	n/a	1	51	2
1447.5484	1	81	n/a	n/a	1	0	0
1447.7484	1	81	n/a	n/a	1	0	0
1447.9484	1	81	n/a	n/a	1	0	0
1448.1484	1	81	n/a	n/a	1	0	0
1448.3484	1	81	n/a	n/a	1	0	0
1448.5484	1	81	n/a	n/a	1	0	0
1448.7484	1	81	n/a	n/a	1	0	0
1448.9484	1	81	n/a	n/a	1	0	0
1449.1484	1	81	n/a	n/a	1	0	0
1449.3484	1	81	n/a	n/a	1	0	0
1450.5702	1	10	n/a	n/a	1	51	1
1451.7368	1	10	n/a	n/a	1	51	2
1452.8034	1	10	n/a	n/a	1	51	3
1453.87	1	21	n/a	n/a	1	51	0
1454.9534	1	10	n/a	n/a	1	51	1
1456.12	1	10	n/a	n/a	1	51	2
1457.3698	1	10	n/a	n/a	1	51	3
1458.6698	1	10	n/a	n/a	1	51	4
1459.953	1	10	n/a	n/a	1	51	5
1462.4196	1	10	n/a	n/a	1	51	1
1463.6028	1	21	n/a	n/a	1	51	0
1464.8028	1	10	n/a	n/a	1	51	1
1466.0526	1	10	n/a	n/a	1	51	2
1467.3192	1	10	n/a	n/a	1	51	3
1468.3692	1	10	n/a	n/a	1	51	4
1469.6858	1	10	n/a	n/a	1	51	5
1470.7358	1	10	n/a	n/a	1	51	6
1471.919	1	10	n/a	n/a	1	51	7
1473.1022	1	21	n/a	n/a	1	51	0
1474.104	1	81	n/a	n/a	1	0	0
1474.304	1	81	n/a	n/a	1	0	0
1474.504	1	81	n/a	n/a	1	0	0
1474.704	1	81	n/a	n/a	1	0	0
1474.904	1	81	n/a	n/a	1	0	0
1475.1048	1	81	n/a	n/a	1	0	0
1475.3048	1	81	n/a	n/a	1	0	0
1475.5048	1	81	n/a	n/a	1	0	0
1475.7048	1	81	n/a	n/a	1	0	0
1475.9048	1	81	n/a	n/a	1	0	0
1477.0354	1	10	n/a	n/a	1	51	1
1478.1686	1	10	n/a	n/a	1	51	2
1479.352	1	10	n/a	n/a	1	51	3
1480.5352	1	21	n/a	n/a	1	51	0
1481.7352	1	10	n/a	n/a	1	51	1
1482.935	1	21	n/a	n/a	1	51	0
1483.985	1	10	n/a	n/a	1	51	1
1485.135	1	10	n/a	n/a	1	51	2
1486.3682	1	10	n/a	n/a	1	51	3
1487.6014	1	21	n/a	n/a	1	51	0
1488.718	1	10	n/a	n/a	1	51	1
1489.8346	1	10	n/a	n/a	1	51	2
1490.9846	1	10	n/a	n/a	1	51	3
1492.0512	1	10	n/a	n/a	1	51	4
1493.151	1	10	n/a	n/a	1	51	5
1494.2676	1	10	n/a	n/a	1	51	6
1495.351	1	10	n/a	n/a	1	51	7
1496.4342	1	21	n/a	n/a	1	51	0
1497.6342	1	10	n/a	n/a	1	51	1
1498.7342	1	10	n/a	n/a	1	51	2
1499.4568	1	81	n/a	n/a	1	0	0
1499.6568	1	81	n/a	n/a	1	0	0
1499.8568	1	81	n/a	n/a	1	0	0
1500.0568	1	81	n/a	n/a	1	0	0
1500.2568	1	81	n/a	n/a	1	0	0
1500.4568	1	81	n/a	n/a	1	0	0
1500.6568	1	81	n/a	n/a	1	0	0
1500.8568	1	81	n/a	n/a	1	0	0
1501.0568	1	81	n/a	n/a	1	0	0
1501.2568	1	81	n/a	n/a	1	0	0
1502.6338	1	10	n/a	n/a	1	51	1
1503.6672	1	10	n/a	n/a	1	51	2
1504.9004	1	10	n/a	n/a	1	51	3
1506.1336	1	21	n/a	n/a	1	51	0
1507.3502	1	10	n/a	n/a	1	51	1
1508.4168	1	10	n/a	n/a	1	51	2
1509.6668	1	10	n/a	n/a	1	51	3
1510.9168	1	21	n/a	n/a	1	51	0
1512.0166	1	10	n/a	n/a	1	51	1
1513.1166	1	21	n/a	n/a	1	51	0
1514.4498	1	10	n/a	n/a	1	51	1
1515.7664	1	10	n/a	n/a	1	51	2
1517.083	1	10	n/a	n/a	1	51	3
1518.183	1	10	n/a	n/a	1	51	4
1519.4828	1	10	n/a	n/a	1	51	5
1520.7828	1	21	n/a	n/a	1	51	0
1521.866	1	10	n/a	n/a	1	51	1
1522.9494	1	21	n/a	n/a	1	51	0
1524.1826	1	10	n/a	n/a	1	51	1
1525.4326	1	21	n/a	n/a	1	51	0
1526.489	1	81	n/a	n/a	1	0	0
1526.689	1	81	n/a	n/a	1	0	0
1526.889	1	81	n/a	n/a	1	0	0
1527.089	1	81	n/a	n/a	1	0	0
1527.289	1	81	n/a	n/a	1	0	0
1527.489	1	81	n/a	n/a	1	0	0
1527.689	1	81	n/a	n/a	1	0	0
1527.889	1	81	n/a	n/a	1	0	0
1528.089	1	81	n/a	n/a	1	0	0
1528.289	1	81	n/a	n/a	1	0	0
1529.5656	1	10	n/a	n/a	1	51	1
1530.8822	1	10	n/a	n/a	1	51	2
1531.9822	1	10	n/a	n/a	1	51	3
1533.282	1	10	n/a	n/a	1	51	4
1534.432	1	10	n/a	n/a	1	51	5
1535.582	1	21	n/a	n/a	1	51	0
1536.7818	1	10	n/a	n/a	1	51	1
1537.8652	1	10	n/a	n/a	1	51	2
1539.1484	1	10	n/a	n/a	1	51	3
1540.2484	1	10	n/a	n/a	1	51	4
1541.3816	1	10	n/a	n/a	1	51	5
1542.6148	1	10	n/a	n/a	1	51	6
1543.6982	1	10	n/a	n/a	1	51	7
1544.7814	1	21	n/a	n/a	1	51	0
1545.8646	1	10	n/a	n/a	1	51	1
1547.098	1	10	n/a	n/a	1	51	2
1548.1312	1	10	n/a	n/a	1	51	3
1549.4478	1	10	n/a	n/a	1	51	4
1550.631	1	10	n/a	n/a	1	51	5
1551.8144	1	21	n/a	n/a	1	51	0
1565.3306	1	82	n/a	n/a	1	0	0
1565.4546	1	82	n/a	n/a	1	0	0
1565.8906	1	82	n/a	n/a	1	0	0
1565.9876	1	82	n/a	n/a	1	0	0
1566.2196	1	82	n/a	n/a	1	0	0
1566.3306	1	82	n/a	n/a	1	0	0
1566.3856	1	82	n/a	n/a	1	0	0
1566.7236	1	82	n/a	n/a	1	0	0
1566.9516	1	82	n/a	n/a	1	0	0
1567.2376	1	82	n/a	n/a	1	0	0
1568.2966	1	10	n/a	n/a	1	50	1
1569.58	1	10	n/a	n/a	1	50	2
1570.7798	1	10	n/a	n/a	1	50	3
1571.9298	1	10	n/a	n/a	1	50	4
1573.213	1	10	n/a	n/a	1	50	5
1574.4964	1	21	n/a	n/a	1	50	0
1575.6296	1	10	n/a	n/a	1	50	1
1576.7628	1	21	n/a	n/a	1	50	0
1578.046	1	10	n/a	n/a	1	50	1
1579.1628	1	10	n/a	n/a	1	50	2
1580.4626	1	10	n/a	n/a	1	50	3
1581.5458	1	10	n/a	n/a	1	50	4
1582.8124	1	10	n/a	n/a	1	50	5
1584.079	1	21	n/a	n/a	1	50	0
1585.3124	1	10	n/a	n/a	1	50	1
1586.579	1	10	n/a	n/a	1	50	2
1587.6456	1	10	n/a	n/a	1	50	3
1588.7288	1	10	n/a	n/a	1	50	4
1589.8954	1	10	n/a	n/a	1	50	5
1591.062	1	21	n/a	n/a	1	50	0
1591.9778	1	82	n/a	n/a	1	0	0
1592.0498	1	82	n/a	n/a	1	0	0
1592.2918	1	82	n/a	n/a	1	0	0
1592.4898	1	82	n/a	n/a	1	0	0
1592.7658	1	82	n/a	n/a	1	0	0
1592.9778	1	82	n/a	n/a	1	0	0
1593.3208	1	82	n/a	n/a	1	0	0
1593.5638	1	82	n/a	n/a	1	0	0
1593.6498	1	82	n/a	n/a	1	0	0
1593.8168	1	82	n/a	n/a	1	0	0
1594.995	1	10	n/a	n/a	1	50	1
1596.295	1	10	n/a	n/a	1	50	2
1597.6116	1	10	n/a	n/a	1	50	3
1598.8616	1	10	n/a	n/a	1	50	4
1600.1614	1	10	n/a	n/a	1	50	5
1601.3948	1	10	n/a	n/a	1	50	6
1602.4614	1	10	n/a	n/a	1	50	7
1603.528	1	21	n/a	n/a	1	50	0
1604.6112	1	10	n/a	n/a	1	50	1
1605.9278	1	10	n/a	n/a	1	50	2
1606.9778	1	10	n/a	n/a	1	50	3
1608.0776	1	10	n/a	n/a	1	50	4
1609.3942	1	10	n/a	n/a	1	50	5
1610.5276	1	10	n/a	n/a	1	50	6
1611.8108	1	10	n/a	n/a	1	50	7
1613.094	1	21	n/a	n/a	1	50	0
1614.344	1	10	n/a	n/a	1	50	1
1615.5938	1	21	n/a	n/a	1	50	0
1616.7104	1	10	n/a	n/a	1	50	1
1617.9438	1	10	n/a	n/a	1	50	2
1618.9044	1	82	n/a	n/a	1	0	0
1619.1584	1	82	n/a	n/a	1	0	0
1619.3284	1	82	n/a	n/a	1	0	0
1619.4104	1	82	n/a	n/a	1	0	0
1619.8294	1	82	n/a	n/a	1	0	0
1619.9044	1	82	n/a	n/a	1	0	0
1620.0814	1	82	n/a	n/a	1	0	0
1620.2104	1	82	n/a	n/a	1	0	0
1620.5644	1	82	n/a	n/a	1	0	0
1620.8324	1	82	n/a	n/a	1	0	0
1621.9768	1	10	n/a	n/a	1	50	1
1623.1268	1	10	n/a	n/a	1	50	2
1624.4268	1	10	n/a	n/a	1	50	3
1625.7266	1	21	n/a	n/a	1	50	0
1626.8598	1	10	n/a	n/a	1	50	1
1628.0932	1	10	n/a	n/a	1	50	2
1629.393	1	10	n/a	n/a	1	50	3
1630.5596	1	10	n/a	n/a	1	50	4
1631.7096	1	10	n/a	n/a	1	50	5
1632.8596	1	21	n/a	n/a	1	50	0
1634.1262	1	10	n/a	n/a	1	50	1
1635.1928	1	10	n/a	n/a	1	50	2
1636.3426	1	10	n/a	n/a	1	50	3
1637.626	1	10	n/a	n/a	1	50	4
1638.8926	1	10	n/a	n/a	1	50	5
1640.1592	1	21	n/a	n/a	1	50	0
1641.259	1	10	n/a	n/a	1	50	1
1642.509	1	10	n/a	n/a	1	50	2
1643.7588	1	10	n/a	n/a	1	50	3
1645.0088	1	21	n/a	n/a	1	50	0
1645.8316	1	82	n/a	n/a	1	0	0
1645.9906	1	82	n/a	n/a	1	0	0
1646.3356	1	82	n/a	n/a	1	0	0
1646.6286	1	82	n/a	n/a	1	0	0
1646.7286	1	82	n/a	n/a	1	0	0
1646.8316	1	82	n/a	n/a	1	0	0
1646.9666	1	82	n/a	n/a	1	0	0
1647.2076	1	82	n/a	n/a	1	0	0
1647.4736	1	82	n/a	n/a	1	0	0
1647.5526	1	82	n/a	n/a	1	0	0
1648.8586	1	10	n/a	n/a	1	50	1
1650.0252	1	10	n/a	n/a	1	50	2
1651.2918	1	10	n/a	n/a	1	50	3
1652.575	1	10	n/a	n/a	1	50	4
1653.775	1	10	n/a	n/a	1	50	5
1654.8416	1	10	n/a	n/a	1	50	6
1655.9582	1	10	n/a	n/a	1	50	7
1657.0748	1	21	n/a	n/a	1	50	0
1658.208	1	10	n/a	n/a	1	50	1
1659.4914	1	10	n/a	n/a	1	50	2
1660.608	1	10	n/a	n/a	1	50	3
1661.8246	1	10	n/a	n/a	1	50	4
1663.091	1	10	n/a	n/a	1	50	5
1664.1744	1	10	n/a	n/a	1	50	6
1665.4576	1	10	n/a	n/a	1	50	7
1666.7408	1	21	n/a	n/a	1	50	0
1667.8908	1	10	n/a	n/a	1	50	1
1669.1074	1	10	n/a	n/a	1	50	2
1670.1574	1	10	n/a	n/a	1	50	3
1671.324	1	10	n/a	n/a	1	50	4
1672.3084	1	82	n/a	n/a	1	0	0
1672.4274	1	82	n/a	n/a	1	0	0
1672.7564	1	82	n/a	n/a	1	0	0
1672.8324	1	82	n/a	n/a	1	0	0
1673.0734	1	82	n/a	n/a	1	0	0
1673.3084	1	82	n/a	n/a	1	0	0
1673.6094	1	82	n/a	n/a	1	0	0
1673.6674	1	82	n/a	n/a	1	0	0
1673.8964	1	82	n/a	n/a	1	0	0
1674.0054	1	82	n/a	n/a	1	0	0
1675.3238	1	10	n/a	n/a	1	50	1
1676.4736	1	10	n/a	n/a	1	50	2
1677.707	1	10	n/a	n/a	1	50	3
1678.9402	1	21	n/a	n/a	1	50	0
1680.1068	1	10	n/a	n/a	1	50	1
1681.2066	1	10	n/a	n/a	1	50	2
1682.4566	1	10	n/a	n/a	1	50	3
1683.7066	1	21	n/a	n/a	1	50	0
1684.7898	1	10	n/a	n/a	1	50	1
1686.023	1	10	n/a	n/a	1	50	2
1687.3396	1	10	n/a	n/a	1	50	3
1688.6562	1	21	n/a	n/a	1	50	0
1689.8396	1	10	n/a	n/a	1	50	1
1690.9394	1	10	n/a	n/a	1	50	2
1692.106	1	10	n/a	n/a	1	50	3
1693.2726	1	21	n/a	n/a	1	50	0
1694.5392	1	10	n/a	n/a	1	50	1
1695.7058	1	10	n/a	n/a	1	50	2
1696.9392	1	10	n/a	n/a	1	50	3
1698.1558	1	10	n/a	n/a	1	50	4
1715.7124	1	82	n/a	n/a	1	0	0
1715.9354	1	82	n/a	n/a	1	0	0
1716.0064	1	82	n/a	n/a	1	0	0
1716.1534	1	82	n/a	n/a	1	0	0
1716.2794	1	82	n/a	n/a	1	0	0
1716.7124	1	82	n/a	n/a	1	0	0
1717.1404	1	82	n/a	n/a	1	0	0
1717.2304	1	82	n/a	n/a	1	0	0
1717.5604	1	82	n/a	n/a	1	0	0
1717.6794	1	82	n/a	n/a	1	0	0
1718.7212	1	10	n/a	n/a	1	52	1
1719.8378	1	21	n/a	n/a	1	52	0
1721.1044	1	10	n/a	n/a	1	52	1
1722.2876	1	10	n/a	n/a	1	52	2
1723.4376	1	10	n/a	n/a	1	52	3
1724.6542	1	10	n/a	n/a	1	52	4
1725.804	1	10	n/a	n/a	1	52	5
1726.954	1	21	n/a	n/a	1	52	0
1728.1206	1	10	n/a	n/a	1	52	1
1729.2038	1	10	n/a	n/a	1	52	2
1730.3372	1	10	n/a	n/a	1	52	3
1731.4704	1	21	n/a	n/a	1	52	0
1732.787	1	10	n/a	n/a	1	52	1
1733.9702	1	10	n/a	n/a	1	52	2
1735.0202	1	10	n/a	n/a	1	52	3
1736.1202	1	10	n/a	n/a	1	52	4
1737.27	1	10	n/a	n/a	1	52	5
1738.4366	1	21	n/a	n/a	1	52	0
1739.52	1	10	n/a	n/a	1	52	1
1740.5866	1	10	n/a	n/a	1	52	2
1741.479	1	82	n/a	n/a	1	0	0
1741.813	1	82	n/a	n/a	1	0	0
1741.915	1	82	n/a	n/a	1	0	0
1742.089	1	82	n/a	n/a	1	0	0
1742.125	1	82	n/a	n/a	1	0	0
1742.4792	1	82	n/a	n/a	1	0	0
1742.6552	1	82	n/a	n/a	1	0	0
1742.9972	1	82	n/a	n/a	1	0	0
1743.0992	1	82	n/a	n/a	1	0	0
1743.3782	1	82	n/a	n/a	1	0	0
1744.4196	1	10	n/a	n/a	1	52	1
1745.503	1	10	n/a	n/a	1	52	2
1746.6528	1	10	n/a	n/a	1	52	3
1747.8694	1	10	n/a	n/a	1	52	4
1749.0528	1	10	n/a	n/a	1	52	5
1750.236	1	21	n/a	n/a	1	52	0
1751.5026	1	10	n/a	n/a	1	52	1
1752.7524	1	10	n/a	n/a	1	52	2
1754.0524	1	10	n/a	n/a	1	52	3
1755.0856	1	10	n/a	n/a	1	52	4
1756.3522	1	10	n/a	n/a	1	52	5
1757.6188	1	21	n/a	n/a	1	52	0
1758.6522	1	10	n/a	n/a	1	52	1
1759.6854	1	21	n/a	n/a	1	52	0
1760.752	1	10	n/a	n/a	1	52	1
1762.0186	1	10	n/a	n/a	1	52	2
1763.1518	1	10	n/a	n/a	1	52	3
1764.2852	1	21	n/a	n/a	1	52	0
1765.585	1	10	n/a	n/a	1	52	1
1766.835	1	10	n/a	n/a	1	52	2
1767.6208	1	82	n/a	n/a	1	0	0
1767.6978	1	82	n/a	n/a	1	0	0
1767.8448	1	82	n/a	n/a	1	0	0
1767.8738	1	82	n/a	n/a	1	0	0
1768.2238	1	82	n/a	n/a	1	0	0
1768.6208	1	82	n/a	n/a	1	0	0
1768.8738	1	82	n/a	n/a	1	0	0
1769.1938	1	82	n/a	n/a	1	0	0
1769.2578	1	82	n/a	n/a	1	0	0
1769.3768	1	82	n/a	n/a	1	0	0
1770.6682	1	10	n/a	n/a	1	52	1
1771.9014	1	10	n/a	n/a	1	52	2
1773.218	1	10	n/a	n/a	1	52	3
1774.5346	1	21	n/a	n/a	1	52	0
1775.6344	1	10	n/a	n/a	1	52	1
1776.851	1	10	n/a	n/a	1	52	2
1777.8844	1	10	n/a	n/a	1	52	3
1779.0176	1	10	n/a	n/a	1	52	4
1780.1342	1	10	n/a	n/a	1	52	5
1781.2008	1	10	n/a	n/a	1	52	6
1782.4174	1	10	n/a	n/a	1	52	7
1783.634	1	21	n/a	n/a	1	52	0
1784.9174	1	10	n/a	n/a	1	52	1
1786.2338	1	10	n/a	n/a	1	52	2
1787.3838	1	10	n/a	n/a	1	52	3
1788.6838	1	10	n/a	n/a	1	52	4
1789.717	1	10	n/a	n/a	1	52	5
1791.017	1	10	n/a	n/a	1	52	6
1792.3168	1	10	n/a	n/a	1	52	7
1793.6168	1	21	n/a	n/a	1	52	0
1794.5864	1	82	n/a	n/a	1	0	0
1794.6104	1	82	n/a	n/a	1	0	0
1794.8824	1	82	n/a	n/a	1	0	0
1795.0394	1	82	n/a	n/a	1	0	0
1795.4184	1	82	n/a	n/a	1	0	0
1795.5864	1	82	n/a	n/a	1	0	0
1795.9224	1	82	n/a	n/a	1	0	0
1796.0614	1	82	n/a	n/a	1	0	0
1796.3064	1	82	n/a	n/a	1	0	0
1796.4004	1	82	n/a	n/a	1	0	0
1797.7332	1	10	n/a	n/a	1	52	1
1798.8998	1	10	n/a	n/a	1	52	2
1800.0664	1	10	n/a	n/a	1	52	3
1801.133	1	10	n/a	n/a	1	52	4
1802.3996	1	10	n/a	n/a	1	52	5
1803.6162	1	10	n/a	n/a	1	52	6
1804.6662	1	10	n/a	n/a	1	52	7
1805.716	1	21	n/a	n/a	1	52	0
1806.9826	1	10	n/a	n/a	1	52	1
1808.2992	1	10	n/a	n/a	1	52	2
1809.5824	1	10	n/a	n/a	1	52	3
1810.8658	1	21	n/a	n/a	1	52	0
1812.0324	1	10	n/a	n/a	1	52	1
1813.2156	1	10	n/a	n/a	1	52	2
1814.3822	1	10	n/a	n/a	1	52	3
1815.4822	1	10	n/a	n/a	1	52	4
1816.6488	1	10	n/a	n/a	1	52	5
1817.8154	1	21	n/a	n/a	1	52	0
1818.8486	1	10	n/a	n/a	1	52	1
1820.0486	1	10	n/a	n/a	1	52	2
1820.883	1	82	n/a	n/a	1	0	0
1820.925	1	82	n/a	n/a	1	0	0
1820.946	1	82	n/a	n/a	1	0	0
1821.272	1	82	n/a	n/a	1	0	0
1821.405	1	82	n/a	n/a	1	0	0
1821.883	1	82	n/a	n/a	1	0	0
1822.152	1	82	n/a	n/a	1	0	0
1822.471	1	82	n/a	n/a	1	0	0
1822.495	1	82	n/a	n/a	1	0	0
1822.741	1	82	n/a	n/a	1	0	0
1823.8316	1	10	n/a	n/a	1	52	1
1825.1482	1	10	n/a	n/a	1	52	2
1826.3816	1	10	n/a	n/a	1	52	3
1827.6314	1	21	n/a	n/a	1	52	0
1828.8814	1	10	n/a	n/a	1	52	1
1830.1812	1	10	n/a	n/a	1	52	2
1831.2978	1	10	n/a	n/a	1	52	3
1832.3812	1	10	n/a	n/a	1	52	4
1833.4978	1	10	n/a	n/a	1	52	5
1834.5476	1	10	n/a	n/a	1	52	6
1835.8642	1	10	n/a	n/a	1	52	7
1837.1808	1	21	n/a	n/a	1	52	0
1838.3474	1	10	n/a	n/a	1	52	1
1839.464	1	10	n/a	n/a	1	52	2
1840.5974	1	10	n/a	n/a	1	52	3
1841.714	1	10	n/a	n/a	1	52	4
1842.8138	1	10	n/a	n/a	1	52	5
1843.9138	1	21	n/a	n/a	1	52	0
1845.1304	1	10	n/a	n/a	1	52	1
1846.397	1	10	n/a	n/a	1	52	2
1908.7238	1	82	n/a	n/a	1	0	0
1908.7628	1	82	n/a	n/a	1	0	0
1908.9128	1	82	n/a	n/a	1	0	0
1909.2668	1	82	n/a	n/a	1	0	0
1909.6518	1	82	n/a	n/a	1	0	0
1909.7238	1	82	n/a	n/a	1	0	0
1910.0318	1	82	n/a	n/a	1	0	0
1910.0718	1	82	n/a	n/a	1	0	0
1910.2498	1	82	n/a	n/a	1	0	0
1910.3738	1	82	n/a	n/a	1	0	0
1911.6932	1	10	n/a	n/a	1	52	1
1912.7264	1	10	n/a	n/a	1	52	2
1913.843	1	10	n/a	n/a	1	52	3
1914.9264	1	10	n/a	n/a	1	52	4
1916.2096	1	10	n/a	n/a	1	52	5
1917.4928	1	21	n/a	n/a	1	52	0
1918.6094	1	10	n/a	n/a	1	52	1
1919.7594	1	10	n/a	n/a	1	52	2
1920.8426	1	10	n/a	n/a	1	52	3
1921.9926	1	10	n/a	n/a	1	52	4
1923.0592	1	10	n/a	n/a	1	52	5
1924.1258	1	21	n/a	n/a	1	52	0
1925.159	1	10	n/a	n/a	1	52	1
1926.1924	1	21	n/a	n/a	1	52	0
1927.309	1	10	n/a	n/a	1	52	1
1928.5422	1	10	n/a	n/a	1	52	2
1929.6088	1	10	n/a	n/a	1	52	3
1930.7588	1	10	n/a	n/a	1	52	4
1932.042	1	10	n/a	n/a	1	52	5
1933.3086	1	21	n/a	n/a	1	52	0
1934.0862	1	82	n/a	n/a	1	0	0
1934.2402	1	82	n/a	n/a	1	0	0
1934.4762	1	82	n/a	n/a	1	0	0
1934.6072	1	82	n/a	n/a	1	0	0
1935.0312	1	82	n/a	n/a	1	0	0
1935.0862	1	82	n/a	n/a	1	0	0
1935.1112	1	82	n/a	n/a	1	0	0
1935.4072	1	82	n/a	n/a	1	0	0
1935.4782	1	82	n/a	n/a	1	0	0
1935.8024	1	82	n/a	n/a	1	0	0
1937.1084	1	10	n/a	n/a	1	52	1
1938.175	1	10	n/a	n/a	1	52	2
1939.2248	1	10	n/a	n/a	1	52	3
1940.5082	1	10	n/a	n/a	1	52	4
1941.608	1	10	n/a	n/a	1	52	5
1942.9246	1	10	n/a	n/a	1	52	6
1944.1912	1	10	n/a	n/a	1	52	7
1945.4578	1	21	n/a	n/a	1	52	0
1946.7078	1	10	n/a	n/a	1	52	1
1947.9578	1	21	n/a	n/a	1	52	0
1949.141	1	10	n/a	n/a	1	52	1
1950.3576	1	10	n/a	n/a	1	52	2
1951.5742	1	10	n/a	n/a	1	52	3
1952.8908	1	10	n/a	n/a	1	52	4
1954.074	1	10	n/a	n/a	1	52	5
1955.3406	1	10	n/a	n/a	1	52	6
1956.4072	1	10	n/a	n/a	1	52	7
1957.4738	1	21	n/a	n/a	1	52	0
1958.657	1	10	n/a	n/a	1	52	1
1959.8236	1	10	n/a	n/a	1	52	2
1960.7142	1	82	n/a	n/a	1	0	0
1961.1342	1	82	n/a	n/a	1	0	0
1961.1802	1	82	n/a	n/a	1	0	0
1961.2892	1	82	n/a	n/a	1	0	0
1961.5432	1	82	n/a	n/a	1	0	0
1961.7142	1	82	n/a	n/a	1	0	0
1961.7702	1	82	n/a	n/a	1	0	0
1962.1152	1	82	n/a	n/a	1	0	0
1962.2092	1	82	n/a	n/a	1	0	0
1962.4672	1	82	n/a	n/a	1	0	0
1963.7234	1	10	n/a	n/a	1	52	1
1964.8568	1	10	n/a	n/a	1	52	2
1966.1066	1	10	n/a	n/a	1	52	3
1967.4066	1	10	n/a	n/a	1	52	4
1968.4898	1	10	n/a	n/a	1	52	5
1969.5732	1	21	n/a	n/a	1	52	0
1970.7064	1	10	n/a	n/a	1	52	1
1971.8396	1	21	n/a	n/a	1	52	0
1972.9062	1	10	n/a	n/a	1	52	1
1973.9728	1	21	n/a	n/a	1	52	0
1976.5394	1	21	n/a	n/a	1	52	0
1977.756	1	10	n/a	n/a	1	52	1
1978.9726	1	21	n/a	n/a	1	52	0
1980.2224	1	10	n/a	n/a	1	52	1
1981.4724	1	21	n/a	n/a	1	52	0
1982.789	1	10	n/a	n/a	1	52	1
1983.989	1	10	n/a	n/a	1	52	2
1985.2888	1	10	n/a	n/a	1	52	3
1986.5888	1	21	n/a	n/a	1	52	0
1987.6002	1	82	n/a	n/a	1	0	0
1987.6252	1	82	n/a	n/a	1	0	0
1987.6822	1	82	n/a	n/a	1	0	0
1987.9952	1	82	n/a	n/a	1	0	0
1988.2302	1	82	n/a	n/a	1	0	0
1988.6002	1	82	n/a	n/a	1	0	0
1989.0202	1	82	n/a	n/a	1	0	0
1989.2932	1	82	n/a	n/a	1	0	0
1989.4652	1	82	n/a	n/a	1	0	0
1989.5372	1	82	n/a	n/a	1	0	0
1990.7552	1	10	n/a	n/a	1	52	1
1992.0218	1	21	n/a	n/a	1	52	0
1993.0884	1	10	n/a	n/a	1	52	1
1994.305	1	10	n/a	n/a	1	52	2
1995.5216	1	10	n/a	n/a	1	52	3
1996.7382	1	21	n/a	n/a	1	52	0
1997.8382	1	10	n/a	n/a	1	52	1
1998.938	1	21	n/a	n/a	1	52	0
2000.188	1	10	n/a	n/a	1	52	1
2001.4046	1	10	n/a	n/a	1	52	2
2002.5712	1	10	n/a	n/a	1	52	3
2003.8878	1	10	n/a	n/a	1	52	4
2005.1544	1	10	n/a	n/a	1	52	5
2006.2376	1	10	n/a	n/a	1	52	6
2007.3542	1	10	n/a	n/a	1	52	7
2008.4708	1	21	n/a	n/a	1	52	0
2009.5208	1	10	n/a	n/a	1	52	1
2010.704	1	10	n/a	n/a	1	52	2
2011.804	1	10	n/a	n/a	1	52	3
2012.9372	1	10	n/a	n/a	1	52	4
2013.9016	1	82	n/a	n/a	1	0	0
2014.0376	1	82	n/a	n/a	1	0	0
2014.4326	1	82	n/a	n/a	1	0	0
2014.6736	1	82	n/a	n/a	1	0	0
2014.7026	1	82	n/a	n/a	1	0	0
2014.9016	1	82	n/a	n/a	1	0	0
2014.9246	1	82	n/a	n/a	1	0	0
2015.0186	1	82	n/a	n/a	1	0	0
2015.2948	1	82	n/a	n/a	1	0	0
2015.5308	1	82	n/a	n/a	1	0	0
2016.887	1	10	n/a	n/a	1	52	1
2018.1702	1	10	n/a	n/a	1	52	2
2019.3368	1	10	n/a	n/a	1	52	3
2020.4868	1	10	n/a	n/a	1	52	4
2021.8034	1	10	n/a	n/a	1	52	5
2022.9866	1	10	n/a	n/a	1	52	6
2024.2366	1	10	n/a	n/a	1	52	7
2025.4864	1	21	n/a	n/a	1	52	0
2026.6364	1	10	n/a	n/a	1	52	1
2027.7864	1	21	n/a	n/a	1	52	0
2028.8696	1	10	n/a	n/a	1	52	1
2029.9528	1	21	n/a	n/a	1	52	0
2031.2528	1	10	n/a	n/a	1	52	1
2032.5528	1	21	n/a	n/a	1	52	0
2033.586	1	10	n/a	n/a	1	52	1
2034.7526	1	10	n/a	n/a	1	52	2
2036.0858	1	10	n/a	n/a	1	52	3
2037.2524	1	10	n/a	n/a	1	52	4
2038.5358	1	10	n/a	n/a	1	52	5
2039.6024	1	10	n/a	n/a	1	52	6
2050.0582	1	81	n/a	n/a	1	0	0
2050.2582	1	81	n/a	n/a	1	0	0
2050.4582	1	81	n/a	n/a	1	0	0
2050.6582	1	81	n/a	n/a	1	0	0
2050.8582	1	81	n/a	n/a	1	0	0
2051.0582	1	81	n/a	n/a	1	0	0
2051.2582	1	81	n/a	n/a	1	0	0
2051.4582	1	81	n/a	n/a	1	0	0
2051.6582	1	81	n/a	n/a	1	0	0
2051.8582	1	81	n/a	n/a	1	0	0
2053.0348	1	10	n/a	n/a	1	50	1
2054.1182	1	21	n/a	n/a	1	50	0
2055.1848	1	10	n/a	n/a	1	50	1
2056.2346	1	10	n/a	n/a	1	50	2
2057.518	1	10	n/a	n/a	1	50	3
2058.8346	1	10	n/a	n/a	1	50	4
2060.1512	1	10	n/a	n/a	1	50	5
2061.4678	1	21	n/a	n/a	1	50	0
2062.601	1	10	n/a	n/a	1	50	1
2063.7342	1	21	n/a	n/a	1	50	0
2065.0342	1	10	n/a	n/a	1	50	1
2066.1674	1	10	n/a	n/a	1	50	2
2067.3174	1	10	n/a	n/a	1	50	3
2068.6172	1	10	n/a	n/a	1	50	4
2069.7506	1	10	n/a	n/a	1	50	5
2070.9504	1	10	n/a	n/a	1	50	6
2072.217	1	10	n/a	n/a	1	50	7
2073.4836	1	21	n/a	n/a	1	50	0
2074.667	1	10	n/a	n/a	1	50	1
2075.8002	1	10	n/a	n/a	1	50	2
2076.9126	1	81	n/a	n/a	1	0	0
2077.1126	1	81	n/a	n/a	1	0	0
2077.3126	1	81	n/a	n/a	1	0	0
2077.5126	1	81	n/a	n/a	1	0	0
2077.7126	1	81	n/a	n/a	1	0	0
2077.9126	1	81	n/a	n/a	1	0	0
2078.1128	1	81	n/a	n/a	1	0	0
2078.3128	1	81	n/a	n/a	1	0	0
2078.5128	1	81	n/a	n/a	1	0	0
2078.7128	1	81	n/a	n/a	1	0	0
2080	1	10	n/a	n/a	1	50	1
2081.3332	1	10	n/a	n/a	1	50	2
2082.5832	1	10	n/a	n/a	1	50	3
2083.833	1	10	n/a	n/a	1	50	4
2084.933	1	10	n/a	n/a	1	50	5
2086.033	1	21	n/a	n/a	1	50	0
2087.2328	1	10	n/a	n/a	1	50	1
2088.3162	1	10	n/a	n/a	1	50	2
2089.466	1	10	n/a	n/a	1	50	3
2090.616	1	10	n/a	n/a	1	50	4
2091.6992	1	10	n/a	n/a	1	50	5
2092.7826	1	21	n/a	n/a	1	50	0
2093.8824	1	10	n/a	n/a	1	50	1
2094.9824	1	21	n/a	n/a	1	50	0
2096.0656	1	10	n/a	n/a	1	50	1
2097.1822	1	10	n/a	n/a	1	50	2
2098.4488	1	10	n/a	n/a	1	50	3
2099.5488	1	10	n/a	n/a	1	50	4
2100.632	1	10	n/a	n/a	1	50	5
2101.7154	1	21	n/a	n/a	1	50	0
2102.7308	1	81	n/a	n/a	1	0	0
2102.9308	1	81	n/a	n/a	1	0	0
2103.1308	1	81	n/a	n/a	1	0	0
2103.3308	1	81	n/a	n/a	1	0	0
2103.5308	1	81	n/a	n/a	1	0	0
2103.7308	1	81	n/a	n/a	1	0	0
2103.9308	1	81	n/a	n/a	1	0	0
2104.1308	1	81	n/a	n/a	1	0	0
2104.3308	1	81	n/a	n/a	1	0	0
2104.5308	1	81	n/a	n/a	1	0	0
2105.7484	1	10	n/a	n/a	1	50	1
2107.0484	1	10	n/a	n/a	1	50	2
2108.3484	1	10	n/a	n/a	1	50	3
2109.6482	1	21	n/a	n/a	1	50	0
2110.9482	1	10	n/a	n/a	1	50	1
2111.998	1	10	n/a	n/a	1	50	2
2113.098	1	10	n/a	n/a	1	50	3
2114.4146	1	10	n/a	n/a	1	50	4
2115.4478	1	10	n/a	n/a	1	50	5
2116.6978	1	10	n/a	n/a	1	50	6
2117.981	1	10	n/a	n/a	1	50	7
2119.2644	1	21	n/a	n/a	1	50	0
2120.4642	1	10	n/a	n/a	1	50	1
2121.5308	1	10	n/a	n/a	1	50	2
2122.6308	1	10	n/a	n/a	1	50	3
2123.8808	1	10	n/a	n/a	1	50	4
2124.9306	1	10	n/a	n/a	1	50	5
2125.9806	1	10	n/a	n/a	1	50	6
2127.2638	1	10	n/a	n/a	1	50	7
2128.5472	1	21	n/a	n/a	1	50	0
2129.5816	1	81	n/a	n/a	1	0	0
2129.7816	1	81	n/a	n/a	1	0	0
2129.9816	1	81	n/a	n/a	1	0	0
2130.1816	1	81	n/a	n/a	1	0	0
2130.3816	1	81	n/a	n/a	1	0	0
2130.5816	1	81	n/a	n/a	1	0	0
2130.7816	1	81	n/a	n/a	1	0	0
2130.9816	1	81	n/a	n/a	1	0	0
2131.1816	1	81	n/a	n/a	1	0	0
2131.3816	1	81	n/a	n/a	1	0	0
2132.5636	1	10	n/a	n/a	1	50	1
2133.7802	1	10	n/a	n/a	1	50	2
2135.0468	1	10	n/a	n/a	1	50	3
2136.3134	1	10	n/a	n/a	1	50	4
2137.4966	1	10	n/a	n/a	1	50	5
2138.7966	1	10	n/a	n/a	1	50	6
2140.1132	1	10	n/a	n/a	1	50	7
2141.4296	1	21	n/a	n/a	1	50	0
2142.4962	1	10	n/a	n/a	1	50	1
2143.7962	1	10	n/a	n/a	1	50	2
2144.9794	1	10	n/a	n/a	1	50	3
2146.1628	1	21	n/a	n/a	1	50	0
2147.3794	1	10	n/a	n/a	1	50	1
2148.696	1	10	n/a	n/a	1	50	2
2150.0126	1	10	n/a	n/a	1	50	3
2151.1124	1	10	n/a	n/a	1	50	4
2152.1624	1	10	n/a	n/a	1	50	5
2153.279	1	10	n/a	n/a	1	50	6
2154.5956	1	10	n/a	n/a	1	50	7
2155.9122	1	21	n/a	n/a	1	50	0
2156.7348	1	81	n/a	n/a	1	0	0
2156.9348	1	81	n/a	n/a	1	0	0
2157.1348	1	81	n/a	n/a	1	0	0
2157.3348	1	81	n/a	n/a	1	0	0
2157.5348	1	81	n/a	n/a	1	0	0
2157.7348	1	81	n/a	n/a	1	0	0
2157.9348	1	81	n/a	n/a	1	0	0
2158.1348	1	81	n/a	n/a	1	0	0
2158.3348	1	81	n/a	n/a	1	0	0
2158.5348	1	81	n/a	n/a	1	0	0
2159.812	1	10	n/a	n/a	1	50	1
2160.9952	1	21	n/a	n/a	1	50	0
2162.3118	1	10	n/a	n/a	1	50	1
2163.495	1	10	n/a	n/a	1	50	2
2164.645	1	10	n/a	n/a	1	50	3
2165.745	1	10	n/a	n/a	1	50	4
2166.9616	1	10	n/a	n/a	1	50	5
2168.0614	1	10	n/a	n/a	1	50	6
2169.1614	1	10	n/a	n/a	1	50	7
2170.2614	1	21	n/a	n/a	1	50	0
2171.4946	1	10	n/a	n/a	1	50	1
2172.5446	1	10	n/a	n/a	1	50	2
2173.8778	1	10	n/a	n/a	1	50	3
2175.0278	1	10	n/a	n/a	1	50	4
2176.2444	1	10	n/a	n/a	1	50	5
2177.461	1	21	n/a	n/a	1	50	0
2178.7442	1	10	n/a	n/a	1	50	1
2179.9774	1	10	n/a	n/a	1	50	2
2181.0606	1	10	n/a	n/a	1	50	3
2182.144	1	21	n/a	n/a	1	50	0
2201.3382	1	81	n/a	n/a	1	0	0
2201.5382	1	81	n/a	n/a	1	0	0
2201.7382	1	81	n/a	n/a	1	0	0
2201.9382	1	81	n/a	n/a	1	0	0
2202.1382	1	81	n/a	n/a	1	0	0
2202.3382	1	81	n/a	n/a	1	0	0
2202.5382	1	81	n/a	n/a	1	0	0
2202.7382	1	81	n/a	n/a	1	0	0
2202.9382	1	81	n/a	n/a	1	0	0
2203.1382	1	81	n/a	n/a	1	0	0
2204.3926	1	10	n/a	n/a	1	51	1
2205.6926	1	10	n/a	n/a	1	51	2
2206.8758	1	10	n/a	n/a	1	51	3
2207.9592	1	10	n/a	n/a	1	51	4
2209.1758	1	10	n/a	n/a	1	51	5
2210.3924	1	21	n/a	n/a	1	51	0
2211.5422	1	10	n/a	n/a	1	51	1
2212.8422	1	10	n/a	n/a	1	51	2
2213.8754	1	10	n/a	n/a	1	51	3
2215.192	1	10	n/a	n/a	1	51	4
2216.4752	1	10	n/a	n/a	1	51	5
2217.7586	1	21	n/a	n/a	1	51	0
2219.0752	1	10	n/a	n/a	1	51	1
2220.1084	1	10	n/a	n/a	1	51	2
2221.175	1	10	n/a	n/a	1	51	3
2222.2416	1	21	n/a	n/a	1	51	0
2223.3916	1	10	n/a	n/a	1	51	1
2224.6582	1	10	n/a	n/a	1	51	2
2225.908	1	10	n/a	n/a	1	51	3
2227.208	1	10	n/a	n/a	1	51	4
2228.2894	1	81	n/a	n/a	1	0	0
2228.4894	1	81	n/a	n/a	1	0	0
2228.6894	1	81	n/a	n/a	1	0	0
2228.8894	1	81	n/a	n/a	1	0	0
2229.0894	1	81	n/a	n/a	1	0	0
2229.2894	1	81	n/a	n/a	1	0	0
2229.4894	1	81	n/a	n/a	1	0	0
2229.6894	1	81	n/a	n/a	1	0	0
2229.8894	1	81	n/a	n/a	1	0	0
2230.0894	1	81	n/a	n/a	1	0	0
2231.2744	1	10	n/a	n/a	1	51	1
2232.5576	1	10	n/a	n/a	1	51	2
2233.741	1	10	n/a	n/a	1	51	3
2234.9408	1	10	n/a	n/a	1	51	4
2236.2242	1	10	n/a	n/a	1	51	5
2237.2574	1	10	n/a	n/a	1	51	6
2238.4906	1	10	n/a	n/a	1	51	7
2239.724	1	21	n/a	n/a	1	51	0
2240.9406	1	10	n/a	n/a	1	51	1
2242.2572	1	10	n/a	n/a	1	51	2
2243.4904	1	10	n/a	n/a	1	51	3
2244.7236	1	21	n/a	n/a	1	51	0
2245.9736	1	10	n/a	n/a	1	51	1
2247.2234	1	21	n/a	n/a	1	51	0
2248.4734	1	10	n/a	n/a	1	51	1
2249.6566	1	10	n/a	n/a	1	51	2
2250.9566	1	10	n/a	n/a	1	51	3
2252.2566	1	21	n/a	n/a	1	51	0
2253.5564	1	10	n/a	n/a	1	51	1
2254.8564	1	21	n/a	n/a	1	51	0
2255.6038	1	81	n/a	n/a	1	0	0
2255.8038	1	81	n/a	n/a	1	0	0
2256.0038	1	81	n/a	n/a	1	0	0
2256.2038	1	81	n/a	n/a	1	0	0
2256.4038	1	81	n/a	n/a	1	0	0
2256.6038	1	81	n/a	n/a	1	0	0
2256.8038	1	81	n/a	n/a	1	0	0
2257.0038	1	81	n/a	n/a	1	0	0
2257.2038	1	81	n/a	n/a	1	0	0
2257.4038	1	81	n/a	n/a	1	0	0
2258.5894	1	10	n/a	n/a	1	51	1
2259.6894	1	21	n/a	n/a	1	51	0
2261.006	1	10	n/a	n/a	1	51	1
2262.056	1	10	n/a	n/a	1	51	2
2263.3558	1	10	n/a	n/a	1	51	3
2264.6558	1	21	n/a	n/a	1	51	0
2265.689	1	10	n/a	n/a	1	51	1
2266.789	1	10	n/a	n/a	1	51	2
2268.1056	1	10	n/a	n/a	1	51	3
2269.3222	1	10	n/a	n/a	1	51	4
2270.3722	1	10	n/a	n/a	1	51	5
2271.422	1	21	n/a	n/a	1	51	0
2272.7054	1	10	n/a	n/a	1	51	1
2273.872	1	10	n/a	n/a	1	51	2
2275.0052	1	10	n/a	n/a	1	51	3
2276.1384	1	21	n/a	n/a	1	51	0
2277.2218	1	10	n/a	n/a	1	51	1
2278.505	1	10	n/a	n/a	1	51	2
2279.8216	1	10	n/a	n/a	1	51	3
2281.1382	1	21	n/a	n/a	1	51	0
2281.9936	1	81	n/a	n/a	1	0	0
2282.1936	1	81	n/a	n/a	1	0	0
2282.3936	1	81	n/a	n/a	1	0	0
2282.5936	1	81	n/a	n/a	1	0	0
2282.7936	1	81	n/a	n/a	1	0	0
2282.9936	1	81	n/a	n/a	1	0	0
2283.1936	1	81	n/a	n/a	1	0	0
2283.3936	1	81	n/a	n/a	1	0	0
2283.5936	1	81	n/a	n/a	1	0	0
2283.7936	1	81	n/a	n/a	1	0	0
2284.9214	1	10	n/a	n/a	1	51	1
2286.2046	1	10	n/a	n/a	1	51	2
2287.2878	1	10	n/a	n/a	1	51	3
2288.4378	1	10	n/a	n/a	1	51	4
2289.5044	1	10	n/a	n/a	1	51	5
2290.571	1	21	n/a	n/a	1	51	0
2291.6042	1	10	n/a	n/a	1	51	1
2292.9042	1	10	n/a	n/a	1	51	2
2293.9874	1	10	n/a	n/a	1	51	3
2295.154	1	10	n/a	n/a	1	51	4
2296.2206	1	10	n/a	n/a	1	51	5
2297.3038	1	10	n/a	n/a	1	51	6
2298.4038	1	10	n/a	n/a	1	51	7
2299.5038	1	21	n/a	n/a	1	51	0
2300.7204	1	10	n/a	n/a	1	51	1
2301.887	1	10	n/a	n/a	1	51	2
2303.0036	1	10	n/a	n/a	1	51	3
2304.3202	1	10	n/a	n/a	1	51	4
2305.4534	1	10	n/a	n/a	1	51	5
2306.5866	1	21	n/a	n/a	1	51	0
2307.611	1	81	n/a	n/a	1	0	0
2307.811	1	81	n/a	n/a	1	0	0
2308.011	1	81	n/a	n/a	1	0	0
2308.211	1	81	n/a	n/a	1	0	0
2308.411	1	81	n/a	n/a	1	0	0
2308.6118	1	81	n/a	n/a	1	0	0
2308.8118	1	81	n/a	n/a	1	0	0
2309.0118	1	81	n/a	n/a	1	0	0
2309.2118	1	81	n/a	n/a	1	0	0
2309.4118	1	81	n/a	n/a	1	0	0
2310.6698	1	10	n/a	n/a	1	51	1
2311.703	1	10	n/a	n/a	1	51	2
2312.7864	1	10	n/a	n/a	1	51	3
2313.8696	1	21	n/a	n/a	1	51	0
2314.9528	1	10	n/a	n/a	1	51	1
2316.1028	1	10	n/a	n/a	1	51	2
2317.4194	1	10	n/a	n/a	1	51	3
2318.736	1	21	n/a	n/a	1	51	0
2319.786	1	10	n/a	n/a	1	51	1
2320.9858	1	10	n/a	n/a	1	51	2
2322.2358	1	10	n/a	n/a	1	51	3
2323.5356	1	10	n/a	n/a	1	51	4
2324.7022	1	10	n/a	n/a	1	51	5
2325.8688	1	21	n/a	n/a	1	51	0
2326.9188	1	10	n/a	n/a	1	51	1
2328.2354	1	10	n/a	n/a	1	51	2
2329.5354	1	10	n/a	n/a	1	51	3
2330.8352	1	21	n/a	n/a	1	51	0
2332.1352	1	10	n/a	n/a	1	51	1
2333.2018	1	10	n/a	n/a	1	51	2
