onset	duration	value	response	rt	good	TMS	seq
133.8628	1	81	n/a	n/a	1	0	0
134.0628	1	81	n/a	n/a	1	0	0
134.2628	1	81	n/a	n/a	1	0	0
134.4628	1	81	n/a	n/a	1	0	0
134.6628	1	81	n/a	n/a	1	0	0
134.8628	1	81	n/a	n/a	1	0	0
135.0628	1	81	n/a	n/a	1	0	0
135.2628	1	81	n/a	n/a	1	0	0
135.4628	1	81	n/a	n/a	1	0	0
135.6628	1	81	n/a	n/a	1	0	0
136.9078	1	10	n/a	n/a	1	51	1
138.0578	1	21	n/a	n/a	1	51	0
139.341	1	10	n/a	n/a	1	51	1
140.6244	1	21	n/a	n/a	1	51	0
141.891	1	10	n/a	n/a	1	51	1
142.9576	1	10	n/a	n/a	1	51	2
144.0074	1	10	n/a	n/a	1	51	3
145.274	1	10	n/a	n/a	1	51	4
146.5574	1	10	n/a	n/a	1	51	5
147.8406	1	21	n/a	n/a	1	51	0
148.9572	1	10	n/a	n/a	1	51	1
150.0072	1	10	n/a	n/a	1	51	2
151.3236	1	10	n/a	n/a	1	51	3
152.407	1	10	n/a	n/a	1	51	4
153.457	1	10	n/a	n/a	1	51	5
154.5068	1	21	n/a	n/a	1	51	0
155.74	1	10	n/a	n/a	1	51	1
156.84	1	10	n/a	n/a	1	51	2
157.9732	1	10	n/a	n/a	1	51	3
159.1066	1	21	n/a	n/a	1	51	0
160.1222	1	81	n/a	n/a	1	0	0
160.3222	1	81	n/a	n/a	1	0	0
160.5222	1	81	n/a	n/a	1	0	0
160.7222	1	81	n/a	n/a	1	0	0
160.9222	1	81	n/a	n/a	1	0	0
161.1222	1	81	n/a	n/a	1	0	0
161.3222	1	81	n/a	n/a	1	0	0
161.5222	1	81	n/a	n/a	1	0	0
161.7222	1	81	n/a	n/a	1	0	0
161.9222	1	81	n/a	n/a	1	0	0
163.123	1	10	n/a	n/a	1	51	1
164.223	1	21	n/a	n/a	1	51	0
165.2562	1	10	n/a	n/a	1	51	1
166.5562	1	10	n/a	n/a	1	51	2
167.7894	1	10	n/a	n/a	1	51	3
169.0226	1	21	n/a	n/a	1	51	0
170.2726	1	10	n/a	n/a	1	51	1
171.5224	1	21	n/a	n/a	1	51	0
172.689	1	10	n/a	n/a	1	51	1
173.8556	1	21	n/a	n/a	1	51	0
175.039	1	10	n/a	n/a	1	51	1
176.2222	1	10	n/a	n/a	1	51	2
177.3222	1	10	n/a	n/a	1	51	3
178.3554	1	10	n/a	n/a	1	51	4
179.6554	1	10	n/a	n/a	1	51	5
180.8386	1	10	n/a	n/a	1	51	6
182.0718	1	10	n/a	n/a	1	51	7
183.3052	1	21	n/a	n/a	1	51	0
184.455	1	10	n/a	n/a	1	51	1
185.6884	1	10	n/a	n/a	1	51	2
186.7108	1	81	n/a	n/a	1	0	0
186.9108	1	81	n/a	n/a	1	0	0
187.1108	1	81	n/a	n/a	1	0	0
187.3108	1	81	n/a	n/a	1	0	0
187.5108	1	81	n/a	n/a	1	0	0
187.7108	1	81	n/a	n/a	1	0	0
187.9108	1	81	n/a	n/a	1	0	0
188.1108	1	81	n/a	n/a	1	0	0
188.3108	1	81	n/a	n/a	1	0	0
188.5108	1	81	n/a	n/a	1	0	0
189.6548	1	10	n/a	n/a	1	51	1
190.688	1	10	n/a	n/a	1	51	2
191.888	1	10	n/a	n/a	1	51	3
193.0878	1	21	n/a	n/a	1	51	0
194.3878	1	10	n/a	n/a	1	51	1
195.5878	1	10	n/a	n/a	1	51	2
196.8044	1	10	n/a	n/a	1	51	3
198.0208	1	21	n/a	n/a	1	51	0
199.1874	1	10	n/a	n/a	1	51	1
200.3208	1	10	n/a	n/a	1	51	2
201.4874	1	10	n/a	n/a	1	51	3
202.604	1	10	n/a	n/a	1	51	4
203.8038	1	10	n/a	n/a	1	51	5
205.0038	1	21	n/a	n/a	1	51	0
206.2038	1	10	n/a	n/a	1	51	1
207.4036	1	21	n/a	n/a	1	51	0
208.5536	1	10	n/a	n/a	1	51	1
209.7202	1	10	n/a	n/a	1	51	2
210.9534	1	10	n/a	n/a	1	51	3
212.1868	1	21	n/a	n/a	1	51	0
213.2444	1	81	n/a	n/a	1	0	0
213.4444	1	81	n/a	n/a	1	0	0
213.6444	1	81	n/a	n/a	1	0	0
213.8444	1	81	n/a	n/a	1	0	0
214.0444	1	81	n/a	n/a	1	0	0
214.2444	1	81	n/a	n/a	1	0	0
214.4444	1	81	n/a	n/a	1	0	0
214.6444	1	81	n/a	n/a	1	0	0
214.8444	1	81	n/a	n/a	1	0	0
215.0444	1	81	n/a	n/a	1	0	0
216.3698	1	10	n/a	n/a	1	51	1
217.6864	1	10	n/a	n/a	1	51	2
218.8196	1	10	n/a	n/a	1	51	3
220.003	1	10	n/a	n/a	1	51	4
221.2694	1	10	n/a	n/a	1	51	5
222.436	1	10	n/a	n/a	1	51	6
223.586	1	10	n/a	n/a	1	51	7
224.736	1	21	n/a	n/a	1	51	0
226.0358	1	10	n/a	n/a	1	51	1
227.3524	1	21	n/a	n/a	1	51	0
228.4024	1	10	n/a	n/a	1	51	1
229.719	1	10	n/a	n/a	1	51	2
231.019	1	10	n/a	n/a	1	51	3
232.2522	1	10	n/a	n/a	1	51	4
233.3022	1	10	n/a	n/a	1	51	5
234.5854	1	10	n/a	n/a	1	51	6
235.6686	1	10	n/a	n/a	1	51	7
236.752	1	21	n/a	n/a	1	51	0
237.8352	1	10	n/a	n/a	1	51	1
238.9184	1	21	n/a	n/a	1	51	0
239.8522	1	81	n/a	n/a	1	0	0
240.0522	1	81	n/a	n/a	1	0	0
240.2522	1	81	n/a	n/a	1	0	0
240.4522	1	81	n/a	n/a	1	0	0
240.6522	1	81	n/a	n/a	1	0	0
240.8522	1	81	n/a	n/a	1	0	0
241.0522	1	81	n/a	n/a	1	0	0
241.2522	1	81	n/a	n/a	1	0	0
241.4522	1	81	n/a	n/a	1	0	0
241.6522	1	81	n/a	n/a	1	0	0
243.0348	1	10	n/a	n/a	1	51	1
244.3348	1	10	n/a	n/a	1	51	2
245.4514	1	10	n/a	n/a	1	51	3
246.568	1	21	n/a	n/a	1	51	0
247.818	1	10	n/a	n/a	1	51	1
249.0678	1	21	n/a	n/a	1	51	0
250.1178	1	10	n/a	n/a	1	51	1
251.4176	1	10	n/a	n/a	1	51	2
252.551	1	10	n/a	n/a	1	51	3
253.7176	1	10	n/a	n/a	1	51	4
254.8674	1	10	n/a	n/a	1	51	5
256.0174	1	21	n/a	n/a	1	51	0
257.084	1	10	n/a	n/a	1	51	1
258.2172	1	10	n/a	n/a	1	51	2
259.3838	1	10	n/a	n/a	1	51	3
260.5504	1	10	n/a	n/a	1	51	4
261.617	1	10	n/a	n/a	1	51	5
262.6836	1	21	n/a	n/a	1	51	0
263.867	1	10	n/a	n/a	1	51	1
265.0502	1	21	n/a	n/a	1	51	0
275.508	1	82	n/a	n/a	1	0	0
275.597	1	82	n/a	n/a	1	0	0
275.974	1	82	n/a	n/a	1	0	0
276.306	1	82	n/a	n/a	1	0	0
276.351	1	82	n/a	n/a	1	0	0
276.508	1	82	n/a	n/a	1	0	0
276.927	1	82	n/a	n/a	1	0	0
276.948	1	82	n/a	n/a	1	0	0
277.042	1	82	n/a	n/a	1	0	0
277.384	1	82	n/a	n/a	1	0	0
278.566	1	10	n/a	n/a	1	50	1
279.6994	1	10	n/a	n/a	1	50	2
280.7326	1	10	n/a	n/a	1	50	3
281.8658	1	10	n/a	n/a	1	50	4
283.1324	1	10	n/a	n/a	1	50	5
284.399	1	21	n/a	n/a	1	50	0
285.5824	1	10	n/a	n/a	1	50	1
286.7656	1	21	n/a	n/a	1	50	0
287.8822	1	10	n/a	n/a	1	50	1
288.9488	1	10	n/a	n/a	1	50	2
290.2654	1	10	n/a	n/a	1	50	3
291.582	1	21	n/a	n/a	1	50	0
292.8152	1	10	n/a	n/a	1	50	1
294.0484	1	21	n/a	n/a	1	50	0
295.0818	1	10	n/a	n/a	1	50	1
296.2484	1	10	n/a	n/a	1	50	2
297.465	1	10	n/a	n/a	1	50	3
298.6816	1	10	n/a	n/a	1	50	4
299.9814	1	10	n/a	n/a	1	50	5
301.2814	1	21	n/a	n/a	1	50	0
302.223	1	82	n/a	n/a	1	0	0
302.504	1	82	n/a	n/a	1	0	0
302.863	1	82	n/a	n/a	1	0	0
303.004	1	82	n/a	n/a	1	0	0
303.123	1	82	n/a	n/a	1	0	0
303.2232	1	82	n/a	n/a	1	0	0
303.5532	1	82	n/a	n/a	1	0	0
303.5972	1	82	n/a	n/a	1	0	0
303.8032	1	82	n/a	n/a	1	0	0
304.0512	1	82	n/a	n/a	1	0	0
305.2312	1	10	n/a	n/a	1	50	1
306.3644	1	21	n/a	n/a	1	50	0
307.681	1	10	n/a	n/a	1	50	1
308.831	1	10	n/a	n/a	1	50	2
309.9808	1	10	n/a	n/a	1	50	3
311.2974	1	10	n/a	n/a	1	50	4
312.414	1	10	n/a	n/a	1	50	5
313.614	1	10	n/a	n/a	1	50	6
314.7306	1	10	n/a	n/a	1	50	7
315.8472	1	21	n/a	n/a	1	50	0
317.097	1	10	n/a	n/a	1	50	1
318.197	1	10	n/a	n/a	1	50	2
319.2636	1	10	n/a	n/a	1	50	3
320.4468	1	10	n/a	n/a	1	50	4
321.6468	1	10	n/a	n/a	1	50	5
322.7468	1	10	n/a	n/a	1	50	6
324.0634	1	10	n/a	n/a	1	50	7
325.38	1	21	n/a	n/a	1	50	0
326.4798	1	10	n/a	n/a	1	50	1
327.7464	1	10	n/a	n/a	1	50	2
328.787	1	82	n/a	n/a	1	0	0
328.818	1	82	n/a	n/a	1	0	0
328.959	1	82	n/a	n/a	1	0	0
329.284	1	82	n/a	n/a	1	0	0
329.648	1	82	n/a	n/a	1	0	0
329.787	1	82	n/a	n/a	1	0	0
330.128	1	82	n/a	n/a	1	0	0
330.233	1	82	n/a	n/a	1	0	0
330.44	1	82	n/a	n/a	1	0	0
330.712	1	82	n/a	n/a	1	0	0
331.9628	1	10	n/a	n/a	1	50	1
333.2294	1	10	n/a	n/a	1	50	2
334.3128	1	10	n/a	n/a	1	50	3
335.5626	1	10	n/a	n/a	1	50	4
336.6126	1	10	n/a	n/a	1	50	5
337.8458	1	10	n/a	n/a	1	50	6
339.0624	1	10	n/a	n/a	1	50	7
340.279	1	21	n/a	n/a	1	50	0
341.5956	1	10	n/a	n/a	1	50	1
342.7122	1	10	n/a	n/a	1	50	2
344.0288	1	10	n/a	n/a	1	50	3
345.1954	1	10	n/a	n/a	1	50	4
346.3454	1	10	n/a	n/a	1	50	5
347.4952	1	21	n/a	n/a	1	50	0
348.8118	1	10	n/a	n/a	1	50	1
350.0118	1	10	n/a	n/a	1	50	2
351.0784	1	10	n/a	n/a	1	50	3
352.145	1	21	n/a	n/a	1	50	0
353.2116	1	10	n/a	n/a	1	50	1
354.4116	1	10	n/a	n/a	1	50	2
355.146	1	82	n/a	n/a	1	0	0
355.221	1	82	n/a	n/a	1	0	0
355.349	1	82	n/a	n/a	1	0	0
355.511	1	82	n/a	n/a	1	0	0
355.79	1	82	n/a	n/a	1	0	0
356.146	1	82	n/a	n/a	1	0	0
356.269	1	82	n/a	n/a	1	0	0
356.515	1	82	n/a	n/a	1	0	0
356.785	1	82	n/a	n/a	1	0	0
357.006	1	82	n/a	n/a	1	0	0
358.1612	1	10	n/a	n/a	1	50	1
359.2112	1	10	n/a	n/a	1	50	2
360.3612	1	10	n/a	n/a	1	50	3
361.511	1	10	n/a	n/a	1	50	4
362.561	1	10	n/a	n/a	1	50	5
363.661	1	10	n/a	n/a	1	50	6
364.7276	1	10	n/a	n/a	1	50	7
365.7942	1	21	n/a	n/a	1	50	0
366.8442	1	10	n/a	n/a	1	50	1
367.9274	1	10	n/a	n/a	1	50	2
369.1774	1	10	n/a	n/a	1	50	3
370.3272	1	10	n/a	n/a	1	50	4
371.3772	1	10	n/a	n/a	1	50	5
372.6438	1	10	n/a	n/a	1	50	6
373.8604	1	10	n/a	n/a	1	50	7
375.077	1	21	n/a	n/a	1	50	0
376.2268	1	10	n/a	n/a	1	50	1
377.3768	1	21	n/a	n/a	1	50	0
378.5268	1	10	n/a	n/a	1	50	1
379.56	1	10	n/a	n/a	1	50	2
380.3744	1	82	n/a	n/a	1	0	0
380.7704	1	82	n/a	n/a	1	0	0
380.8824	1	82	n/a	n/a	1	0	0
380.9234	1	82	n/a	n/a	1	0	0
381.2054	1	82	n/a	n/a	1	0	0
381.3744	1	82	n/a	n/a	1	0	0
381.4554	1	82	n/a	n/a	1	0	0
381.7124	1	82	n/a	n/a	1	0	0
381.8584	1	82	n/a	n/a	1	0	0
381.9724	1	82	n/a	n/a	1	0	0
383.4598	1	10	n/a	n/a	1	50	1
384.6098	1	10	n/a	n/a	1	50	2
385.743	1	10	n/a	n/a	1	50	3
386.8096	1	10	n/a	n/a	1	50	4
388.1096	1	10	n/a	n/a	1	50	5
389.2928	1	10	n/a	n/a	1	50	6
390.526	1	10	n/a	n/a	1	50	7
391.7592	1	21	n/a	n/a	1	50	0
393.0426	1	10	n/a	n/a	1	50	1
394.3258	1	21	n/a	n/a	1	50	0
395.5758	1	10	n/a	n/a	1	50	1
396.7924	1	10	n/a	n/a	1	50	2
397.9422	1	10	n/a	n/a	1	50	3
399.2088	1	10	n/a	n/a	1	50	4
400.2754	1	10	n/a	n/a	1	50	5
401.342	1	21	n/a	n/a	1	50	0
402.4586	1	10	n/a	n/a	1	50	1
403.7086	1	10	n/a	n/a	1	50	2
404.9752	1	10	n/a	n/a	1	50	3
406.1418	1	10	n/a	n/a	1	50	4
460.6796	1	82	n/a	n/a	1	0	0
460.7476	1	82	n/a	n/a	1	0	0
460.9066	1	82	n/a	n/a	1	0	0
461.1366	1	82	n/a	n/a	1	0	0
461.2586	1	82	n/a	n/a	1	0	0
461.6796	1	82	n/a	n/a	1	0	0
461.8436	1	82	n/a	n/a	1	0	0
462.2416	1	82	n/a	n/a	1	0	0
462.2826	1	82	n/a	n/a	1	0	0
462.5206	1	82	n/a	n/a	1	0	0
463.7216	1	10	n/a	n/a	1	52	1
465.0216	1	10	n/a	n/a	1	52	2
466.1716	1	10	n/a	n/a	1	52	3
467.3214	1	21	n/a	n/a	1	52	0
468.6214	1	10	n/a	n/a	1	52	1
469.838	1	10	n/a	n/a	1	52	2
471.1546	1	10	n/a	n/a	1	52	3
472.4712	1	21	n/a	n/a	1	52	0
473.7878	1	10	n/a	n/a	1	52	1
475.1044	1	21	n/a	n/a	1	52	0
476.2708	1	10	n/a	n/a	1	52	1
477.5874	1	10	n/a	n/a	1	52	2
478.804	1	10	n/a	n/a	1	52	3
480.0374	1	10	n/a	n/a	1	52	4
481.204	1	10	n/a	n/a	1	52	5
482.3706	1	21	n/a	n/a	1	52	0
483.6704	1	10	n/a	n/a	1	52	1
484.9704	1	21	n/a	n/a	1	52	0
486.2704	1	10	n/a	n/a	1	52	1
487.4536	1	10	n/a	n/a	1	52	2
488.548	1	82	n/a	n/a	1	0	0
488.628	1	82	n/a	n/a	1	0	0
488.66	1	82	n/a	n/a	1	0	0
489.091	1	82	n/a	n/a	1	0	0
489.411	1	82	n/a	n/a	1	0	0
489.548	1	82	n/a	n/a	1	0	0
489.833	1	82	n/a	n/a	1	0	0
490.168	1	82	n/a	n/a	1	0	0
490.319	1	82	n/a	n/a	1	0	0
490.418	1	82	n/a	n/a	1	0	0
491.4866	1	10	n/a	n/a	1	52	1
492.7032	1	10	n/a	n/a	1	52	2
494.0032	1	10	n/a	n/a	1	52	3
495.3364	1	10	n/a	n/a	1	52	4
496.653	1	10	n/a	n/a	1	52	5
497.953	1	21	n/a	n/a	1	52	0
499.2196	1	10	n/a	n/a	1	52	1
500.4862	1	21	n/a	n/a	1	52	0
501.6528	1	10	n/a	n/a	1	52	1
502.7026	1	10	n/a	n/a	1	52	2
503.9692	1	10	n/a	n/a	1	52	3
505.0192	1	10	n/a	n/a	1	52	4
506.2524	1	10	n/a	n/a	1	52	5
507.5524	1	10	n/a	n/a	1	52	6
508.8522	1	10	n/a	n/a	1	52	7
510.1522	1	21	n/a	n/a	1	52	0
511.4522	1	10	n/a	n/a	1	52	1
512.7188	1	10	n/a	n/a	1	52	2
513.9354	1	10	n/a	n/a	1	52	3
515.152	1	21	n/a	n/a	1	52	0
516.2336	1	82	n/a	n/a	1	0	0
516.6666	1	82	n/a	n/a	1	0	0
516.8426	1	82	n/a	n/a	1	0	0
517.1136	1	82	n/a	n/a	1	0	0
517.1566	1	82	n/a	n/a	1	0	0
517.2336	1	82	n/a	n/a	1	0	0
517.4646	1	82	n/a	n/a	1	0	0
517.5666	1	82	n/a	n/a	1	0	0
517.6976	1	82	n/a	n/a	1	0	0
517.7536	1	82	n/a	n/a	1	0	0
519.3184	1	10	n/a	n/a	1	52	1
520.5182	1	21	n/a	n/a	1	52	0
521.7682	1	10	n/a	n/a	1	52	1
523.0182	1	21	n/a	n/a	1	52	0
524.2348	1	10	n/a	n/a	1	52	1
525.418	1	10	n/a	n/a	1	52	2
526.5512	1	10	n/a	n/a	1	52	3
527.6512	1	10	n/a	n/a	1	52	4
528.801	1	10	n/a	n/a	1	52	5
529.951	1	21	n/a	n/a	1	52	0
531.151	1	10	n/a	n/a	1	52	1
532.2842	1	10	n/a	n/a	1	52	2
533.3174	1	10	n/a	n/a	1	52	3
534.584	1	10	n/a	n/a	1	52	4
535.7174	1	10	n/a	n/a	1	52	5
536.8506	1	21	n/a	n/a	1	52	0
538.0006	1	10	n/a	n/a	1	52	1
539.2672	1	10	n/a	n/a	1	52	2
540.4338	1	10	n/a	n/a	1	52	3
541.517	1	10	n/a	n/a	1	52	4
542.5194	1	82	n/a	n/a	1	0	0
542.5614	1	82	n/a	n/a	1	0	0
542.6734	1	82	n/a	n/a	1	0	0
542.9104	1	82	n/a	n/a	1	0	0
543.2924	1	82	n/a	n/a	1	0	0
543.5196	1	82	n/a	n/a	1	0	0
543.6356	1	82	n/a	n/a	1	0	0
544.0416	1	82	n/a	n/a	1	0	0
544.2006	1	82	n/a	n/a	1	0	0
544.4426	1	82	n/a	n/a	1	0	0
545.4834	1	10	n/a	n/a	1	52	1
546.55	1	21	n/a	n/a	1	52	0
547.6	1	10	n/a	n/a	1	52	1
548.7666	1	10	n/a	n/a	1	52	2
549.8498	1	10	n/a	n/a	1	52	3
551.0664	1	10	n/a	n/a	1	52	4
552.133	1	10	n/a	n/a	1	52	5
553.233	1	10	n/a	n/a	1	52	6
554.4996	1	10	n/a	n/a	1	52	7
555.7662	1	21	n/a	n/a	1	52	0
557.066	1	10	n/a	n/a	1	52	1
558.3826	1	10	n/a	n/a	1	52	2
559.5326	1	10	n/a	n/a	1	52	3
560.7826	1	10	n/a	n/a	1	52	4
561.8824	1	10	n/a	n/a	1	52	5
562.9658	1	10	n/a	n/a	1	52	6
564.1824	1	10	n/a	n/a	1	52	7
565.399	1	21	n/a	n/a	1	52	0
566.6322	1	10	n/a	n/a	1	52	1
567.8654	1	21	n/a	n/a	1	52	0
568.8132	1	82	n/a	n/a	1	0	0
568.8402	1	82	n/a	n/a	1	0	0
569.1452	1	82	n/a	n/a	1	0	0
569.5292	1	82	n/a	n/a	1	0	0
569.6462	1	82	n/a	n/a	1	0	0
569.8132	1	82	n/a	n/a	1	0	0
570.0612	1	82	n/a	n/a	1	0	0
570.3322	1	82	n/a	n/a	1	0	0
570.3552	1	82	n/a	n/a	1	0	0
570.7452	1	82	n/a	n/a	1	0	0
571.8318	1	10	n/a	n/a	1	52	1
572.9652	1	21	n/a	n/a	1	52	0
574.0318	1	10	n/a	n/a	1	52	1
575.1316	1	10	n/a	n/a	1	52	2
576.1816	1	10	n/a	n/a	1	52	3
577.2982	1	10	n/a	n/a	1	52	4
578.4482	1	10	n/a	n/a	1	52	5
579.6148	1	10	n/a	n/a	1	52	6
580.8314	1	10	n/a	n/a	1	52	7
582.048	1	21	n/a	n/a	1	52	0
583.2312	1	10	n/a	n/a	1	52	1
584.5144	1	10	n/a	n/a	1	52	2
585.6644	1	10	n/a	n/a	1	52	3
586.981	1	10	n/a	n/a	1	52	4
588.1808	1	10	n/a	n/a	1	52	5
589.3808	1	21	n/a	n/a	1	52	0
590.564	1	10	n/a	n/a	1	52	1
591.814	1	10	n/a	n/a	1	52	2
592.864	1	10	n/a	n/a	1	52	3
593.8972	1	10	n/a	n/a	1	52	4
667.622	1	82	n/a	n/a	1	0	0
667.649	1	82	n/a	n/a	1	0	0
667.763	1	82	n/a	n/a	1	0	0
667.842	1	82	n/a	n/a	1	0	0
668.134	1	82	n/a	n/a	1	0	0
668.622	1	82	n/a	n/a	1	0	0
668.994	1	82	n/a	n/a	1	0	0
669.068	1	82	n/a	n/a	1	0	0
669.199	1	82	n/a	n/a	1	0	0
669.463	1	82	n/a	n/a	1	0	0
670.7592	1	10	n/a	n/a	1	52	1
672.0092	1	10	n/a	n/a	1	52	2
673.2758	1	10	n/a	n/a	1	52	3
674.309	1	10	n/a	n/a	1	52	4
675.609	1	10	n/a	n/a	1	52	5
676.909	1	10	n/a	n/a	1	52	6
678.1422	1	10	n/a	n/a	1	52	7
679.3754	1	21	n/a	n/a	1	52	0
680.6586	1	10	n/a	n/a	1	52	1
681.842	1	10	n/a	n/a	1	52	2
683.0752	1	10	n/a	n/a	1	52	3
684.1584	1	10	n/a	n/a	1	52	4
685.275	1	10	n/a	n/a	1	52	5
686.3916	1	21	n/a	n/a	1	52	0
687.4416	1	10	n/a	n/a	1	52	1
688.5416	1	10	n/a	n/a	1	52	2
689.5748	1	10	n/a	n/a	1	52	3
690.858	1	10	n/a	n/a	1	52	4
691.908	1	10	n/a	n/a	1	52	5
692.958	1	21	n/a	n/a	1	52	0
693.9066	1	82	n/a	n/a	1	0	0
693.9646	1	82	n/a	n/a	1	0	0
694.3696	1	82	n/a	n/a	1	0	0
694.4616	1	82	n/a	n/a	1	0	0
694.7396	1	82	n/a	n/a	1	0	0
694.9066	1	82	n/a	n/a	1	0	0
694.9486	1	82	n/a	n/a	1	0	0
695.3876	1	82	n/a	n/a	1	0	0
695.7626	1	82	n/a	n/a	1	0	0
695.8526	1	82	n/a	n/a	1	0	0
697.091	1	10	n/a	n/a	1	52	1
698.391	1	10	n/a	n/a	1	52	2
699.5908	1	10	n/a	n/a	1	52	3
700.8074	1	10	n/a	n/a	1	52	4
702.1074	1	10	n/a	n/a	1	52	5
703.4074	1	21	n/a	n/a	1	52	0
704.674	1	10	n/a	n/a	1	52	1
705.7906	1	10	n/a	n/a	1	52	2
706.9572	1	10	n/a	n/a	1	52	3
708.0404	1	10	n/a	n/a	1	52	4
709.107	1	10	n/a	n/a	1	52	5
710.1736	1	21	n/a	n/a	1	52	0
711.4068	1	10	n/a	n/a	1	52	1
712.6234	1	10	n/a	n/a	1	52	2
713.7734	1	10	n/a	n/a	1	52	3
715.0566	1	10	n/a	n/a	1	52	4
716.2566	1	10	n/a	n/a	1	52	5
717.4898	1	10	n/a	n/a	1	52	6
718.7564	1	10	n/a	n/a	1	52	7
720.023	1	21	n/a	n/a	1	52	0
721.0148	1	82	n/a	n/a	1	0	0
721.0508	1	82	n/a	n/a	1	0	0
721.1548	1	82	n/a	n/a	1	0	0
721.5938	1	82	n/a	n/a	1	0	0
721.9828	1	82	n/a	n/a	1	0	0
722.0148	1	82	n/a	n/a	1	0	0
722.0858	1	82	n/a	n/a	1	0	0
722.4588	1	82	n/a	n/a	1	0	0
722.7808	1	82	n/a	n/a	1	0	0
722.9298	1	82	n/a	n/a	1	0	0
724.056	1	10	n/a	n/a	1	52	1
725.206	1	10	n/a	n/a	1	52	2
726.3226	1	10	n/a	n/a	1	52	3
727.5726	1	10	n/a	n/a	1	52	4
728.7892	1	10	n/a	n/a	1	52	5
730.1058	1	10	n/a	n/a	1	52	6
731.3724	1	10	n/a	n/a	1	52	7
732.639	1	21	n/a	n/a	1	52	0
733.7556	1	10	n/a	n/a	1	52	1
734.8554	1	10	n/a	n/a	1	52	2
735.8888	1	10	n/a	n/a	1	52	3
736.972	1	10	n/a	n/a	1	52	4
738.1052	1	10	n/a	n/a	1	52	5
739.4218	1	10	n/a	n/a	1	52	6
740.6884	1	10	n/a	n/a	1	52	7
741.955	1	21	n/a	n/a	1	52	0
743.2716	1	10	n/a	n/a	1	52	1
744.3216	1	10	n/a	n/a	1	52	2
745.6214	1	10	n/a	n/a	1	52	3
746.7548	1	10	n/a	n/a	1	52	4
747.6892	1	82	n/a	n/a	1	0	0
748.0162	1	82	n/a	n/a	1	0	0
748.1452	1	82	n/a	n/a	1	0	0
748.4502	1	82	n/a	n/a	1	0	0
748.6152	1	82	n/a	n/a	1	0	0
748.6892	1	82	n/a	n/a	1	0	0
749.0792	1	82	n/a	n/a	1	0	0
749.1982	1	82	n/a	n/a	1	0	0
749.5102	1	82	n/a	n/a	1	0	0
749.5932	1	82	n/a	n/a	1	0	0
750.7878	1	10	n/a	n/a	1	52	1
751.9878	1	10	n/a	n/a	1	52	2
753.2044	1	10	n/a	n/a	1	52	3
754.421	1	21	n/a	n/a	1	52	0
755.7042	1	10	n/a	n/a	1	52	1
756.7874	1	10	n/a	n/a	1	52	2
757.9208	1	10	n/a	n/a	1	52	3
759.054	1	21	n/a	n/a	1	52	0
760.2206	1	10	n/a	n/a	1	52	1
761.2706	1	10	n/a	n/a	1	52	2
762.4704	1	10	n/a	n/a	1	52	3
763.7704	1	10	n/a	n/a	1	52	4
764.8036	1	10	n/a	n/a	1	52	5
766.0202	1	10	n/a	n/a	1	52	6
767.3036	1	10	n/a	n/a	1	52	7
768.5868	1	21	n/a	n/a	1	52	0
769.87	1	10	n/a	n/a	1	52	1
770.97	1	10	n/a	n/a	1	52	2
772.0532	1	10	n/a	n/a	1	52	3
773.1864	1	10	n/a	n/a	1	52	4
773.998	1	82	n/a	n/a	1	0	0
774.234	1	82	n/a	n/a	1	0	0
774.284	1	82	n/a	n/a	1	0	0
774.373	1	82	n/a	n/a	1	0	0
774.637	1	82	n/a	n/a	1	0	0
774.998	1	82	n/a	n/a	1	0	0
775.226	1	82	n/a	n/a	1	0	0
775.334	1	82	n/a	n/a	1	0	0
775.4	1	82	n/a	n/a	1	0	0
775.747	1	82	n/a	n/a	1	0	0
777.103	1	10	n/a	n/a	1	52	1
778.3196	1	21	n/a	n/a	1	52	0
779.5862	1	10	n/a	n/a	1	52	1
780.686	1	10	n/a	n/a	1	52	2
781.8026	1	10	n/a	n/a	1	52	3
782.9192	1	21	n/a	n/a	1	52	0
784.2358	1	10	n/a	n/a	1	52	1
785.5358	1	10	n/a	n/a	1	52	2
786.6024	1	10	n/a	n/a	1	52	3
787.7024	1	10	n/a	n/a	1	52	4
788.9188	1	10	n/a	n/a	1	52	5
790.1354	1	21	n/a	n/a	1	52	0
791.1688	1	10	n/a	n/a	1	52	1
792.452	1	10	n/a	n/a	1	52	2
793.5686	1	10	n/a	n/a	1	52	3
794.6852	1	21	n/a	n/a	1	52	0
795.7852	1	10	n/a	n/a	1	52	1
796.885	1	21	n/a	n/a	1	52	0
797.9184	1	10	n/a	n/a	1	52	1
799.135	1	10	n/a	n/a	1	52	2
809.817	1	81	n/a	n/a	1	0	0
810.017	1	81	n/a	n/a	1	0	0
810.217	1	81	n/a	n/a	1	0	0
810.417	1	81	n/a	n/a	1	0	0
810.617	1	81	n/a	n/a	1	0	0
810.817	1	81	n/a	n/a	1	0	0
811.017	1	81	n/a	n/a	1	0	0
811.217	1	81	n/a	n/a	1	0	0
811.417	1	81	n/a	n/a	1	0	0
811.617	1	81	n/a	n/a	1	0	0
813.0174	1	10	n/a	n/a	1	50	1
814.3174	1	21	n/a	n/a	1	50	0
815.5174	1	10	n/a	n/a	1	50	1
816.8006	1	10	n/a	n/a	1	50	2
817.9504	1	10	n/a	n/a	1	50	3
819.0338	1	10	n/a	n/a	1	50	4
820.2336	1	10	n/a	n/a	1	50	5
821.4336	1	21	n/a	n/a	1	50	0
822.7502	1	10	n/a	n/a	1	50	1
823.8502	1	10	n/a	n/a	1	50	2
825.15	1	10	n/a	n/a	1	50	3
826.4334	1	10	n/a	n/a	1	50	4
827.65	1	10	n/a	n/a	1	50	5
828.8666	1	21	n/a	n/a	1	50	0
830.1164	1	10	n/a	n/a	1	50	1
831.283	1	10	n/a	n/a	1	50	2
832.483	1	10	n/a	n/a	1	50	3
833.6828	1	21	n/a	n/a	1	50	0
834.8994	1	10	n/a	n/a	1	50	1
835.9994	1	10	n/a	n/a	1	50	2
837.0908	1	81	n/a	n/a	1	0	0
837.2908	1	81	n/a	n/a	1	0	0
837.4908	1	81	n/a	n/a	1	0	0
837.6908	1	81	n/a	n/a	1	0	0
837.8908	1	81	n/a	n/a	1	0	0
838.0908	1	81	n/a	n/a	1	0	0
838.2908	1	81	n/a	n/a	1	0	0
838.4908	1	81	n/a	n/a	1	0	0
838.6908	1	81	n/a	n/a	1	0	0
838.8908	1	81	n/a	n/a	1	0	0
840.2826	1	10	n/a	n/a	1	50	1
841.499	1	10	n/a	n/a	1	50	2
842.7156	1	10	n/a	n/a	1	50	3
843.8822	1	10	n/a	n/a	1	50	4
845.1822	1	10	n/a	n/a	1	50	5
846.4822	1	21	n/a	n/a	1	50	0
847.7154	1	10	n/a	n/a	1	50	1
848.7986	1	10	n/a	n/a	1	50	2
850.032	1	10	n/a	n/a	1	50	3
851.2486	1	10	n/a	n/a	1	50	4
852.4484	1	10	n/a	n/a	1	50	5
853.665	1	10	n/a	n/a	1	50	6
854.7982	1	10	n/a	n/a	1	50	7
855.9316	1	21	n/a	n/a	1	50	0
857.1314	1	10	n/a	n/a	1	50	1
858.3314	1	21	n/a	n/a	1	50	0
859.548	1	10	n/a	n/a	1	50	1
860.5812	1	10	n/a	n/a	1	50	2
861.9146	1	10	n/a	n/a	1	50	3
863.2478	1	21	n/a	n/a	1	50	0
864.1714	1	81	n/a	n/a	1	0	0
864.3714	1	81	n/a	n/a	1	0	0
864.5714	1	81	n/a	n/a	1	0	0
864.7714	1	81	n/a	n/a	1	0	0
864.9714	1	81	n/a	n/a	1	0	0
865.1714	1	81	n/a	n/a	1	0	0
865.3714	1	81	n/a	n/a	1	0	0
865.5714	1	81	n/a	n/a	1	0	0
865.7714	1	81	n/a	n/a	1	0	0
865.9714	1	81	n/a	n/a	1	0	0
867.3142	1	10	n/a	n/a	1	50	1
868.5142	1	10	n/a	n/a	1	50	2
869.6308	1	10	n/a	n/a	1	50	3
870.7474	1	21	n/a	n/a	1	50	0
871.864	1	10	n/a	n/a	1	50	1
872.9138	1	10	n/a	n/a	1	50	2
874.0472	1	10	n/a	n/a	1	50	3
875.3138	1	10	n/a	n/a	1	50	4
876.4636	1	10	n/a	n/a	1	50	5
877.6136	1	21	n/a	n/a	1	50	0
878.8968	1	10	n/a	n/a	1	50	1
880.2134	1	10	n/a	n/a	1	50	2
881.4468	1	10	n/a	n/a	1	50	3
882.68	1	21	n/a	n/a	1	50	0
883.88	1	10	n/a	n/a	1	50	1
885.1298	1	10	n/a	n/a	1	50	2
886.163	1	10	n/a	n/a	1	50	3
887.1964	1	21	n/a	n/a	1	50	0
888.413	1	10	n/a	n/a	1	50	1
889.6296	1	21	n/a	n/a	1	50	0
890.5362	1	81	n/a	n/a	1	0	0
890.7362	1	81	n/a	n/a	1	0	0
890.9362	1	81	n/a	n/a	1	0	0
891.1362	1	81	n/a	n/a	1	0	0
891.3362	1	81	n/a	n/a	1	0	0
891.5362	1	81	n/a	n/a	1	0	0
891.7362	1	81	n/a	n/a	1	0	0
891.9362	1	81	n/a	n/a	1	0	0
892.1362	1	81	n/a	n/a	1	0	0
892.3362	1	81	n/a	n/a	1	0	0
893.6126	1	10	n/a	n/a	1	50	1
894.796	1	21	n/a	n/a	1	50	0
897.3124	1	10	n/a	n/a	1	50	2
898.429	1	10	n/a	n/a	1	50	3
899.5456	1	10	n/a	n/a	1	50	4
900.8288	1	10	n/a	n/a	1	50	5
902.1122	1	21	n/a	n/a	1	50	0
903.4288	1	10	n/a	n/a	1	50	1
904.712	1	10	n/a	n/a	1	50	2
905.962	1	10	n/a	n/a	1	50	3
907.2118	1	21	n/a	n/a	1	50	0
908.3284	1	10	n/a	n/a	1	50	1
909.6284	1	10	n/a	n/a	1	50	2
910.8782	1	10	n/a	n/a	1	50	3
912.1282	1	10	n/a	n/a	1	50	4
913.1782	1	10	n/a	n/a	1	50	5
914.2948	1	10	n/a	n/a	1	50	6
915.378	1	10	n/a	n/a	1	50	7
916.4612	1	21	n/a	n/a	1	50	0
917.456	1	81	n/a	n/a	1	0	0
917.656	1	81	n/a	n/a	1	0	0
917.856	1	81	n/a	n/a	1	0	0
918.056	1	81	n/a	n/a	1	0	0
918.256	1	81	n/a	n/a	1	0	0
918.456	1	81	n/a	n/a	1	0	0
918.656	1	81	n/a	n/a	1	0	0
918.856	1	81	n/a	n/a	1	0	0
919.056	1	81	n/a	n/a	1	0	0
919.256	1	81	n/a	n/a	1	0	0
920.411	1	10	n/a	n/a	1	50	1
921.4944	1	10	n/a	n/a	1	50	2
922.7442	1	10	n/a	n/a	1	50	3
923.9276	1	10	n/a	n/a	1	50	4
925.1274	1	10	n/a	n/a	1	50	5
926.294	1	10	n/a	n/a	1	50	6
927.544	1	10	n/a	n/a	1	50	7
928.7938	1	21	n/a	n/a	1	50	0
930.0438	1	10	n/a	n/a	1	50	1
931.2938	1	21	n/a	n/a	1	50	0
932.4104	1	10	n/a	n/a	1	50	1
933.677	1	10	n/a	n/a	1	50	2
934.9436	1	10	n/a	n/a	1	50	3
936.2102	1	10	n/a	n/a	1	50	4
937.46	1	10	n/a	n/a	1	50	5
938.71	1	21	n/a	n/a	1	50	0
939.8598	1	10	n/a	n/a	1	50	1
940.9764	1	10	n/a	n/a	1	50	2
942.243	1	10	n/a	n/a	1	50	3
943.493	1	10	n/a	n/a	1	50	4
974.9668	1	81	n/a	n/a	1	0	0
975.1668	1	81	n/a	n/a	1	0	0
975.3668	1	81	n/a	n/a	1	0	0
975.5668	1	81	n/a	n/a	1	0	0
975.7668	1	81	n/a	n/a	1	0	0
975.9668	1	81	n/a	n/a	1	0	0
976.1668	1	81	n/a	n/a	1	0	0
976.3668	1	81	n/a	n/a	1	0	0
976.5668	1	81	n/a	n/a	1	0	0
976.7668	1	81	n/a	n/a	1	0	0
977.941	1	10	n/a	n/a	1	51	1
979.1242	1	10	n/a	n/a	1	51	2
980.1574	1	10	n/a	n/a	1	51	3
981.4408	1	10	n/a	n/a	1	51	4
982.5074	1	10	n/a	n/a	1	51	5
983.6906	1	10	n/a	n/a	1	51	6
984.7572	1	10	n/a	n/a	1	51	7
985.8238	1	21	n/a	n/a	1	51	0
986.8904	1	10	n/a	n/a	1	51	1
987.9238	1	10	n/a	n/a	1	51	2
989.2402	1	10	n/a	n/a	1	51	3
990.2736	1	10	n/a	n/a	1	51	4
991.4902	1	10	n/a	n/a	1	51	5
992.5234	1	10	n/a	n/a	1	51	6
993.64	1	10	n/a	n/a	1	51	7
994.7566	1	21	n/a	n/a	1	51	0
995.9232	1	10	n/a	n/a	1	51	1
997.0898	1	21	n/a	n/a	1	51	0
998.173	1	10	n/a	n/a	1	51	1
999.323	1	10	n/a	n/a	1	51	2
1000.1234	1	81	n/a	n/a	1	0	0
1000.3234	1	81	n/a	n/a	1	0	0
1000.5234	1	81	n/a	n/a	1	0	0
1000.7234	1	81	n/a	n/a	1	0	0
1000.9234	1	81	n/a	n/a	1	0	0
1001.1234	1	81	n/a	n/a	1	0	0
1001.3234	1	81	n/a	n/a	1	0	0
1001.5234	1	81	n/a	n/a	1	0	0
1001.7234	1	81	n/a	n/a	1	0	0
1001.9234	1	81	n/a	n/a	1	0	0
1003.2562	1	10	n/a	n/a	1	51	1
1004.356	1	10	n/a	n/a	1	51	2
1005.4226	1	10	n/a	n/a	1	51	3
1006.556	1	10	n/a	n/a	1	51	4
1007.6058	1	10	n/a	n/a	1	51	5
1008.6724	1	10	n/a	n/a	1	51	6
1009.8224	1	10	n/a	n/a	1	51	7
1010.9724	1	21	n/a	n/a	1	51	0
1012.0722	1	10	n/a	n/a	1	51	1
1013.2388	1	10	n/a	n/a	1	51	2
1014.3222	1	10	n/a	n/a	1	51	3
1015.572	1	10	n/a	n/a	1	51	4
1016.6054	1	10	n/a	n/a	1	51	5
1017.6386	1	21	n/a	n/a	1	51	0
1018.9386	1	10	n/a	n/a	1	51	1
1020.2384	1	10	n/a	n/a	1	51	2
1021.505	1	10	n/a	n/a	1	51	3
1022.705	1	10	n/a	n/a	1	51	4
1024.0048	1	10	n/a	n/a	1	51	5
1025.3048	1	21	n/a	n/a	1	51	0
1026.3274	1	81	n/a	n/a	1	0	0
1026.5274	1	81	n/a	n/a	1	0	0
1026.7274	1	81	n/a	n/a	1	0	0
1026.9274	1	81	n/a	n/a	1	0	0
1027.1274	1	81	n/a	n/a	1	0	0
1027.3274	1	81	n/a	n/a	1	0	0
1027.5274	1	81	n/a	n/a	1	0	0
1027.7274	1	81	n/a	n/a	1	0	0
1027.9274	1	81	n/a	n/a	1	0	0
1028.1274	1	81	n/a	n/a	1	0	0
1029.5212	1	10	n/a	n/a	1	51	1
1030.7378	1	10	n/a	n/a	1	51	2
1032.0378	1	10	n/a	n/a	1	51	3
1033.3376	1	10	n/a	n/a	1	51	4
1034.6376	1	10	n/a	n/a	1	51	5
1035.7042	1	10	n/a	n/a	1	51	6
1036.8042	1	10	n/a	n/a	1	51	7
1037.904	1	21	n/a	n/a	1	51	0
1038.9374	1	10	n/a	n/a	1	51	1
1040.154	1	10	n/a	n/a	1	51	2
1041.3538	1	10	n/a	n/a	1	51	3
1042.5038	1	10	n/a	n/a	1	51	4
1043.8204	1	10	n/a	n/a	1	51	5
1045.137	1	21	n/a	n/a	1	51	0
1046.3702	1	10	n/a	n/a	1	51	1
1047.6702	1	10	n/a	n/a	1	51	2
1048.7534	1	10	n/a	n/a	1	51	3
1049.82	1	10	n/a	n/a	1	51	4
1050.92	1	10	n/a	n/a	1	51	5
1052.1198	1	10	n/a	n/a	1	51	6
1053.1134	1	81	n/a	n/a	1	0	0
1053.3134	1	81	n/a	n/a	1	0	0
1053.5134	1	81	n/a	n/a	1	0	0
1053.7134	1	81	n/a	n/a	1	0	0
1053.9134	1	81	n/a	n/a	1	0	0
1054.1134	1	81	n/a	n/a	1	0	0
1054.3134	1	81	n/a	n/a	1	0	0
1054.5134	1	81	n/a	n/a	1	0	0
1054.7134	1	81	n/a	n/a	1	0	0
1054.9134	1	81	n/a	n/a	1	0	0
1056.2196	1	10	n/a	n/a	1	51	1
1057.403	1	10	n/a	n/a	1	51	2
1058.5694	1	10	n/a	n/a	1	51	3
1059.736	1	21	n/a	n/a	1	51	0
1061.0026	1	10	n/a	n/a	1	51	1
1062.1526	1	10	n/a	n/a	1	51	2
1063.3858	1	10	n/a	n/a	1	51	3
1064.5192	1	10	n/a	n/a	1	51	4
1065.7524	1	10	n/a	n/a	1	51	5
1066.9856	1	21	n/a	n/a	1	51	0
1068.019	1	10	n/a	n/a	1	51	1
1069.1022	1	10	n/a	n/a	1	51	2
1070.1854	1	10	n/a	n/a	1	51	3
1071.3688	1	10	n/a	n/a	1	51	4
1072.5854	1	10	n/a	n/a	1	51	5
1073.802	1	21	n/a	n/a	1	51	0
1074.9018	1	10	n/a	n/a	1	51	1
1076.1684	1	10	n/a	n/a	1	51	2
1077.3184	1	10	n/a	n/a	1	51	3
1078.635	1	10	n/a	n/a	1	51	4
1079.5844	1	81	n/a	n/a	1	0	0
1079.7844	1	81	n/a	n/a	1	0	0
1079.9844	1	81	n/a	n/a	1	0	0
1080.1844	1	81	n/a	n/a	1	0	0
1080.3844	1	81	n/a	n/a	1	0	0
1080.5844	1	81	n/a	n/a	1	0	0
1080.7844	1	81	n/a	n/a	1	0	0
1080.9844	1	81	n/a	n/a	1	0	0
1081.1844	1	81	n/a	n/a	1	0	0
1081.3844	1	81	n/a	n/a	1	0	0
1082.668	1	10	n/a	n/a	1	51	1
1083.8514	1	10	n/a	n/a	1	51	2
1084.9012	1	10	n/a	n/a	1	51	3
1085.9512	1	21	n/a	n/a	1	51	0
1087.0012	1	10	n/a	n/a	1	51	1
1088.051	1	21	n/a	n/a	1	51	0
1089.1176	1	10	n/a	n/a	1	51	1
1090.2342	1	10	n/a	n/a	1	51	2
1091.4842	1	10	n/a	n/a	1	51	3
1092.7674	1	10	n/a	n/a	1	51	4
1093.9674	1	10	n/a	n/a	1	51	5
1095.1674	1	21	n/a	n/a	1	51	0
1096.334	1	10	n/a	n/a	1	51	1
1097.5006	1	21	n/a	n/a	1	51	0
1098.6838	1	10	n/a	n/a	1	51	1
1099.867	1	21	n/a	n/a	1	51	0
1101.0336	1	10	n/a	n/a	1	51	1
1102.067	1	10	n/a	n/a	1	51	2
1103.1836	1	10	n/a	n/a	1	51	3
1104.3002	1	21	n/a	n/a	1	51	0
1181.3542	1	81	n/a	n/a	1	0	0
1181.5542	1	81	n/a	n/a	1	0	0
1181.7542	1	81	n/a	n/a	1	0	0
1181.9542	1	81	n/a	n/a	1	0	0
1182.1542	1	81	n/a	n/a	1	0	0
1182.3542	1	81	n/a	n/a	1	0	0
1182.5542	1	81	n/a	n/a	1	0	0
1182.7542	1	81	n/a	n/a	1	0	0
1182.9542	1	81	n/a	n/a	1	0	0
1183.1542	1	81	n/a	n/a	1	0	0
1184.5286	1	10	n/a	n/a	1	51	1
1185.612	1	10	n/a	n/a	1	51	2
1186.8618	1	10	n/a	n/a	1	51	3
1187.8952	1	10	n/a	n/a	1	51	4
1189.0118	1	10	n/a	n/a	1	51	5
1190.195	1	10	n/a	n/a	1	51	6
1191.2282	1	10	n/a	n/a	1	51	7
1192.2616	1	21	n/a	n/a	1	51	0
1193.4948	1	10	n/a	n/a	1	51	1
1194.7948	1	10	n/a	n/a	1	51	2
1195.828	1	10	n/a	n/a	1	51	3
1196.978	1	10	n/a	n/a	1	51	4
1198.2946	1	10	n/a	n/a	1	51	5
1199.3444	1	10	n/a	n/a	1	51	6
1200.6444	1	10	n/a	n/a	1	51	7
1201.9442	1	21	n/a	n/a	1	51	0
1203.1608	1	10	n/a	n/a	1	51	1
1204.2108	1	10	n/a	n/a	1	51	2
1205.3774	1	10	n/a	n/a	1	51	3
1206.5606	1	10	n/a	n/a	1	51	4
1207.3312	1	81	n/a	n/a	1	0	0
1207.5312	1	81	n/a	n/a	1	0	0
1207.7312	1	81	n/a	n/a	1	0	0
1207.9312	1	81	n/a	n/a	1	0	0
1208.1312	1	81	n/a	n/a	1	0	0
1208.3312	1	81	n/a	n/a	1	0	0
1208.5312	1	81	n/a	n/a	1	0	0
1208.7312	1	81	n/a	n/a	1	0	0
1208.9312	1	81	n/a	n/a	1	0	0
1209.1312	1	81	n/a	n/a	1	0	0
1210.4604	1	10	n/a	n/a	1	51	1
1211.5938	1	10	n/a	n/a	1	51	2
1212.9104	1	10	n/a	n/a	1	51	3
1214.027	1	10	n/a	n/a	1	51	4
1215.1768	1	10	n/a	n/a	1	51	5
1216.3268	1	21	n/a	n/a	1	51	0
1217.46	1	10	n/a	n/a	1	51	1
1218.6766	1	10	n/a	n/a	1	51	2
1219.8598	1	10	n/a	n/a	1	51	3
1221.0432	1	21	n/a	n/a	1	51	0
1222.1598	1	10	n/a	n/a	1	51	1
1223.2096	1	10	n/a	n/a	1	51	2
1224.2762	1	10	n/a	n/a	1	51	3
1225.3428	1	10	n/a	n/a	1	51	4
1226.4428	1	10	n/a	n/a	1	51	5
1227.5428	1	21	n/a	n/a	1	51	0
1228.7426	1	10	n/a	n/a	1	51	1
1230.026	1	10	n/a	n/a	1	51	2
1231.2258	1	10	n/a	n/a	1	51	3
1232.4424	1	10	n/a	n/a	1	51	4
1233.2668	1	81	n/a	n/a	1	0	0
1233.4668	1	81	n/a	n/a	1	0	0
1233.6668	1	81	n/a	n/a	1	0	0
1233.8668	1	81	n/a	n/a	1	0	0
1234.0668	1	81	n/a	n/a	1	0	0
1234.2668	1	81	n/a	n/a	1	0	0
1234.4668	1	81	n/a	n/a	1	0	0
1234.6668	1	81	n/a	n/a	1	0	0
1234.8668	1	81	n/a	n/a	1	0	0
1235.0668	1	81	n/a	n/a	1	0	0
1236.459	1	10	n/a	n/a	1	51	1
1237.7588	1	21	n/a	n/a	1	51	0
1238.9088	1	10	n/a	n/a	1	51	1
1240.1754	1	10	n/a	n/a	1	51	2
1241.4252	1	10	n/a	n/a	1	51	3
1242.7418	1	10	n/a	n/a	1	51	4
1243.8084	1	10	n/a	n/a	1	51	5
1245.125	1	10	n/a	n/a	1	51	6
1246.3416	1	10	n/a	n/a	1	51	7
1247.5582	1	21	n/a	n/a	1	51	0
1248.8248	1	10	n/a	n/a	1	51	1
1249.9414	1	10	n/a	n/a	1	51	2
1251.2246	1	10	n/a	n/a	1	51	3
1252.508	1	21	n/a	n/a	1	51	0
1253.7412	1	10	n/a	n/a	1	51	1
1254.9744	1	21	n/a	n/a	1	51	0
1256.241	1	10	n/a	n/a	1	51	1
1257.5076	1	21	n/a	n/a	1	51	0
1258.6742	1	10	n/a	n/a	1	51	1
1259.8076	1	10	n/a	n/a	1	51	2
1260.6742	1	81	n/a	n/a	1	0	0
1260.8742	1	81	n/a	n/a	1	0	0
1261.0742	1	81	n/a	n/a	1	0	0
1261.2742	1	81	n/a	n/a	1	0	0
1261.4742	1	81	n/a	n/a	1	0	0
1261.6742	1	81	n/a	n/a	1	0	0
1261.8742	1	81	n/a	n/a	1	0	0
1262.0742	1	81	n/a	n/a	1	0	0
1262.2742	1	81	n/a	n/a	1	0	0
1262.4742	1	81	n/a	n/a	1	0	0
1263.8072	1	10	n/a	n/a	1	51	1
1264.9572	1	10	n/a	n/a	1	51	2
1266.1404	1	10	n/a	n/a	1	51	3
1267.3904	1	10	n/a	n/a	1	51	4
1268.6236	1	10	n/a	n/a	1	51	5
1269.8736	1	10	n/a	n/a	1	51	6
1270.9068	1	10	n/a	n/a	1	51	7
1271.9402	1	21	n/a	n/a	1	51	0
1273.0068	1	10	n/a	n/a	1	51	1
1274.2734	1	10	n/a	n/a	1	51	2
1275.34	1	10	n/a	n/a	1	51	3
1276.5398	1	10	n/a	n/a	1	51	4
1277.6232	1	10	n/a	n/a	1	51	5
1278.673	1	10	n/a	n/a	1	51	6
1279.8564	1	10	n/a	n/a	1	51	7
1281.0396	1	21	n/a	n/a	1	51	0
1282.1228	1	10	n/a	n/a	1	51	1
1283.2062	1	21	n/a	n/a	1	51	0
1284.4728	1	10	n/a	n/a	1	51	1
1285.606	1	10	n/a	n/a	1	51	2
1286.6134	1	81	n/a	n/a	1	0	0
1286.8134	1	81	n/a	n/a	1	0	0
1287.0134	1	81	n/a	n/a	1	0	0
1287.2134	1	81	n/a	n/a	1	0	0
1287.4134	1	81	n/a	n/a	1	0	0
1287.6134	1	81	n/a	n/a	1	0	0
1287.8134	1	81	n/a	n/a	1	0	0
1288.0134	1	81	n/a	n/a	1	0	0
1288.2134	1	81	n/a	n/a	1	0	0
1288.4134	1	81	n/a	n/a	1	0	0
1289.589	1	10	n/a	n/a	1	51	1
1290.6724	1	21	n/a	n/a	1	51	0
1291.8556	1	10	n/a	n/a	1	51	1
1293.0556	1	10	n/a	n/a	1	51	2
1294.3554	1	10	n/a	n/a	1	51	3
1295.6554	1	21	n/a	n/a	1	51	0
1296.6886	1	10	n/a	n/a	1	51	1
1297.7886	1	10	n/a	n/a	1	51	2
1298.9386	1	10	n/a	n/a	1	51	3
1300.0384	1	10	n/a	n/a	1	51	4
1301.1218	1	10	n/a	n/a	1	51	5
1302.3384	1	10	n/a	n/a	1	51	6
1303.4216	1	10	n/a	n/a	1	51	7
1304.5048	1	21	n/a	n/a	1	51	0
1305.8214	1	10	n/a	n/a	1	51	1
1307.138	1	21	n/a	n/a	1	51	0
1308.438	1	10	n/a	n/a	1	51	1
1309.6046	1	10	n/a	n/a	1	51	2
1310.8378	1	10	n/a	n/a	1	51	3
1312.071	1	21	n/a	n/a	1	51	0
1323.2752	1	82	n/a	n/a	1	0	0
1323.5632	1	82	n/a	n/a	1	0	0
1323.6842	1	82	n/a	n/a	1	0	0
1323.7282	1	82	n/a	n/a	1	0	0
1324.1252	1	82	n/a	n/a	1	0	0
1324.2752	1	82	n/a	n/a	1	0	0
1324.6262	1	82	n/a	n/a	1	0	0
1324.7292	1	82	n/a	n/a	1	0	0
1324.7582	1	82	n/a	n/a	1	0	0
1325.1772	1	82	n/a	n/a	1	0	0
1326.4036	1	10	n/a	n/a	1	50	1
1327.4702	1	10	n/a	n/a	1	50	2
1328.7868	1	10	n/a	n/a	1	50	3
1329.9534	1	10	n/a	n/a	1	50	4
1331.2032	1	10	n/a	n/a	1	50	5
1332.2698	1	10	n/a	n/a	1	50	6
1333.5864	1	10	n/a	n/a	1	50	7
1334.903	1	21	n/a	n/a	1	50	0
1336.1196	1	10	n/a	n/a	1	50	1
1337.1696	1	10	n/a	n/a	1	50	2
1338.3862	1	10	n/a	n/a	1	50	3
1339.6028	1	21	n/a	n/a	1	50	0
1340.636	1	10	n/a	n/a	1	50	1
1341.6694	1	21	n/a	n/a	1	50	0
1342.7526	1	10	n/a	n/a	1	50	1
1343.8192	1	10	n/a	n/a	1	50	2
1344.9692	1	10	n/a	n/a	1	50	3
1346.0024	1	10	n/a	n/a	1	50	4
1347.219	1	10	n/a	n/a	1	50	5
1348.4356	1	21	n/a	n/a	1	50	0
1349.4492	1	82	n/a	n/a	1	0	0
1349.5972	1	82	n/a	n/a	1	0	0
1349.9652	1	82	n/a	n/a	1	0	0
1350.1382	1	82	n/a	n/a	1	0	0
1350.1812	1	82	n/a	n/a	1	0	0
1350.4494	1	82	n/a	n/a	1	0	0
1350.5134	1	82	n/a	n/a	1	0	0
1350.8884	1	82	n/a	n/a	1	0	0
1351.1344	1	82	n/a	n/a	1	0	0
1351.2734	1	82	n/a	n/a	1	0	0
1352.6354	1	10	n/a	n/a	1	50	1
1353.9352	1	21	n/a	n/a	1	50	0
1355.2186	1	10	n/a	n/a	1	50	1
1356.3684	1	10	n/a	n/a	1	50	2
1357.5018	1	10	n/a	n/a	1	50	3
1358.635	1	10	n/a	n/a	1	50	4
1359.9016	1	10	n/a	n/a	1	50	5
1361.1682	1	21	n/a	n/a	1	50	0
1362.468	1	10	n/a	n/a	1	50	1
1363.5014	1	10	n/a	n/a	1	50	2
1364.7012	1	10	n/a	n/a	1	50	3
1365.9012	1	21	n/a	n/a	1	50	0
1367.0844	1	10	n/a	n/a	1	50	1
1368.1678	1	10	n/a	n/a	1	50	2
1369.4344	1	10	n/a	n/a	1	50	3
1370.701	1	21	n/a	n/a	1	50	0
1371.8508	1	10	n/a	n/a	1	50	1
1372.9674	1	10	n/a	n/a	1	50	2
1374.184	1	10	n/a	n/a	1	50	3
1375.4006	1	21	n/a	n/a	1	50	0
1376.4954	1	82	n/a	n/a	1	0	0
1376.5734	1	82	n/a	n/a	1	0	0
1376.6814	1	82	n/a	n/a	1	0	0
1376.8804	1	82	n/a	n/a	1	0	0
1377.2364	1	82	n/a	n/a	1	0	0
1377.4954	1	82	n/a	n/a	1	0	0
1377.9134	1	82	n/a	n/a	1	0	0
1378.0404	1	82	n/a	n/a	1	0	0
1378.2214	1	82	n/a	n/a	1	0	0
1378.2834	1	82	n/a	n/a	1	0	0
1379.6838	1	10	n/a	n/a	1	50	1
1380.7504	1	10	n/a	n/a	1	50	2
1382.0336	1	10	n/a	n/a	1	50	3
1383.2668	1	10	n/a	n/a	1	50	4
1384.5	1	10	n/a	n/a	1	50	5
1385.7166	1	21	n/a	n/a	1	50	0
1386.8832	1	10	n/a	n/a	1	50	1
1388.0332	1	10	n/a	n/a	1	50	2
1389.2498	1	10	n/a	n/a	1	50	3
1390.4664	1	21	n/a	n/a	1	50	0
1391.5496	1	10	n/a	n/a	1	50	1
1392.633	1	21	n/a	n/a	1	50	0
1393.7496	1	10	n/a	n/a	1	50	1
1394.9328	1	10	n/a	n/a	1	50	2
1395.9994	1	10	n/a	n/a	1	50	3
1397.066	1	21	n/a	n/a	1	50	0
1398.1326	1	10	n/a	n/a	1	50	1
1399.2658	1	10	n/a	n/a	1	50	2
1400.4324	1	10	n/a	n/a	1	50	3
1401.599	1	21	n/a	n/a	1	50	0
1402.4938	1	82	n/a	n/a	1	0	0
1402.5228	1	82	n/a	n/a	1	0	0
1402.5778	1	82	n/a	n/a	1	0	0
1402.6868	1	82	n/a	n/a	1	0	0
1402.9458	1	82	n/a	n/a	1	0	0
1403.4938	1	82	n/a	n/a	1	0	0
1403.6388	1	82	n/a	n/a	1	0	0
1403.9138	1	82	n/a	n/a	1	0	0
1404.2808	1	82	n/a	n/a	1	0	0
1404.4548	1	82	n/a	n/a	1	0	0
1405.5488	1	10	n/a	n/a	1	50	1
1406.7654	1	10	n/a	n/a	1	50	2
1407.7988	1	10	n/a	n/a	1	50	3
1408.9154	1	10	n/a	n/a	1	50	4
1410.1986	1	10	n/a	n/a	1	50	5
1411.4318	1	10	n/a	n/a	1	50	6
1412.4652	1	10	n/a	n/a	1	50	7
1413.4984	1	21	n/a	n/a	1	50	0
1414.5816	1	10	n/a	n/a	1	50	1
1415.8982	1	10	n/a	n/a	1	50	2
1416.9316	1	10	n/a	n/a	1	50	3
1418.1314	1	10	n/a	n/a	1	50	4
1419.398	1	10	n/a	n/a	1	50	5
1420.6312	1	10	n/a	n/a	1	50	6
1421.7478	1	10	n/a	n/a	1	50	7
1422.8644	1	21	n/a	n/a	1	50	0
1424.1144	1	10	n/a	n/a	1	50	1
1425.3644	1	21	n/a	n/a	1	50	0
1426.4476	1	10	n/a	n/a	1	50	1
1427.6642	1	10	n/a	n/a	1	50	2
1428.5446	1	82	n/a	n/a	1	0	0
1428.7126	1	82	n/a	n/a	1	0	0
1428.7446	1	82	n/a	n/a	1	0	0
1428.8296	1	82	n/a	n/a	1	0	0
1429.1876	1	82	n/a	n/a	1	0	0
1429.5446	1	82	n/a	n/a	1	0	0
1429.9286	1	82	n/a	n/a	1	0	0
1429.9586	1	82	n/a	n/a	1	0	0
1430.0476	1	82	n/a	n/a	1	0	0
1430.3276	1	82	n/a	n/a	1	0	0
1431.714	1	10	n/a	n/a	1	50	1
1432.9972	1	21	n/a	n/a	1	50	0
1434.2638	1	10	n/a	n/a	1	50	1
1435.497	1	10	n/a	n/a	1	50	2
1436.797	1	10	n/a	n/a	1	50	3
1438.097	1	10	n/a	n/a	1	50	4
1439.3136	1	10	n/a	n/a	1	50	5
1440.5468	1	10	n/a	n/a	1	50	6
1441.8466	1	10	n/a	n/a	1	50	7
1443.1466	1	21	n/a	n/a	1	50	0
1444.1798	1	10	n/a	n/a	1	50	1
1445.3298	1	10	n/a	n/a	1	50	2
1446.513	1	10	n/a	n/a	1	50	3
1447.7964	1	10	n/a	n/a	1	50	4
1449.063	1	10	n/a	n/a	1	50	5
1450.3462	1	10	n/a	n/a	1	50	6
1451.4962	1	10	n/a	n/a	1	50	7
1452.646	1	21	n/a	n/a	1	50	0
1453.9126	1	10	n/a	n/a	1	50	1
1455.2292	1	10	n/a	n/a	1	50	2
1480.9144	1	82	n/a	n/a	1	0	0
1481.0854	1	82	n/a	n/a	1	0	0
1481.1194	1	82	n/a	n/a	1	0	0
1481.3514	1	82	n/a	n/a	1	0	0
1481.4434	1	82	n/a	n/a	1	0	0
1481.9144	1	82	n/a	n/a	1	0	0
1481.9774	1	82	n/a	n/a	1	0	0
1482.3744	1	82	n/a	n/a	1	0	0
1482.4924	1	82	n/a	n/a	1	0	0
1482.7464	1	82	n/a	n/a	1	0	0
1483.8942	1	10	n/a	n/a	1	52	1
1485.1274	1	10	n/a	n/a	1	52	2
1486.294	1	10	n/a	n/a	1	52	3
1487.444	1	10	n/a	n/a	1	52	4
1488.594	1	10	n/a	n/a	1	52	5
1489.6272	1	10	n/a	n/a	1	52	6
1490.9272	1	10	n/a	n/a	1	52	7
1492.227	1	21	n/a	n/a	1	52	0
1493.3936	1	10	n/a	n/a	1	52	1
1494.5602	1	21	n/a	n/a	1	52	0
1495.8268	1	10	n/a	n/a	1	52	1
1497.0934	1	21	n/a	n/a	1	52	0
1498.26	1	10	n/a	n/a	1	52	1
1499.3266	1	10	n/a	n/a	1	52	2
1500.4098	1	10	n/a	n/a	1	52	3
1501.6432	1	10	n/a	n/a	1	52	4
1502.893	1	10	n/a	n/a	1	52	5
1504.143	1	21	n/a	n/a	1	52	0
1505.4262	1	10	n/a	n/a	1	52	1
1506.4596	1	10	n/a	n/a	1	52	2
1507.294	1	82	n/a	n/a	1	0	0
1507.347	1	82	n/a	n/a	1	0	0
1507.635	1	82	n/a	n/a	1	0	0
1507.993	1	82	n/a	n/a	1	0	0
1508.113	1	82	n/a	n/a	1	0	0
1508.294	1	82	n/a	n/a	1	0	0
1508.672	1	82	n/a	n/a	1	0	0
1508.954	1	82	n/a	n/a	1	0	0
1509.04	1	82	n/a	n/a	1	0	0
1509.212	1	82	n/a	n/a	1	0	0
1510.476	1	10	n/a	n/a	1	52	1
1511.6092	1	10	n/a	n/a	1	52	2
1512.8092	1	10	n/a	n/a	1	52	3
1514.009	1	21	n/a	n/a	1	52	0
1515.259	1	10	n/a	n/a	1	52	1
1516.5756	1	10	n/a	n/a	1	52	2
1517.6756	1	10	n/a	n/a	1	52	3
1518.8422	1	10	n/a	n/a	1	52	4
1520.1254	1	10	n/a	n/a	1	52	5
1521.3086	1	10	n/a	n/a	1	52	6
1522.4418	1	10	n/a	n/a	1	52	7
1523.5752	1	21	n/a	n/a	1	52	0
1524.7918	1	10	n/a	n/a	1	52	1
1526.025	1	10	n/a	n/a	1	52	2
1527.175	1	10	n/a	n/a	1	52	3
1528.3248	1	21	n/a	n/a	1	52	0
1529.5582	1	10	n/a	n/a	1	52	1
1530.7914	1	10	n/a	n/a	1	52	2
1531.858	1	10	n/a	n/a	1	52	3
1533.0246	1	10	n/a	n/a	1	52	4
1533.9142	1	82	n/a	n/a	1	0	0
1533.9972	1	82	n/a	n/a	1	0	0
1534.4192	1	82	n/a	n/a	1	0	0
1534.5632	1	82	n/a	n/a	1	0	0
1534.6062	1	82	n/a	n/a	1	0	0
1534.9142	1	82	n/a	n/a	1	0	0
1535.3302	1	82	n/a	n/a	1	0	0
1535.6762	1	82	n/a	n/a	1	0	0
1535.7032	1	82	n/a	n/a	1	0	0
1535.8582	1	82	n/a	n/a	1	0	0
1536.9576	1	10	n/a	n/a	1	52	1
1538.191	1	10	n/a	n/a	1	52	2
1539.4242	1	10	n/a	n/a	1	52	3
1540.6574	1	21	n/a	n/a	1	52	0
1541.7908	1	10	n/a	n/a	1	52	1
1542.874	1	10	n/a	n/a	1	52	2
1543.9406	1	10	n/a	n/a	1	52	3
1545.0572	1	10	n/a	n/a	1	52	4
1546.1572	1	10	n/a	n/a	1	52	5
1547.257	1	21	n/a	n/a	1	52	0
1548.5736	1	10	n/a	n/a	1	52	1
1549.8902	1	21	n/a	n/a	1	52	0
1551.0402	1	10	n/a	n/a	1	52	1
1552.1902	1	21	n/a	n/a	1	52	0
1553.4068	1	10	n/a	n/a	1	52	1
1554.6234	1	21	n/a	n/a	1	52	0
1555.89	1	10	n/a	n/a	1	52	1
1557.1564	1	21	n/a	n/a	1	52	0
1558.2898	1	10	n/a	n/a	1	52	1
1559.5396	1	10	n/a	n/a	1	52	2
1560.3552	1	82	n/a	n/a	1	0	0
1560.6912	1	82	n/a	n/a	1	0	0
1560.8572	1	82	n/a	n/a	1	0	0
1561.1002	1	82	n/a	n/a	1	0	0
1561.2322	1	82	n/a	n/a	1	0	0
1561.3552	1	82	n/a	n/a	1	0	0
1561.7062	1	82	n/a	n/a	1	0	0
1561.8842	1	82	n/a	n/a	1	0	0
1562.1402	1	82	n/a	n/a	1	0	0
1562.1912	1	82	n/a	n/a	1	0	0
1563.3228	1	10	n/a	n/a	1	52	1
1564.5228	1	10	n/a	n/a	1	52	2
1565.8394	1	10	n/a	n/a	1	52	3
1567.0892	1	10	n/a	n/a	1	52	4
1568.3058	1	10	n/a	n/a	1	52	5
1569.5224	1	21	n/a	n/a	1	52	0
1570.789	1	10	n/a	n/a	1	52	1
1571.9056	1	10	n/a	n/a	1	52	2
1572.9888	1	10	n/a	n/a	1	52	3
1574.0722	1	21	n/a	n/a	1	52	0
1575.272	1	10	n/a	n/a	1	52	1
1576.472	1	21	n/a	n/a	1	52	0
1577.6886	1	10	n/a	n/a	1	52	1
1578.9218	1	10	n/a	n/a	1	52	2
1580.1718	1	10	n/a	n/a	1	52	3
1581.3884	1	10	n/a	n/a	1	52	4
1582.605	1	10	n/a	n/a	1	52	5
1583.8216	1	21	n/a	n/a	1	52	0
1585.1382	1	10	n/a	n/a	1	52	1
1586.4548	1	21	n/a	n/a	1	52	0
1587.3494	1	82	n/a	n/a	1	0	0
1587.6234	1	82	n/a	n/a	1	0	0
1588.0294	1	82	n/a	n/a	1	0	0
1588.1624	1	82	n/a	n/a	1	0	0
1588.2204	1	82	n/a	n/a	1	0	0
1588.3496	1	82	n/a	n/a	1	0	0
1588.7096	1	82	n/a	n/a	1	0	0
1588.7436	1	82	n/a	n/a	1	0	0
1588.9386	1	82	n/a	n/a	1	0	0
1589.0246	1	82	n/a	n/a	1	0	0
1590.3712	1	10	n/a	n/a	1	52	1
1591.4044	1	10	n/a	n/a	1	52	2
1592.5878	1	10	n/a	n/a	1	52	3
1593.771	1	21	n/a	n/a	1	52	0
1594.8376	1	10	n/a	n/a	1	52	1
1595.9042	1	21	n/a	n/a	1	52	0
1597.0874	1	10	n/a	n/a	1	52	1
1598.1374	1	10	n/a	n/a	1	52	2
1599.3874	1	10	n/a	n/a	1	52	3
1600.454	1	10	n/a	n/a	1	52	4
1601.6038	1	10	n/a	n/a	1	52	5
1602.7538	1	21	n/a	n/a	1	52	0
1604.037	1	10	n/a	n/a	1	52	1
1605.3202	1	21	n/a	n/a	1	52	0
1606.4536	1	10	n/a	n/a	1	52	1
1607.6702	1	10	n/a	n/a	1	52	2
1608.7868	1	10	n/a	n/a	1	52	3
1609.9034	1	10	n/a	n/a	1	52	4
1611.0532	1	10	n/a	n/a	1	52	5
1612.3198	1	10	n/a	n/a	1	52	6
1670.4404	1	81	n/a	n/a	1	0	0
1670.6404	1	81	n/a	n/a	1	0	0
1670.8404	1	81	n/a	n/a	1	0	0
1671.0404	1	81	n/a	n/a	1	0	0
1671.2404	1	81	n/a	n/a	1	0	0
1671.4406	1	81	n/a	n/a	1	0	0
1671.6406	1	81	n/a	n/a	1	0	0
1671.8406	1	81	n/a	n/a	1	0	0
1672.0406	1	81	n/a	n/a	1	0	0
1672.2406	1	81	n/a	n/a	1	0	0
1673.5996	1	10	n/a	n/a	1	51	1
1674.6828	1	10	n/a	n/a	1	51	2
1675.9662	1	10	n/a	n/a	1	51	3
1677.2494	1	21	n/a	n/a	1	51	0
1678.4492	1	10	n/a	n/a	1	51	1
1679.6658	1	10	n/a	n/a	1	51	2
1680.7492	1	10	n/a	n/a	1	51	3
1681.799	1	10	n/a	n/a	1	51	4
1683.049	1	10	n/a	n/a	1	51	5
1684.1656	1	10	n/a	n/a	1	51	6
1685.4488	1	10	n/a	n/a	1	51	7
1686.7322	1	21	n/a	n/a	1	51	0
1687.8154	1	10	n/a	n/a	1	51	1
1688.8986	1	21	n/a	n/a	1	51	0
1690.1652	1	10	n/a	n/a	1	51	1
1691.2486	1	10	n/a	n/a	1	51	2
1692.5484	1	10	n/a	n/a	1	51	3
1693.8484	1	21	n/a	n/a	1	51	0
1694.9484	1	10	n/a	n/a	1	51	1
1696.0482	1	21	n/a	n/a	1	51	0
1697.12	1	81	n/a	n/a	1	0	0
1697.32	1	81	n/a	n/a	1	0	0
1697.52	1	81	n/a	n/a	1	0	0
1697.72	1	81	n/a	n/a	1	0	0
1697.92	1	81	n/a	n/a	1	0	0
1698.12	1	81	n/a	n/a	1	0	0
1698.32	1	81	n/a	n/a	1	0	0
1698.52	1	81	n/a	n/a	1	0	0
1698.72	1	81	n/a	n/a	1	0	0
1698.92	1	81	n/a	n/a	1	0	0
1700.1146	1	10	n/a	n/a	1	51	1
1701.4146	1	10	n/a	n/a	1	51	2
1702.4978	1	10	n/a	n/a	1	51	3
1703.5812	1	21	n/a	n/a	1	51	0
1704.8478	1	10	n/a	n/a	1	51	1
1706.0644	1	10	n/a	n/a	1	51	2
1707.331	1	10	n/a	n/a	1	51	3
1708.4308	1	10	n/a	n/a	1	51	4
1709.6808	1	10	n/a	n/a	1	51	5
1710.9306	1	21	n/a	n/a	1	51	0
1712.114	1	10	n/a	n/a	1	51	1
1713.3638	1	10	n/a	n/a	1	51	2
1714.6638	1	10	n/a	n/a	1	51	3
1715.9804	1	10	n/a	n/a	1	51	4
1717.1136	1	10	n/a	n/a	1	51	5
1718.2636	1	10	n/a	n/a	1	51	6
1719.3802	1	10	n/a	n/a	1	51	7
1720.4968	1	21	n/a	n/a	1	51	0
1721.78	1	10	n/a	n/a	1	51	1
1722.8966	1	10	n/a	n/a	1	51	2
1723.9974	1	81	n/a	n/a	1	0	0
1724.1974	1	81	n/a	n/a	1	0	0
1724.3974	1	81	n/a	n/a	1	0	0
1724.5974	1	81	n/a	n/a	1	0	0
1724.7974	1	81	n/a	n/a	1	0	0
1724.9976	1	81	n/a	n/a	1	0	0
1725.1976	1	81	n/a	n/a	1	0	0
1725.3976	1	81	n/a	n/a	1	0	0
1725.5976	1	81	n/a	n/a	1	0	0
1725.7976	1	81	n/a	n/a	1	0	0
1727.1464	1	10	n/a	n/a	1	51	1
1728.2464	1	10	n/a	n/a	1	51	2
1729.4462	1	10	n/a	n/a	1	51	3
1730.7628	1	10	n/a	n/a	1	51	4
1731.7962	1	10	n/a	n/a	1	51	5
1732.8294	1	21	n/a	n/a	1	51	0
1733.9626	1	10	n/a	n/a	1	51	1
1735.0626	1	10	n/a	n/a	1	51	2
1736.1626	1	10	n/a	n/a	1	51	3
1737.3458	1	10	n/a	n/a	1	51	4
1738.529	1	10	n/a	n/a	1	51	5
1739.7124	1	21	n/a	n/a	1	51	0
1740.7956	1	10	n/a	n/a	1	51	1
1741.8622	1	10	n/a	n/a	1	51	2
1743.1788	1	10	n/a	n/a	1	51	3
1744.362	1	10	n/a	n/a	1	51	4
1745.5452	1	10	n/a	n/a	1	51	5
1746.6952	1	10	n/a	n/a	1	51	6
1747.7952	1	10	n/a	n/a	1	51	7
1748.895	1	21	n/a	n/a	1	51	0
1749.7378	1	81	n/a	n/a	1	0	0
1749.9378	1	81	n/a	n/a	1	0	0
1750.1378	1	81	n/a	n/a	1	0	0
1750.3378	1	81	n/a	n/a	1	0	0
1750.5378	1	81	n/a	n/a	1	0	0
1750.7378	1	81	n/a	n/a	1	0	0
1750.9378	1	81	n/a	n/a	1	0	0
1751.1378	1	81	n/a	n/a	1	0	0
1751.3378	1	81	n/a	n/a	1	0	0
1751.5378	1	81	n/a	n/a	1	0	0
1752.9448	1	10	n/a	n/a	1	51	1
1754.1782	1	10	n/a	n/a	1	51	2
1755.278	1	10	n/a	n/a	1	51	3
1756.578	1	10	n/a	n/a	1	51	4
1757.628	1	10	n/a	n/a	1	51	5
1758.9278	1	10	n/a	n/a	1	51	6
1760.1612	1	10	n/a	n/a	1	51	7
1761.3944	1	21	n/a	n/a	1	51	0
1762.5442	1	10	n/a	n/a	1	51	1
1763.7942	1	10	n/a	n/a	1	51	2
1764.8942	1	10	n/a	n/a	1	51	3
1765.994	1	21	n/a	n/a	1	51	0
1767.0274	1	10	n/a	n/a	1	51	1
1768.2272	1	10	n/a	n/a	1	51	2
1769.3272	1	10	n/a	n/a	1	51	3
1770.4272	1	21	n/a	n/a	1	51	0
1771.5104	1	10	n/a	n/a	1	51	1
1772.577	1	10	n/a	n/a	1	51	2
1773.677	1	10	n/a	n/a	1	51	3
1774.8102	1	10	n/a	n/a	1	51	4
1775.7008	1	81	n/a	n/a	1	0	0
1775.9008	1	81	n/a	n/a	1	0	0
1776.1008	1	81	n/a	n/a	1	0	0
1776.3008	1	81	n/a	n/a	1	0	0
1776.5008	1	81	n/a	n/a	1	0	0
1776.7008	1	81	n/a	n/a	1	0	0
1776.9008	1	81	n/a	n/a	1	0	0
1777.1008	1	81	n/a	n/a	1	0	0
1777.3008	1	81	n/a	n/a	1	0	0
1777.5008	1	81	n/a	n/a	1	0	0
1778.7266	1	10	n/a	n/a	1	51	1
1779.86	1	21	n/a	n/a	1	51	0
1781.1766	1	10	n/a	n/a	1	51	1
1782.3264	1	10	n/a	n/a	1	51	2
1783.6264	1	10	n/a	n/a	1	51	3
1784.9262	1	21	n/a	n/a	1	51	0
1786.1096	1	10	n/a	n/a	1	51	1
1787.1762	1	10	n/a	n/a	1	51	2
1788.2928	1	10	n/a	n/a	1	51	3
1789.3926	1	10	n/a	n/a	1	51	4
1790.526	1	10	n/a	n/a	1	51	5
1791.6592	1	21	n/a	n/a	1	51	0
1792.8258	1	10	n/a	n/a	1	51	1
1793.9924	1	21	n/a	n/a	1	51	0
1795.1756	1	10	n/a	n/a	1	51	1
1796.4422	1	10	n/a	n/a	1	51	2
1797.5756	1	10	n/a	n/a	1	51	3
1798.7088	1	21	n/a	n/a	1	51	0
1799.842	1	10	n/a	n/a	1	51	1
1800.992	1	21	n/a	n/a	1	51	0
1812.5356	1	81	n/a	n/a	1	0	0
1812.7356	1	81	n/a	n/a	1	0	0
1812.9356	1	81	n/a	n/a	1	0	0
1813.1356	1	81	n/a	n/a	1	0	0
1813.3356	1	81	n/a	n/a	1	0	0
1813.5358	1	81	n/a	n/a	1	0	0
1813.7358	1	81	n/a	n/a	1	0	0
1813.9358	1	81	n/a	n/a	1	0	0
1814.1358	1	81	n/a	n/a	1	0	0
1814.3358	1	81	n/a	n/a	1	0	0
1815.6912	1	10	n/a	n/a	1	50	1
1816.791	1	10	n/a	n/a	1	50	2
1817.941	1	10	n/a	n/a	1	50	3
1818.9742	1	10	n/a	n/a	1	50	4
1820.2242	1	10	n/a	n/a	1	50	5
1821.4742	1	21	n/a	n/a	1	50	0
1822.6074	1	10	n/a	n/a	1	50	1
1823.7574	1	10	n/a	n/a	1	50	2
1824.9072	1	10	n/a	n/a	1	50	3
1826.0738	1	10	n/a	n/a	1	50	4
1827.3072	1	10	n/a	n/a	1	50	5
1828.4238	1	10	n/a	n/a	1	50	6
1829.5736	1	10	n/a	n/a	1	50	7
1830.7236	1	21	n/a	n/a	1	50	0
1831.9068	1	10	n/a	n/a	1	50	1
1833.2068	1	10	n/a	n/a	1	50	2
1834.24	1	10	n/a	n/a	1	50	3
1835.39	1	10	n/a	n/a	1	50	4
1836.5566	1	10	n/a	n/a	1	50	5
1837.6898	1	10	n/a	n/a	1	50	6
1838.7784	1	81	n/a	n/a	1	0	0
1838.9784	1	81	n/a	n/a	1	0	0
1839.1784	1	81	n/a	n/a	1	0	0
1839.3784	1	81	n/a	n/a	1	0	0
1839.5784	1	81	n/a	n/a	1	0	0
1839.7784	1	81	n/a	n/a	1	0	0
1839.9784	1	81	n/a	n/a	1	0	0
1840.1784	1	81	n/a	n/a	1	0	0
1840.3784	1	81	n/a	n/a	1	0	0
1840.5784	1	81	n/a	n/a	1	0	0
1841.7562	1	10	n/a	n/a	1	50	1
1842.9562	1	10	n/a	n/a	1	50	2
1844.1394	1	10	n/a	n/a	1	50	3
1845.3894	1	10	n/a	n/a	1	50	4
1846.556	1	10	n/a	n/a	1	50	5
1847.7226	1	21	n/a	n/a	1	50	0
1848.9392	1	10	n/a	n/a	1	50	1
1850.1558	1	10	n/a	n/a	1	50	2
1851.3224	1	10	n/a	n/a	1	50	3
1852.5556	1	10	n/a	n/a	1	50	4
1853.8722	1	10	n/a	n/a	1	50	5
1855.1888	1	21	n/a	n/a	1	50	0
1856.2554	1	10	n/a	n/a	1	50	1
1857.322	1	21	n/a	n/a	1	50	0
1858.5552	1	10	n/a	n/a	1	50	1
1859.7718	1	10	n/a	n/a	1	50	2
1861.0384	1	10	n/a	n/a	1	50	3
1862.305	1	21	n/a	n/a	1	50	0
1863.4716	1	10	n/a	n/a	1	50	1
1864.7382	1	10	n/a	n/a	1	50	2
1865.7026	1	81	n/a	n/a	1	0	0
1865.9026	1	81	n/a	n/a	1	0	0
1866.1026	1	81	n/a	n/a	1	0	0
1866.3026	1	81	n/a	n/a	1	0	0
1866.5026	1	81	n/a	n/a	1	0	0
1866.7026	1	81	n/a	n/a	1	0	0
1866.9026	1	81	n/a	n/a	1	0	0
1867.1026	1	81	n/a	n/a	1	0	0
1867.3026	1	81	n/a	n/a	1	0	0
1867.5026	1	81	n/a	n/a	1	0	0
1868.638	1	10	n/a	n/a	1	50	1
1869.688	1	21	n/a	n/a	1	50	0
1870.8878	1	10	n/a	n/a	1	50	1
1872.1544	1	10	n/a	n/a	1	50	2
1873.321	1	10	n/a	n/a	1	50	3
1874.4876	1	21	n/a	n/a	1	50	0
1875.571	1	10	n/a	n/a	1	50	1
1876.7042	1	10	n/a	n/a	1	50	2
1877.9708	1	10	n/a	n/a	1	50	3
1879.0874	1	10	n/a	n/a	1	50	4
1880.1706	1	10	n/a	n/a	1	50	5
1881.254	1	21	n/a	n/a	1	50	0
1882.5372	1	10	n/a	n/a	1	50	1
1883.7538	1	10	n/a	n/a	1	50	2
1885.037	1	10	n/a	n/a	1	50	3
1886.3202	1	21	n/a	n/a	1	50	0
1887.4036	1	10	n/a	n/a	1	50	1
1888.6202	1	10	n/a	n/a	1	50	2
1889.77	1	10	n/a	n/a	1	50	3
1891.0866	1	10	n/a	n/a	1	50	4
1891.993	1	81	n/a	n/a	1	0	0
1892.193	1	81	n/a	n/a	1	0	0
1892.393	1	81	n/a	n/a	1	0	0
1892.593	1	81	n/a	n/a	1	0	0
1892.793	1	81	n/a	n/a	1	0	0
1892.993	1	81	n/a	n/a	1	0	0
1893.193	1	81	n/a	n/a	1	0	0
1893.393	1	81	n/a	n/a	1	0	0
1893.593	1	81	n/a	n/a	1	0	0
1893.793	1	81	n/a	n/a	1	0	0
1895.1364	1	10	n/a	n/a	1	50	1
1896.2864	1	10	n/a	n/a	1	50	2
1897.3362	1	10	n/a	n/a	1	50	3
1898.4196	1	10	n/a	n/a	1	50	4
1899.5028	1	10	n/a	n/a	1	50	5
1900.586	1	21	n/a	n/a	1	50	0
1901.6526	1	10	n/a	n/a	1	50	1
1902.8026	1	10	n/a	n/a	1	50	2
1904.0358	1	10	n/a	n/a	1	50	3
1905.1192	1	10	n/a	n/a	1	50	4
1906.219	1	10	n/a	n/a	1	50	5
1907.319	1	21	n/a	n/a	1	50	0
1908.5356	1	10	n/a	n/a	1	50	1
1909.7522	1	21	n/a	n/a	1	50	0
1910.9354	1	10	n/a	n/a	1	50	1
1912.102	1	10	n/a	n/a	1	50	2
1913.302	1	10	n/a	n/a	1	50	3
1914.452	1	10	n/a	n/a	1	50	4
1915.6352	1	10	n/a	n/a	1	50	5
1916.8184	1	21	n/a	n/a	1	50	0
1917.6362	1	81	n/a	n/a	1	0	0
1917.8362	1	81	n/a	n/a	1	0	0
1918.0362	1	81	n/a	n/a	1	0	0
1918.2362	1	81	n/a	n/a	1	0	0
1918.4362	1	81	n/a	n/a	1	0	0
1918.6362	1	81	n/a	n/a	1	0	0
1918.8362	1	81	n/a	n/a	1	0	0
1919.0362	1	81	n/a	n/a	1	0	0
1919.2362	1	81	n/a	n/a	1	0	0
1919.4362	1	81	n/a	n/a	1	0	0
1920.5848	1	10	n/a	n/a	1	50	1
1921.8514	1	10	n/a	n/a	1	50	2
1922.8848	1	10	n/a	n/a	1	50	3
1923.918	1	21	n/a	n/a	1	50	0
1925.1512	1	10	n/a	n/a	1	50	1
1926.3678	1	10	n/a	n/a	1	50	2
1927.5178	1	10	n/a	n/a	1	50	3
1928.5678	1	10	n/a	n/a	1	50	4
1929.601	1	10	n/a	n/a	1	50	5
1930.7842	1	10	n/a	n/a	1	50	6
1932.1008	1	10	n/a	n/a	1	50	7
1933.4174	1	21	n/a	n/a	1	50	0
1934.6174	1	10	n/a	n/a	1	50	1
1935.9006	1	10	n/a	n/a	1	50	2
1937.1172	1	10	n/a	n/a	1	50	3
1938.3338	1	21	n/a	n/a	1	50	0
1939.4004	1	10	n/a	n/a	1	50	1
1940.567	1	10	n/a	n/a	1	50	2
1941.7836	1	10	n/a	n/a	1	50	3
1943.0002	1	21	n/a	n/a	1	50	0
1962.5662	1	82	n/a	n/a	1	0	0
1962.7222	1	82	n/a	n/a	1	0	0
1962.7912	1	82	n/a	n/a	1	0	0
1963.0352	1	82	n/a	n/a	1	0	0
1963.3952	1	82	n/a	n/a	1	0	0
1963.5662	1	82	n/a	n/a	1	0	0
1963.6862	1	82	n/a	n/a	1	0	0
1964.0322	1	82	n/a	n/a	1	0	0
1964.3052	1	82	n/a	n/a	1	0	0
1964.3602	1	82	n/a	n/a	1	0	0
1965.5822	1	10	n/a	n/a	1	52	1
1966.6988	1	21	n/a	n/a	1	52	0
1967.8988	1	10	n/a	n/a	1	52	1
1968.9986	1	10	n/a	n/a	1	52	2
1970.282	1	10	n/a	n/a	1	52	3
1971.5486	1	21	n/a	n/a	1	52	0
1972.7984	1	10	n/a	n/a	1	52	1
1974.0318	1	10	n/a	n/a	1	52	2
1975.1316	1	10	n/a	n/a	1	52	3
1976.3982	1	10	n/a	n/a	1	52	4
1977.6816	1	10	n/a	n/a	1	52	5
1978.7648	1	10	n/a	n/a	1	52	6
1980.0814	1	10	n/a	n/a	1	52	7
1981.398	1	21	n/a	n/a	1	52	0
1982.7146	1	10	n/a	n/a	1	52	1
1983.9644	1	10	n/a	n/a	1	52	2
1985.2144	1	10	n/a	n/a	1	52	3
1986.331	1	10	n/a	n/a	1	52	4
1987.4142	1	10	n/a	n/a	1	52	5
1988.4976	1	21	n/a	n/a	1	52	0
1989.3332	1	82	n/a	n/a	1	0	0
1989.4032	1	82	n/a	n/a	1	0	0
1989.5232	1	82	n/a	n/a	1	0	0
1989.7842	1	82	n/a	n/a	1	0	0
1989.9532	1	82	n/a	n/a	1	0	0
1990.3332	1	82	n/a	n/a	1	0	0
1990.4432	1	82	n/a	n/a	1	0	0
1990.5762	1	82	n/a	n/a	1	0	0
1990.7992	1	82	n/a	n/a	1	0	0
1991.2262	1	82	n/a	n/a	1	0	0
1992.3806	1	10	n/a	n/a	1	52	1
1993.6472	1	10	n/a	n/a	1	52	2
1994.9138	1	10	n/a	n/a	1	52	3
1996.1804	1	21	n/a	n/a	1	52	0
1997.2136	1	10	n/a	n/a	1	52	1
1998.3136	1	10	n/a	n/a	1	52	2
1999.3968	1	10	n/a	n/a	1	52	3
2000.4802	1	21	n/a	n/a	1	52	0
2001.78	1	10	n/a	n/a	1	52	1
2003.08	1	21	n/a	n/a	1	52	0
2004.33	1	10	n/a	n/a	1	52	1
2005.3798	1	10	n/a	n/a	1	52	2
2006.6132	1	10	n/a	n/a	1	52	3
2007.7298	1	10	n/a	n/a	1	52	4
2008.9796	1	10	n/a	n/a	1	52	5
2010.163	1	10	n/a	n/a	1	52	6
2011.3962	1	10	n/a	n/a	1	52	7
2012.6294	1	21	n/a	n/a	1	52	0
2013.946	1	10	n/a	n/a	1	52	1
2015.046	1	10	n/a	n/a	1	52	2
2016.0274	1	82	n/a	n/a	1	0	0
2016.1604	1	82	n/a	n/a	1	0	0
2016.4804	1	82	n/a	n/a	1	0	0
2016.7184	1	82	n/a	n/a	1	0	0
2016.7544	1	82	n/a	n/a	1	0	0
2017.0274	1	82	n/a	n/a	1	0	0
2017.1144	1	82	n/a	n/a	1	0	0
2017.4474	1	82	n/a	n/a	1	0	0
2017.5674	1	82	n/a	n/a	1	0	0
2017.6134	1	82	n/a	n/a	1	0	0
2019.1124	1	10	n/a	n/a	1	52	1
2020.2124	1	10	n/a	n/a	1	52	2
2021.2956	1	10	n/a	n/a	1	52	3
2022.3788	1	21	n/a	n/a	1	52	0
2023.5622	1	10	n/a	n/a	1	52	1
2024.6454	1	10	n/a	n/a	1	52	2
2025.6786	1	10	n/a	n/a	1	52	3
2026.9952	1	10	n/a	n/a	1	52	4
2028.1618	1	10	n/a	n/a	1	52	5
2029.4284	1	10	n/a	n/a	1	52	6
2030.745	1	10	n/a	n/a	1	52	7
2032.0616	1	21	n/a	n/a	1	52	0
2033.2282	1	10	n/a	n/a	1	52	1
2034.3448	1	10	n/a	n/a	1	52	2
2035.5114	1	10	n/a	n/a	1	52	3
2036.678	1	21	n/a	n/a	1	52	0
2037.778	1	10	n/a	n/a	1	52	1
2038.8112	1	10	n/a	n/a	1	52	2
2040.0112	1	10	n/a	n/a	1	52	3
2041.111	1	10	n/a	n/a	1	52	4
2042.0996	1	82	n/a	n/a	1	0	0
2042.2086	1	82	n/a	n/a	1	0	0
2042.2386	1	82	n/a	n/a	1	0	0
2042.6316	1	82	n/a	n/a	1	0	0
2042.7986	1	82	n/a	n/a	1	0	0
2043.0996	1	82	n/a	n/a	1	0	0
2043.4496	1	82	n/a	n/a	1	0	0
2043.4886	1	82	n/a	n/a	1	0	0
2043.5886	1	82	n/a	n/a	1	0	0
2043.8276	1	82	n/a	n/a	1	0	0
2045.1774	1	10	n/a	n/a	1	52	1
2046.494	1	10	n/a	n/a	1	52	2
2047.744	1	10	n/a	n/a	1	52	3
2048.9106	1	10	n/a	n/a	1	52	4
2050.0438	1	10	n/a	n/a	1	52	5
2051.1772	1	21	n/a	n/a	1	52	0
2052.2604	1	10	n/a	n/a	1	52	1
2053.4104	1	10	n/a	n/a	1	52	2
2054.727	1	10	n/a	n/a	1	52	3
2056.0436	1	21	n/a	n/a	1	52	0
2057.3602	1	10	n/a	n/a	1	52	1
2058.5934	1	10	n/a	n/a	1	52	2
2059.6932	1	10	n/a	n/a	1	52	3
2060.7932	1	21	n/a	n/a	1	52	0
2062.1098	1	10	n/a	n/a	1	52	1
2063.4264	1	21	n/a	n/a	1	52	0
2064.6264	1	10	n/a	n/a	1	52	1
2065.693	1	10	n/a	n/a	1	52	2
2066.7428	1	10	n/a	n/a	1	52	3
2068.0594	1	10	n/a	n/a	1	52	4
2068.788	1	82	n/a	n/a	1	0	0
2068.867	1	82	n/a	n/a	1	0	0
2069.045	1	82	n/a	n/a	1	0	0
2069.066	1	82	n/a	n/a	1	0	0
2069.492	1	82	n/a	n/a	1	0	0
2069.788	1	82	n/a	n/a	1	0	0
2070.023	1	82	n/a	n/a	1	0	0
2070.19	1	82	n/a	n/a	1	0	0
2070.236	1	82	n/a	n/a	1	0	0
2070.359	1	82	n/a	n/a	1	0	0
2071.7592	1	10	n/a	n/a	1	52	1
2072.8426	1	21	n/a	n/a	1	52	0
2073.9424	1	10	n/a	n/a	1	52	1
2075.0424	1	21	n/a	n/a	1	52	0
2076.309	1	10	n/a	n/a	1	52	1
2077.5256	1	10	n/a	n/a	1	52	2
2078.7922	1	10	n/a	n/a	1	52	3
2080.0588	1	10	n/a	n/a	1	52	4
2081.3586	1	10	n/a	n/a	1	52	5
2082.6752	1	10	n/a	n/a	1	52	6
2083.8918	1	10	n/a	n/a	1	52	7
2085.1084	1	21	n/a	n/a	1	52	0
2086.3084	1	10	n/a	n/a	1	52	1
2087.5084	1	21	n/a	n/a	1	52	0
2088.7916	1	10	n/a	n/a	1	52	1
2089.9082	1	10	n/a	n/a	1	52	2
2091.1248	1	10	n/a	n/a	1	52	3
2092.358	1	10	n/a	n/a	1	52	4
2093.4412	1	10	n/a	n/a	1	52	5
2094.7246	1	10	n/a	n/a	1	52	6
