onset	duration	value	response	rt	good	TMS	seq
121.8692	1	82	n/a	n/a	1	0	0
121.9042	1	82	n/a	n/a	1	0	0
122.1292	1	82	n/a	n/a	1	0	0
122.4232	1	82	n/a	n/a	1	0	0
122.4982	1	82	n/a	n/a	1	0	0
122.8692	1	82	n/a	n/a	1	0	0
122.9562	1	82	n/a	n/a	1	0	0
123.2912	1	82	n/a	n/a	1	0	0
123.6002	1	82	n/a	n/a	1	0	0
123.7202	1	82	n/a	n/a	1	0	0
125.0124	1	10	n/a	n/a	1	52	1
126.2622	1	10	n/a	n/a	1	52	2
127.2956	1	10	n/a	n/a	1	52	3
128.612	1	10	n/a	n/a	1	52	4
129.6788	1	10	n/a	n/a	1	52	5
130.7454	1	21	n/a	n/a	1	52	0
131.8786	1	10	n/a	n/a	1	52	1
133.1452	1	10	n/a	n/a	1	52	2
134.4118	1	10	n/a	n/a	1	52	3
135.595	1	10	n/a	n/a	1	52	4
136.845	1	10	n/a	n/a	1	52	5
138.0948	1	21	n/a	n/a	1	52	0
139.3948	1	10	n/a	n/a	1	52	1
140.478	1	10	n/a	n/a	1	52	2
141.678	1	10	n/a	n/a	1	52	3
142.878	1	21	n/a	n/a	1	52	0
144.1112	1	10	n/a	n/a	1	52	1
145.1778	1	10	n/a	n/a	1	52	2
146.4944	1	10	n/a	n/a	1	52	3
147.811	1	21	n/a	n/a	1	52	0
148.7146	1	82	n/a	n/a	1	0	0
148.7536	1	82	n/a	n/a	1	0	0
149.1506	1	82	n/a	n/a	1	0	0
149.3076	1	82	n/a	n/a	1	0	0
149.6146	1	82	n/a	n/a	1	0	0
149.7148	1	82	n/a	n/a	1	0	0
149.9696	1	82	n/a	n/a	1	0	0
150.2906	1	82	n/a	n/a	1	0	0
150.3536	1	82	n/a	n/a	1	0	0
150.5136	1	82	n/a	n/a	1	0	0
151.7608	1	10	n/a	n/a	1	52	1
152.9774	1	10	n/a	n/a	1	52	2
154.0772	1	10	n/a	n/a	1	52	3
155.3938	1	10	n/a	n/a	1	52	4
156.6604	1	10	n/a	n/a	1	52	5
157.9604	1	10	n/a	n/a	1	52	6
159.027	1	10	n/a	n/a	1	52	7
160.0936	1	21	n/a	n/a	1	52	0
161.2602	1	10	n/a	n/a	1	52	1
162.51	1	10	n/a	n/a	1	52	2
163.7266	1	10	n/a	n/a	1	52	3
164.81	1	10	n/a	n/a	1	52	4
165.8766	1	10	n/a	n/a	1	52	5
166.9764	1	10	n/a	n/a	1	52	6
168.0764	1	10	n/a	n/a	1	52	7
169.1764	1	21	n/a	n/a	1	52	0
170.243	1	10	n/a	n/a	1	52	1
171.3928	1	10	n/a	n/a	1	52	2
172.5762	1	10	n/a	n/a	1	52	3
173.6094	1	10	n/a	n/a	1	52	4
174.3608	1	82	n/a	n/a	1	0	0
174.4028	1	82	n/a	n/a	1	0	0
174.4968	1	82	n/a	n/a	1	0	0
174.7378	1	82	n/a	n/a	1	0	0
175.1778	1	82	n/a	n/a	1	0	0
175.3608	1	82	n/a	n/a	1	0	0
175.5078	1	82	n/a	n/a	1	0	0
175.7888	1	82	n/a	n/a	1	0	0
175.8578	1	82	n/a	n/a	1	0	0
176.2848	1	82	n/a	n/a	1	0	0
177.4092	1	10	n/a	n/a	1	52	1
178.7258	1	10	n/a	n/a	1	52	2
179.9256	1	10	n/a	n/a	1	52	3
181.1256	1	21	n/a	n/a	1	52	0
182.2588	1	10	n/a	n/a	1	52	1
183.3922	1	21	n/a	n/a	1	52	0
184.692	1	10	n/a	n/a	1	52	1
185.792	1	10	n/a	n/a	1	52	2
187.042	1	10	n/a	n/a	1	52	3
188.1418	1	10	n/a	n/a	1	52	4
189.4252	1	10	n/a	n/a	1	52	5
190.7084	1	21	n/a	n/a	1	52	0
191.8416	1	10	n/a	n/a	1	52	1
193.0916	1	10	n/a	n/a	1	52	2
194.2416	1	10	n/a	n/a	1	52	3
195.3414	1	10	n/a	n/a	1	52	4
196.3748	1	10	n/a	n/a	1	52	5
197.5746	1	10	n/a	n/a	1	52	6
198.6246	1	10	n/a	n/a	1	52	7
199.6746	1	21	n/a	n/a	1	52	0
200.5582	1	82	n/a	n/a	1	0	0
200.8402	1	82	n/a	n/a	1	0	0
200.8662	1	82	n/a	n/a	1	0	0
201.1272	1	82	n/a	n/a	1	0	0
201.2242	1	82	n/a	n/a	1	0	0
201.5582	1	82	n/a	n/a	1	0	0
201.9582	1	82	n/a	n/a	1	0	0
201.9832	1	82	n/a	n/a	1	0	0
202.2632	1	82	n/a	n/a	1	0	0
202.3412	1	82	n/a	n/a	1	0	0
203.7742	1	10	n/a	n/a	1	52	1
204.9908	1	10	n/a	n/a	1	52	2
206.1908	1	10	n/a	n/a	1	52	3
207.374	1	21	n/a	n/a	1	52	0
208.4074	1	10	n/a	n/a	1	52	1
209.4572	1	21	n/a	n/a	1	52	0
210.6072	1	10	n/a	n/a	1	52	1
211.7572	1	21	n/a	n/a	1	52	0
212.957	1	10	n/a	n/a	1	52	1
214.157	1	21	n/a	n/a	1	52	0
215.1902	1	10	n/a	n/a	1	52	1
216.2402	1	10	n/a	n/a	1	52	2
217.4234	1	10	n/a	n/a	1	52	3
218.6234	1	10	n/a	n/a	1	52	4
219.89	1	10	n/a	n/a	1	52	5
221.1566	1	21	n/a	n/a	1	52	0
222.4398	1	10	n/a	n/a	1	52	1
223.5064	1	10	n/a	n/a	1	52	2
224.723	1	10	n/a	n/a	1	52	3
225.773	1	10	n/a	n/a	1	52	4
226.8104	1	82	n/a	n/a	1	0	0
226.9724	1	82	n/a	n/a	1	0	0
227.0544	1	82	n/a	n/a	1	0	0
227.0814	1	82	n/a	n/a	1	0	0
227.4924	1	82	n/a	n/a	1	0	0
227.8104	1	82	n/a	n/a	1	0	0
227.9164	1	82	n/a	n/a	1	0	0
227.9594	1	82	n/a	n/a	1	0	0
228.1144	1	82	n/a	n/a	1	0	0
228.3484	1	82	n/a	n/a	1	0	0
229.8394	1	10	n/a	n/a	1	52	1
230.9726	1	21	n/a	n/a	1	52	0
232.2558	1	10	n/a	n/a	1	52	1
233.4058	1	10	n/a	n/a	1	52	2
234.6558	1	10	n/a	n/a	1	52	3
235.9056	1	10	n/a	n/a	1	52	4
236.9556	1	10	n/a	n/a	1	52	5
238.0056	1	21	n/a	n/a	1	52	0
239.2888	1	10	n/a	n/a	1	52	1
240.5888	1	10	n/a	n/a	1	52	2
241.822	1	10	n/a	n/a	1	52	3
243.0552	1	21	n/a	n/a	1	52	0
244.2718	1	10	n/a	n/a	1	52	1
245.3052	1	10	n/a	n/a	1	52	2
246.3384	1	10	n/a	n/a	1	52	3
247.3716	1	21	n/a	n/a	1	52	0
248.4716	1	10	n/a	n/a	1	52	1
249.6882	1	10	n/a	n/a	1	52	2
250.7882	1	10	n/a	n/a	1	52	3
251.888	1	21	n/a	n/a	1	52	0
261.9932	1	82	n/a	n/a	1	0	0
262.1622	1	82	n/a	n/a	1	0	0
262.5142	1	82	n/a	n/a	1	0	0
262.7472	1	82	n/a	n/a	1	0	0
262.8432	1	82	n/a	n/a	1	0	0
262.9932	1	82	n/a	n/a	1	0	0
263.1332	1	82	n/a	n/a	1	0	0
263.3592	1	82	n/a	n/a	1	0	0
263.7672	1	82	n/a	n/a	1	0	0
263.7992	1	82	n/a	n/a	1	0	0
265.004	1	10	n/a	n/a	1	50	1
266.1206	1	10	n/a	n/a	1	50	2
267.3038	1	10	n/a	n/a	1	50	3
268.487	1	21	n/a	n/a	1	50	0
269.5704	1	10	n/a	n/a	1	50	1
270.7036	1	10	n/a	n/a	1	50	2
271.9202	1	10	n/a	n/a	1	50	3
273.2034	1	10	n/a	n/a	1	50	4
274.2534	1	10	n/a	n/a	1	50	5
275.3034	1	21	n/a	n/a	1	50	0
276.42	1	10	n/a	n/a	1	50	1
277.5366	1	21	n/a	n/a	1	50	0
278.5698	1	10	n/a	n/a	1	50	1
279.8698	1	10	n/a	n/a	1	50	2
281.153	1	10	n/a	n/a	1	50	3
282.3028	1	10	n/a	n/a	1	50	4
283.3694	1	10	n/a	n/a	1	50	5
284.5194	1	10	n/a	n/a	1	50	6
285.8026	1	10	n/a	n/a	1	50	7
287.086	1	21	n/a	n/a	1	50	0
288.1836	1	82	n/a	n/a	1	0	0
288.4366	1	82	n/a	n/a	1	0	0
288.8126	1	82	n/a	n/a	1	0	0
288.9896	1	82	n/a	n/a	1	0	0
289.1136	1	82	n/a	n/a	1	0	0
289.1836	1	82	n/a	n/a	1	0	0
289.2626	1	82	n/a	n/a	1	0	0
289.2886	1	82	n/a	n/a	1	0	0
289.6656	1	82	n/a	n/a	1	0	0
289.8086	1	82	n/a	n/a	1	0	0
291.1356	1	10	n/a	n/a	1	50	1
292.2356	1	10	n/a	n/a	1	50	2
293.3856	1	10	n/a	n/a	1	50	3
294.6688	1	10	n/a	n/a	1	50	4
295.9688	1	10	n/a	n/a	1	50	5
297.2186	1	10	n/a	n/a	1	50	6
298.4686	1	10	n/a	n/a	1	50	7
299.7186	1	21	n/a	n/a	1	50	0
300.9184	1	10	n/a	n/a	1	50	1
302.0018	1	10	n/a	n/a	1	50	2
303.135	1	10	n/a	n/a	1	50	3
304.2682	1	21	n/a	n/a	1	50	0
305.5182	1	10	n/a	n/a	1	50	1
306.8348	1	10	n/a	n/a	1	50	2
308.1514	1	10	n/a	n/a	1	50	3
309.218	1	10	n/a	n/a	1	50	4
310.3012	1	10	n/a	n/a	1	50	5
311.3844	1	21	n/a	n/a	1	50	0
312.701	1	10	n/a	n/a	1	50	1
314.0176	1	21	n/a	n/a	1	50	0
314.9372	1	82	n/a	n/a	1	0	0
315.3522	1	82	n/a	n/a	1	0	0
315.4512	1	82	n/a	n/a	1	0	0
315.6082	1	82	n/a	n/a	1	0	0
315.6382	1	82	n/a	n/a	1	0	0
315.9372	1	82	n/a	n/a	1	0	0
316.0232	1	82	n/a	n/a	1	0	0
316.0732	1	82	n/a	n/a	1	0	0
316.4982	1	82	n/a	n/a	1	0	0
316.8672	1	82	n/a	n/a	1	0	0
318.0174	1	10	n/a	n/a	1	50	1
319.234	1	10	n/a	n/a	1	50	2
320.5172	1	10	n/a	n/a	1	50	3
321.7838	1	10	n/a	n/a	1	50	4
323.0172	1	10	n/a	n/a	1	50	5
324.3004	1	10	n/a	n/a	1	50	6
325.4004	1	10	n/a	n/a	1	50	7
326.5002	1	21	n/a	n/a	1	50	0
327.8168	1	10	n/a	n/a	1	50	1
329.1334	1	21	n/a	n/a	1	50	0
330.2666	1	10	n/a	n/a	1	50	1
331.3832	1	10	n/a	n/a	1	50	2
332.6166	1	10	n/a	n/a	1	50	3
333.9332	1	10	n/a	n/a	1	50	4
335.0664	1	10	n/a	n/a	1	50	5
336.1996	1	10	n/a	n/a	1	50	6
337.2662	1	10	n/a	n/a	1	50	7
338.3328	1	21	n/a	n/a	1	50	0
339.6494	1	10	n/a	n/a	1	50	1
340.966	1	21	n/a	n/a	1	50	0
341.7008	1	82	n/a	n/a	1	0	0
342.0798	1	82	n/a	n/a	1	0	0
342.1708	1	82	n/a	n/a	1	0	0
342.2038	1	82	n/a	n/a	1	0	0
342.5508	1	82	n/a	n/a	1	0	0
342.7008	1	82	n/a	n/a	1	0	0
342.9358	1	82	n/a	n/a	1	0	0
343.2858	1	82	n/a	n/a	1	0	0
343.4258	1	82	n/a	n/a	1	0	0
343.4688	1	82	n/a	n/a	1	0	0
344.7658	1	10	n/a	n/a	1	50	1
345.8324	1	10	n/a	n/a	1	50	2
346.8658	1	10	n/a	n/a	1	50	3
347.899	1	21	n/a	n/a	1	50	0
349.1488	1	10	n/a	n/a	1	50	1
350.1822	1	10	n/a	n/a	1	50	2
351.2822	1	10	n/a	n/a	1	50	3
352.532	1	10	n/a	n/a	1	50	4
353.7652	1	10	n/a	n/a	1	50	5
355.0152	1	10	n/a	n/a	1	50	6
356.0652	1	10	n/a	n/a	1	50	7
357.115	1	21	n/a	n/a	1	50	0
358.265	1	10	n/a	n/a	1	50	1
359.3482	1	10	n/a	n/a	1	50	2
360.5482	1	10	n/a	n/a	1	50	3
361.6982	1	10	n/a	n/a	1	50	4
362.898	1	10	n/a	n/a	1	50	5
364.098	1	21	n/a	n/a	1	50	0
365.1312	1	10	n/a	n/a	1	50	1
366.1812	1	21	n/a	n/a	1	50	0
367.177	1	82	n/a	n/a	1	0	0
367.321	1	82	n/a	n/a	1	0	0
367.742	1	82	n/a	n/a	1	0	0
367.762	1	82	n/a	n/a	1	0	0
367.869	1	82	n/a	n/a	1	0	0
368.177	1	82	n/a	n/a	1	0	0
368.418	1	82	n/a	n/a	1	0	0
368.573	1	82	n/a	n/a	1	0	0
368.627	1	82	n/a	n/a	1	0	0
368.94	1	82	n/a	n/a	1	0	0
370.1476	1	10	n/a	n/a	1	50	1
371.231	1	21	n/a	n/a	1	50	0
372.2642	1	10	n/a	n/a	1	50	1
373.2974	1	21	n/a	n/a	1	50	0
374.3974	1	10	n/a	n/a	1	50	1
375.464	1	10	n/a	n/a	1	50	2
376.564	1	10	n/a	n/a	1	50	3
377.6638	1	21	n/a	n/a	1	50	0
378.8972	1	10	n/a	n/a	1	50	1
379.997	1	10	n/a	n/a	1	50	2
381.3136	1	10	n/a	n/a	1	50	3
382.6302	1	21	n/a	n/a	1	50	0
383.6968	1	10	n/a	n/a	1	50	1
384.7634	1	21	n/a	n/a	1	50	0
385.83	1	10	n/a	n/a	1	50	1
387.03	1	10	n/a	n/a	1	50	2
388.0966	1	10	n/a	n/a	1	50	3
389.3132	1	10	n/a	n/a	1	50	4
390.3464	1	10	n/a	n/a	1	50	5
391.3798	1	21	n/a	n/a	1	50	0
409.6344	1	81	n/a	n/a	1	0	0
409.8344	1	81	n/a	n/a	1	0	0
410.0344	1	81	n/a	n/a	1	0	0
410.2344	1	81	n/a	n/a	1	0	0
410.4344	1	81	n/a	n/a	1	0	0
410.6344	1	81	n/a	n/a	1	0	0
410.8344	1	81	n/a	n/a	1	0	0
411.0344	1	81	n/a	n/a	1	0	0
411.2344	1	81	n/a	n/a	1	0	0
411.4344	1	81	n/a	n/a	1	0	0
412.7618	1	10	n/a	n/a	1	51	1
413.945	1	10	n/a	n/a	1	51	2
414.9784	1	10	n/a	n/a	1	51	3
416.045	1	10	n/a	n/a	1	51	4
417.3448	1	10	n/a	n/a	1	51	5
418.6448	1	21	n/a	n/a	1	51	0
419.9614	1	10	n/a	n/a	1	51	1
421.1612	1	10	n/a	n/a	1	51	2
422.2278	1	10	n/a	n/a	1	51	3
423.4278	1	10	n/a	n/a	1	51	4
424.711	1	10	n/a	n/a	1	51	5
425.9944	1	21	n/a	n/a	1	51	0
427.2276	1	10	n/a	n/a	1	51	1
428.4942	1	10	n/a	n/a	1	51	2
429.7108	1	10	n/a	n/a	1	51	3
430.9274	1	21	n/a	n/a	1	51	0
432.094	1	10	n/a	n/a	1	51	1
433.1606	1	10	n/a	n/a	1	51	2
434.3938	1	10	n/a	n/a	1	51	3
435.5438	1	10	n/a	n/a	1	51	4
436.6132	1	81	n/a	n/a	1	0	0
436.8132	1	81	n/a	n/a	1	0	0
437.0132	1	81	n/a	n/a	1	0	0
437.2132	1	81	n/a	n/a	1	0	0
437.4132	1	81	n/a	n/a	1	0	0
437.6132	1	81	n/a	n/a	1	0	0
437.8132	1	81	n/a	n/a	1	0	0
438.0132	1	81	n/a	n/a	1	0	0
438.2132	1	81	n/a	n/a	1	0	0
438.4132	1	81	n/a	n/a	1	0	0
439.7102	1	10	n/a	n/a	1	51	1
440.91	1	21	n/a	n/a	1	51	0
442.21	1	10	n/a	n/a	1	51	1
443.36	1	10	n/a	n/a	1	51	2
444.5266	1	10	n/a	n/a	1	51	3
445.6932	1	21	n/a	n/a	1	51	0
446.7264	1	10	n/a	n/a	1	51	1
447.993	1	10	n/a	n/a	1	51	2
449.193	1	10	n/a	n/a	1	51	3
450.3928	1	21	n/a	n/a	1	51	0
451.4594	1	10	n/a	n/a	1	51	1
452.726	1	10	n/a	n/a	1	51	2
454.0426	1	10	n/a	n/a	1	51	3
455.3592	1	21	n/a	n/a	1	51	0
456.5258	1	10	n/a	n/a	1	51	1
457.8424	1	10	n/a	n/a	1	51	2
459.1256	1	10	n/a	n/a	1	51	3
460.359	1	10	n/a	n/a	1	51	4
461.6088	1	10	n/a	n/a	1	51	5
462.8588	1	21	n/a	n/a	1	51	0
463.7244	1	81	n/a	n/a	1	0	0
463.9244	1	81	n/a	n/a	1	0	0
464.1244	1	81	n/a	n/a	1	0	0
464.3244	1	81	n/a	n/a	1	0	0
464.5244	1	81	n/a	n/a	1	0	0
464.7244	1	81	n/a	n/a	1	0	0
464.9244	1	81	n/a	n/a	1	0	0
465.1244	1	81	n/a	n/a	1	0	0
465.3244	1	81	n/a	n/a	1	0	0
465.5244	1	81	n/a	n/a	1	0	0
466.8752	1	10	n/a	n/a	1	51	1
468.0752	1	10	n/a	n/a	1	51	2
469.2084	1	10	n/a	n/a	1	51	3
470.3084	1	10	n/a	n/a	1	51	4
471.4416	1	10	n/a	n/a	1	51	5
472.5582	1	10	n/a	n/a	1	51	6
473.5914	1	10	n/a	n/a	1	51	7
474.6248	1	21	n/a	n/a	1	51	0
475.708	1	10	n/a	n/a	1	51	1
476.908	1	10	n/a	n/a	1	51	2
478.0246	1	10	n/a	n/a	1	51	3
479.2244	1	10	n/a	n/a	1	51	4
480.2744	1	10	n/a	n/a	1	51	5
481.3244	1	21	n/a	n/a	1	51	0
482.6242	1	10	n/a	n/a	1	51	1
483.9242	1	21	n/a	n/a	1	51	0
485.1074	1	10	n/a	n/a	1	51	1
486.1574	1	10	n/a	n/a	1	51	2
487.2406	1	10	n/a	n/a	1	51	3
488.324	1	10	n/a	n/a	1	51	4
489.2974	1	81	n/a	n/a	1	0	0
489.4974	1	81	n/a	n/a	1	0	0
489.6974	1	81	n/a	n/a	1	0	0
489.8974	1	81	n/a	n/a	1	0	0
490.0974	1	81	n/a	n/a	1	0	0
490.2974	1	81	n/a	n/a	1	0	0
490.4974	1	81	n/a	n/a	1	0	0
490.6974	1	81	n/a	n/a	1	0	0
490.8974	1	81	n/a	n/a	1	0	0
491.0974	1	81	n/a	n/a	1	0	0
492.4236	1	10	n/a	n/a	1	51	1
493.6236	1	10	n/a	n/a	1	51	2
494.7236	1	10	n/a	n/a	1	51	3
495.8568	1	10	n/a	n/a	1	51	4
496.9068	1	10	n/a	n/a	1	51	5
497.9566	1	21	n/a	n/a	1	51	0
498.99	1	10	n/a	n/a	1	51	1
500.1898	1	10	n/a	n/a	1	51	2
501.4232	1	10	n/a	n/a	1	51	3
502.6564	1	21	n/a	n/a	1	51	0
503.873	1	10	n/a	n/a	1	51	1
505.073	1	10	n/a	n/a	1	51	2
506.1562	1	10	n/a	n/a	1	51	3
507.3394	1	10	n/a	n/a	1	51	4
508.4394	1	10	n/a	n/a	1	51	5
509.706	1	10	n/a	n/a	1	51	6
510.806	1	10	n/a	n/a	1	51	7
511.9058	1	21	n/a	n/a	1	51	0
512.9558	1	10	n/a	n/a	1	51	1
514.1224	1	10	n/a	n/a	1	51	2
514.8418	1	81	n/a	n/a	1	0	0
515.0418	1	81	n/a	n/a	1	0	0
515.2418	1	81	n/a	n/a	1	0	0
515.4418	1	81	n/a	n/a	1	0	0
515.6418	1	81	n/a	n/a	1	0	0
515.8418	1	81	n/a	n/a	1	0	0
516.0418	1	81	n/a	n/a	1	0	0
516.2418	1	81	n/a	n/a	1	0	0
516.4418	1	81	n/a	n/a	1	0	0
516.6418	1	81	n/a	n/a	1	0	0
517.8722	1	10	n/a	n/a	1	51	1
519.0888	1	10	n/a	n/a	1	51	2
520.1554	1	10	n/a	n/a	1	51	3
521.2552	1	10	n/a	n/a	1	51	4
522.5886	1	10	n/a	n/a	1	51	5
523.9218	1	21	n/a	n/a	1	51	0
525.105	1	10	n/a	n/a	1	51	1
526.2884	1	21	n/a	n/a	1	51	0
527.505	1	10	n/a	n/a	1	51	1
528.6716	1	10	n/a	n/a	1	51	2
529.9714	1	10	n/a	n/a	1	51	3
531.1714	1	10	n/a	n/a	1	51	4
532.338	1	10	n/a	n/a	1	51	5
533.5712	1	10	n/a	n/a	1	51	6
534.7544	1	10	n/a	n/a	1	51	7
535.9378	1	21	n/a	n/a	1	51	0
537.1876	1	10	n/a	n/a	1	51	1
538.2542	1	10	n/a	n/a	1	51	2
539.5708	1	10	n/a	n/a	1	51	3
540.7874	1	10	n/a	n/a	1	51	4
676.3468	1	81	n/a	n/a	1	0	0
676.5468	1	81	n/a	n/a	1	0	0
676.7468	1	81	n/a	n/a	1	0	0
676.9468	1	81	n/a	n/a	1	0	0
677.1468	1	81	n/a	n/a	1	0	0
677.3468	1	81	n/a	n/a	1	0	0
677.5468	1	81	n/a	n/a	1	0	0
677.7468	1	81	n/a	n/a	1	0	0
677.9468	1	81	n/a	n/a	1	0	0
678.1468	1	81	n/a	n/a	1	0	0
679.3458	1	10	n/a	n/a	1	51	1
680.4458	1	21	n/a	n/a	1	51	0
681.529	1	10	n/a	n/a	1	51	1
682.5956	1	10	n/a	n/a	1	51	2
683.8122	1	10	n/a	n/a	1	51	3
685.0288	1	21	n/a	n/a	1	51	0
686.1288	1	10	n/a	n/a	1	51	1
687.2288	1	21	n/a	n/a	1	51	0
688.5454	1	10	n/a	n/a	1	51	1
689.762	1	10	n/a	n/a	1	51	2
690.8286	1	10	n/a	n/a	1	51	3
691.8952	1	21	n/a	n/a	1	51	0
693.0784	1	10	n/a	n/a	1	51	1
694.2616	1	21	n/a	n/a	1	51	0
695.395	1	10	n/a	n/a	1	51	1
696.4782	1	10	n/a	n/a	1	51	2
697.6782	1	10	n/a	n/a	1	51	3
698.878	1	21	n/a	n/a	1	51	0
700.1614	1	10	n/a	n/a	1	51	1
701.1946	1	10	n/a	n/a	1	51	2
701.9762	1	81	n/a	n/a	1	0	0
702.1762	1	81	n/a	n/a	1	0	0
702.3762	1	81	n/a	n/a	1	0	0
702.5762	1	81	n/a	n/a	1	0	0
702.7762	1	81	n/a	n/a	1	0	0
702.9762	1	81	n/a	n/a	1	0	0
703.1762	1	81	n/a	n/a	1	0	0
703.3762	1	81	n/a	n/a	1	0	0
703.5762	1	81	n/a	n/a	1	0	0
703.7762	1	81	n/a	n/a	1	0	0
704.8944	1	10	n/a	n/a	1	51	1
706.211	1	10	n/a	n/a	1	51	2
707.3776	1	10	n/a	n/a	1	51	3
708.5442	1	21	n/a	n/a	1	51	0
709.7274	1	10	n/a	n/a	1	51	1
710.9106	1	21	n/a	n/a	1	51	0
711.944	1	10	n/a	n/a	1	51	1
713.2606	1	10	n/a	n/a	1	51	2
714.3104	1	10	n/a	n/a	1	51	3
715.4104	1	10	n/a	n/a	1	51	4
716.5604	1	10	n/a	n/a	1	51	5
717.7436	1	10	n/a	n/a	1	51	6
718.8436	1	10	n/a	n/a	1	51	7
719.9434	1	21	n/a	n/a	1	51	0
721.2434	1	10	n/a	n/a	1	51	1
722.3266	1	10	n/a	n/a	1	51	2
723.5266	1	10	n/a	n/a	1	51	3
724.7266	1	21	n/a	n/a	1	51	0
725.9264	1	10	n/a	n/a	1	51	1
727.193	1	10	n/a	n/a	1	51	2
728.1686	1	81	n/a	n/a	1	0	0
728.3686	1	81	n/a	n/a	1	0	0
728.5686	1	81	n/a	n/a	1	0	0
728.7686	1	81	n/a	n/a	1	0	0
728.9686	1	81	n/a	n/a	1	0	0
729.1686	1	81	n/a	n/a	1	0	0
729.3686	1	81	n/a	n/a	1	0	0
729.5686	1	81	n/a	n/a	1	0	0
729.7686	1	81	n/a	n/a	1	0	0
729.9686	1	81	n/a	n/a	1	0	0
731.3094	1	10	n/a	n/a	1	51	1
732.5594	1	21	n/a	n/a	1	51	0
733.6926	1	10	n/a	n/a	1	51	1
734.9426	1	10	n/a	n/a	1	51	2
736.0592	1	10	n/a	n/a	1	51	3
737.2258	1	10	n/a	n/a	1	51	4
738.2924	1	10	n/a	n/a	1	51	5
739.5756	1	10	n/a	n/a	1	51	6
740.7756	1	10	n/a	n/a	1	51	7
741.9754	1	21	n/a	n/a	1	51	0
743.1254	1	10	n/a	n/a	1	51	1
744.4086	1	10	n/a	n/a	1	51	2
745.492	1	10	n/a	n/a	1	51	3
746.7752	1	10	n/a	n/a	1	51	4
748.1084	1	10	n/a	n/a	1	51	5
749.4418	1	21	n/a	n/a	1	51	0
750.6416	1	10	n/a	n/a	1	51	1
751.875	1	10	n/a	n/a	1	51	2
753.1582	1	10	n/a	n/a	1	51	3
754.1914	1	10	n/a	n/a	1	51	4
755.188	1	81	n/a	n/a	1	0	0
755.3878	1	81	n/a	n/a	1	0	0
755.5878	1	81	n/a	n/a	1	0	0
755.7878	1	81	n/a	n/a	1	0	0
755.9878	1	81	n/a	n/a	1	0	0
756.188	1	81	n/a	n/a	1	0	0
756.388	1	81	n/a	n/a	1	0	0
756.588	1	81	n/a	n/a	1	0	0
756.788	1	81	n/a	n/a	1	0	0
756.988	1	81	n/a	n/a	1	0	0
758.1912	1	10	n/a	n/a	1	51	1
759.4912	1	10	n/a	n/a	1	51	2
760.7244	1	10	n/a	n/a	1	51	3
761.9576	1	10	n/a	n/a	1	51	4
763.2408	1	10	n/a	n/a	1	51	5
764.5242	1	21	n/a	n/a	1	51	0
765.624	1	10	n/a	n/a	1	51	1
766.724	1	21	n/a	n/a	1	51	0
767.774	1	10	n/a	n/a	1	51	1
768.824	1	10	n/a	n/a	1	51	2
770.0738	1	10	n/a	n/a	1	51	3
771.3238	1	21	n/a	n/a	1	51	0
772.4904	1	10	n/a	n/a	1	51	1
773.657	1	21	n/a	n/a	1	51	0
774.7902	1	10	n/a	n/a	1	51	1
775.9234	1	21	n/a	n/a	1	51	0
777.0734	1	10	n/a	n/a	1	51	1
778.19	1	10	n/a	n/a	1	51	2
779.29	1	10	n/a	n/a	1	51	3
780.3898	1	21	n/a	n/a	1	51	0
781.4676	1	81	n/a	n/a	1	0	0
781.6676	1	81	n/a	n/a	1	0	0
781.8676	1	81	n/a	n/a	1	0	0
782.0676	1	81	n/a	n/a	1	0	0
782.2676	1	81	n/a	n/a	1	0	0
782.4676	1	81	n/a	n/a	1	0	0
782.6676	1	81	n/a	n/a	1	0	0
782.8676	1	81	n/a	n/a	1	0	0
783.0676	1	81	n/a	n/a	1	0	0
783.2676	1	81	n/a	n/a	1	0	0
784.5064	1	10	n/a	n/a	1	51	1
785.6562	1	10	n/a	n/a	1	51	2
786.9062	1	10	n/a	n/a	1	51	3
788.156	1	21	n/a	n/a	1	51	0
789.256	1	10	n/a	n/a	1	51	1
790.5226	1	10	n/a	n/a	1	51	2
791.7558	1	10	n/a	n/a	1	51	3
793.0724	1	10	n/a	n/a	1	51	4
794.3724	1	10	n/a	n/a	1	51	5
795.6724	1	21	n/a	n/a	1	51	0
796.739	1	10	n/a	n/a	1	51	1
797.9888	1	10	n/a	n/a	1	51	2
799.3054	1	10	n/a	n/a	1	51	3
800.472	1	10	n/a	n/a	1	51	4
801.5052	1	10	n/a	n/a	1	51	5
802.8052	1	10	n/a	n/a	1	51	6
803.8718	1	10	n/a	n/a	1	51	7
804.9384	1	21	n/a	n/a	1	51	0
806.1884	1	10	n/a	n/a	1	51	1
807.4382	1	21	n/a	n/a	1	51	0
834.2928	1	81	n/a	n/a	1	0	0
834.4928	1	81	n/a	n/a	1	0	0
834.6928	1	81	n/a	n/a	1	0	0
834.8928	1	81	n/a	n/a	1	0	0
835.0928	1	81	n/a	n/a	1	0	0
835.2928	1	81	n/a	n/a	1	0	0
835.4928	1	81	n/a	n/a	1	0	0
835.6928	1	81	n/a	n/a	1	0	0
835.8928	1	81	n/a	n/a	1	0	0
836.0928	1	81	n/a	n/a	1	0	0
837.2866	1	10	n/a	n/a	1	50	1
838.553	1	10	n/a	n/a	1	50	2
839.703	1	10	n/a	n/a	1	50	3
840.7696	1	10	n/a	n/a	1	50	4
841.8196	1	10	n/a	n/a	1	50	5
842.8696	1	21	n/a	n/a	1	50	0
843.9694	1	10	n/a	n/a	1	50	1
845.1694	1	10	n/a	n/a	1	50	2
846.3028	1	10	n/a	n/a	1	50	3
847.6026	1	10	n/a	n/a	1	50	4
848.6524	1	10	n/a	n/a	1	50	5
849.7024	1	21	n/a	n/a	1	50	0
850.9524	1	10	n/a	n/a	1	50	1
852.2022	1	21	n/a	n/a	1	50	0
853.5188	1	10	n/a	n/a	1	50	1
854.6688	1	10	n/a	n/a	1	50	2
855.702	1	10	n/a	n/a	1	50	3
856.7686	1	10	n/a	n/a	1	50	4
858.0352	1	10	n/a	n/a	1	50	5
859.3018	1	21	n/a	n/a	1	50	0
860.3156	1	81	n/a	n/a	1	0	0
860.5156	1	81	n/a	n/a	1	0	0
860.7156	1	81	n/a	n/a	1	0	0
860.9156	1	81	n/a	n/a	1	0	0
861.1156	1	81	n/a	n/a	1	0	0
861.3156	1	81	n/a	n/a	1	0	0
861.5156	1	81	n/a	n/a	1	0	0
861.7156	1	81	n/a	n/a	1	0	0
861.9156	1	81	n/a	n/a	1	0	0
862.1156	1	81	n/a	n/a	1	0	0
863.3182	1	10	n/a	n/a	1	50	1
864.5348	1	10	n/a	n/a	1	50	2
865.8014	1	10	n/a	n/a	1	50	3
867.068	1	21	n/a	n/a	1	50	0
868.2014	1	10	n/a	n/a	1	50	1
869.5012	1	10	n/a	n/a	1	50	2
870.7346	1	10	n/a	n/a	1	50	3
871.8844	1	10	n/a	n/a	1	50	4
873.1844	1	10	n/a	n/a	1	50	5
874.4842	1	21	n/a	n/a	1	50	0
875.5342	1	10	n/a	n/a	1	50	1
876.5842	1	21	n/a	n/a	1	50	0
877.6508	1	10	n/a	n/a	1	50	1
878.784	1	10	n/a	n/a	1	50	2
879.934	1	10	n/a	n/a	1	50	3
881.0172	1	10	n/a	n/a	1	50	4
882.0838	1	10	n/a	n/a	1	50	5
883.2838	1	10	n/a	n/a	1	50	6
884.3504	1	10	n/a	n/a	1	50	7
885.417	1	21	n/a	n/a	1	50	0
886.1686	1	81	n/a	n/a	1	0	0
886.3686	1	81	n/a	n/a	1	0	0
886.5686	1	81	n/a	n/a	1	0	0
886.7686	1	81	n/a	n/a	1	0	0
886.9686	1	81	n/a	n/a	1	0	0
887.1686	1	81	n/a	n/a	1	0	0
887.3686	1	81	n/a	n/a	1	0	0
887.5686	1	81	n/a	n/a	1	0	0
887.7686	1	81	n/a	n/a	1	0	0
887.9686	1	81	n/a	n/a	1	0	0
889.1834	1	10	n/a	n/a	1	50	1
890.5	1	10	n/a	n/a	1	50	2
891.5666	1	10	n/a	n/a	1	50	3
892.6332	1	21	n/a	n/a	1	50	0
893.8164	1	10	n/a	n/a	1	50	1
894.883	1	10	n/a	n/a	1	50	2
895.983	1	10	n/a	n/a	1	50	3
897.133	1	10	n/a	n/a	1	50	4
898.3996	1	10	n/a	n/a	1	50	5
899.5328	1	10	n/a	n/a	1	50	6
900.6994	1	10	n/a	n/a	1	50	7
901.866	1	21	n/a	n/a	1	50	0
903.0326	1	10	n/a	n/a	1	50	1
904.2658	1	10	n/a	n/a	1	50	2
905.5158	1	10	n/a	n/a	1	50	3
906.5658	1	10	n/a	n/a	1	50	4
907.7324	1	10	n/a	n/a	1	50	5
908.9322	1	10	n/a	n/a	1	50	6
910.0156	1	10	n/a	n/a	1	50	7
911.0988	1	21	n/a	n/a	1	50	0
912.0544	1	81	n/a	n/a	1	0	0
912.2544	1	81	n/a	n/a	1	0	0
912.4544	1	81	n/a	n/a	1	0	0
912.6544	1	81	n/a	n/a	1	0	0
912.8544	1	81	n/a	n/a	1	0	0
913.0544	1	81	n/a	n/a	1	0	0
913.2544	1	81	n/a	n/a	1	0	0
913.4544	1	81	n/a	n/a	1	0	0
913.6544	1	81	n/a	n/a	1	0	0
913.8544	1	81	n/a	n/a	1	0	0
915.0318	1	10	n/a	n/a	1	50	1
916.3484	1	10	n/a	n/a	1	50	2
917.5484	1	10	n/a	n/a	1	50	3
918.715	1	10	n/a	n/a	1	50	4
919.7816	1	10	n/a	n/a	1	50	5
920.8482	1	21	n/a	n/a	1	50	0
922.1648	1	10	n/a	n/a	1	50	1
923.2814	1	10	n/a	n/a	1	50	2
924.5814	1	10	n/a	n/a	1	50	3
925.7146	1	10	n/a	n/a	1	50	4
926.9812	1	10	n/a	n/a	1	50	5
928.2478	1	21	n/a	n/a	1	50	0
929.581	1	10	n/a	n/a	1	50	1
930.831	1	10	n/a	n/a	1	50	2
932.0642	1	10	n/a	n/a	1	50	3
933.1974	1	10	n/a	n/a	1	50	4
934.514	1	10	n/a	n/a	1	50	5
935.8474	1	10	n/a	n/a	1	50	6
937.114	1	10	n/a	n/a	1	50	7
938.3806	1	21	n/a	n/a	1	50	0
939.2382	1	81	n/a	n/a	1	0	0
939.4382	1	81	n/a	n/a	1	0	0
939.6382	1	81	n/a	n/a	1	0	0
939.8382	1	81	n/a	n/a	1	0	0
940.0382	1	81	n/a	n/a	1	0	0
940.2382	1	81	n/a	n/a	1	0	0
940.4382	1	81	n/a	n/a	1	0	0
940.6382	1	81	n/a	n/a	1	0	0
940.8382	1	81	n/a	n/a	1	0	0
941.0382	1	81	n/a	n/a	1	0	0
942.397	1	10	n/a	n/a	1	50	1
943.6636	1	21	n/a	n/a	1	50	0
944.9468	1	10	n/a	n/a	1	50	1
946.1468	1	10	n/a	n/a	1	50	2
947.3634	1	10	n/a	n/a	1	50	3
948.5132	1	10	n/a	n/a	1	50	4
949.7798	1	10	n/a	n/a	1	50	5
951.0464	1	21	n/a	n/a	1	50	0
952.1464	1	10	n/a	n/a	1	50	1
953.1962	1	10	n/a	n/a	1	50	2
954.4796	1	10	n/a	n/a	1	50	3
955.5794	1	10	n/a	n/a	1	50	4
956.7794	1	10	n/a	n/a	1	50	5
957.9794	1	21	n/a	n/a	1	50	0
959.2126	1	10	n/a	n/a	1	50	1
960.3958	1	10	n/a	n/a	1	50	2
961.4292	1	10	n/a	n/a	1	50	3
962.679	1	10	n/a	n/a	1	50	4
963.8456	1	10	n/a	n/a	1	50	5
965.0122	1	21	n/a	n/a	1	50	0
990.4466	1	82	n/a	n/a	1	0	0
990.4956	1	82	n/a	n/a	1	0	0
990.8536	1	82	n/a	n/a	1	0	0
990.9256	1	82	n/a	n/a	1	0	0
991.2346	1	82	n/a	n/a	1	0	0
991.4466	1	82	n/a	n/a	1	0	0
991.5556	1	82	n/a	n/a	1	0	0
991.7336	1	82	n/a	n/a	1	0	0
991.7696	1	82	n/a	n/a	1	0	0
992.0576	1	82	n/a	n/a	1	0	0
993.5272	1	10	n/a	n/a	1	52	1
994.7104	1	21	n/a	n/a	1	52	0
995.9604	1	10	n/a	n/a	1	52	1
997.2104	1	21	n/a	n/a	1	52	0
998.3102	1	10	n/a	n/a	1	52	1
999.5768	1	10	n/a	n/a	1	52	2
1000.7102	1	10	n/a	n/a	1	52	3
1001.8434	1	10	n/a	n/a	1	52	4
1002.91	1	10	n/a	n/a	1	52	5
1004.1432	1	10	n/a	n/a	1	52	6
1005.2098	1	10	n/a	n/a	1	52	7
1006.2764	1	21	n/a	n/a	1	52	0
1007.393	1	10	n/a	n/a	1	52	1
1008.6096	1	10	n/a	n/a	1	52	2
1009.9262	1	10	n/a	n/a	1	52	3
1011.0596	1	10	n/a	n/a	1	52	4
1012.2262	1	10	n/a	n/a	1	52	5
1013.426	1	10	n/a	n/a	1	52	6
1014.6926	1	10	n/a	n/a	1	52	7
1015.9592	1	21	n/a	n/a	1	52	0
1016.735	1	82	n/a	n/a	1	0	0
1016.785	1	82	n/a	n/a	1	0	0
1016.898	1	82	n/a	n/a	1	0	0
1017.309	1	82	n/a	n/a	1	0	0
1017.666	1	82	n/a	n/a	1	0	0
1017.735	1	82	n/a	n/a	1	0	0
1017.966	1	82	n/a	n/a	1	0	0
1018.132	1	82	n/a	n/a	1	0	0
1018.401	1	82	n/a	n/a	1	0	0
1018.511	1	82	n/a	n/a	1	0	0
1019.8924	1	10	n/a	n/a	1	52	1
1021.159	1	21	n/a	n/a	1	52	0
1022.3588	1	10	n/a	n/a	1	52	1
1023.4588	1	10	n/a	n/a	1	52	2
1024.7088	1	10	n/a	n/a	1	52	3
1026.0086	1	10	n/a	n/a	1	52	4
1027.1586	1	10	n/a	n/a	1	52	5
1028.3086	1	21	n/a	n/a	1	52	0
1029.4584	1	10	n/a	n/a	1	52	1
1030.6084	1	10	n/a	n/a	1	52	2
1031.6916	1	10	n/a	n/a	1	52	3
1032.775	1	21	n/a	n/a	1	52	0
1033.8416	1	10	n/a	n/a	1	52	1
1034.8914	1	10	n/a	n/a	1	52	2
1035.9914	1	10	n/a	n/a	1	52	3
1037.0914	1	21	n/a	n/a	1	52	0
1038.1746	1	10	n/a	n/a	1	52	1
1039.4412	1	10	n/a	n/a	1	52	2
1040.5412	1	10	n/a	n/a	1	52	3
1041.6244	1	10	n/a	n/a	1	52	4
1042.6782	1	82	n/a	n/a	1	0	0
1042.7192	1	82	n/a	n/a	1	0	0
1042.8132	1	82	n/a	n/a	1	0	0
1043.2462	1	82	n/a	n/a	1	0	0
1043.5432	1	82	n/a	n/a	1	0	0
1043.6782	1	82	n/a	n/a	1	0	0
1043.8352	1	82	n/a	n/a	1	0	0
1044.2122	1	82	n/a	n/a	1	0	0
1044.4092	1	82	n/a	n/a	1	0	0
1044.4872	1	82	n/a	n/a	1	0	0
1045.6742	1	10	n/a	n/a	1	52	1
1046.824	1	10	n/a	n/a	1	52	2
1048.124	1	10	n/a	n/a	1	52	3
1049.3406	1	10	n/a	n/a	1	52	4
1050.3738	1	10	n/a	n/a	1	52	5
1051.4072	1	21	n/a	n/a	1	52	0
1052.657	1	10	n/a	n/a	1	52	1
1053.6904	1	10	n/a	n/a	1	52	2
1054.7236	1	10	n/a	n/a	1	52	3
1055.7568	1	21	n/a	n/a	1	52	0
1056.8234	1	10	n/a	n/a	1	52	1
1058.1068	1	10	n/a	n/a	1	52	2
1059.29	1	10	n/a	n/a	1	52	3
1060.59	1	10	n/a	n/a	1	52	4
1061.7066	1	10	n/a	n/a	1	52	5
1063.0064	1	10	n/a	n/a	1	52	6
1064.2064	1	10	n/a	n/a	1	52	7
1065.4064	1	21	n/a	n/a	1	52	0
1066.4896	1	10	n/a	n/a	1	52	1
1067.6062	1	10	n/a	n/a	1	52	2
1068.6386	1	82	n/a	n/a	1	0	0
1068.6926	1	82	n/a	n/a	1	0	0
1068.9486	1	82	n/a	n/a	1	0	0
1069.1536	1	82	n/a	n/a	1	0	0
1069.2636	1	82	n/a	n/a	1	0	0
1069.6386	1	82	n/a	n/a	1	0	0
1070.0046	1	82	n/a	n/a	1	0	0
1070.0316	1	82	n/a	n/a	1	0	0
1070.2176	1	82	n/a	n/a	1	0	0
1070.3636	1	82	n/a	n/a	1	0	0
1071.5726	1	10	n/a	n/a	1	52	1
1072.6058	1	21	n/a	n/a	1	52	0
1073.8058	1	10	n/a	n/a	1	52	1
1074.889	1	10	n/a	n/a	1	52	2
1075.9224	1	10	n/a	n/a	1	52	3
1076.9556	1	21	n/a	n/a	1	52	0
1077.989	1	10	n/a	n/a	1	52	1
1079.3054	1	10	n/a	n/a	1	52	2
1080.4888	1	10	n/a	n/a	1	52	3
1081.5386	1	10	n/a	n/a	1	52	4
1082.6052	1	10	n/a	n/a	1	52	5
1083.6552	1	10	n/a	n/a	1	52	6
1084.7218	1	10	n/a	n/a	1	52	7
1085.7884	1	21	n/a	n/a	1	52	0
1086.955	1	10	n/a	n/a	1	52	1
1088.2216	1	10	n/a	n/a	1	52	2
1089.4716	1	10	n/a	n/a	1	52	3
1090.6382	1	10	n/a	n/a	1	52	4
1091.738	1	10	n/a	n/a	1	52	5
1092.938	1	10	n/a	n/a	1	52	6
1093.7414	1	82	n/a	n/a	1	0	0
1094.1024	1	82	n/a	n/a	1	0	0
1094.3264	1	82	n/a	n/a	1	0	0
1094.4204	1	82	n/a	n/a	1	0	0
1094.4904	1	82	n/a	n/a	1	0	0
1094.7414	1	82	n/a	n/a	1	0	0
1095.0474	1	82	n/a	n/a	1	0	0
1095.1544	1	82	n/a	n/a	1	0	0
1095.1744	1	82	n/a	n/a	1	0	0
1095.5574	1	82	n/a	n/a	1	0	0
1096.6878	1	10	n/a	n/a	1	52	1
1097.8878	1	10	n/a	n/a	1	52	2
1098.9876	1	10	n/a	n/a	1	52	3
1100.121	1	10	n/a	n/a	1	52	4
1101.2876	1	10	n/a	n/a	1	52	5
1102.4542	1	21	n/a	n/a	1	52	0
1103.5208	1	10	n/a	n/a	1	52	1
1104.5874	1	21	n/a	n/a	1	52	0
1105.7206	1	10	n/a	n/a	1	52	1
1106.8706	1	10	n/a	n/a	1	52	2
1108.0204	1	10	n/a	n/a	1	52	3
1109.1704	1	21	n/a	n/a	1	52	0
1110.2036	1	10	n/a	n/a	1	52	1
1111.237	1	21	n/a	n/a	1	52	0
1112.2868	1	10	n/a	n/a	1	52	1
1113.4368	1	10	n/a	n/a	1	52	2
1114.5034	1	10	n/a	n/a	1	52	3
1115.7534	1	10	n/a	n/a	1	52	4
1116.9866	1	10	n/a	n/a	1	52	5
1118.2198	1	21	n/a	n/a	1	52	0
1175.6404	1	81	n/a	n/a	1	0	0
1175.8404	1	81	n/a	n/a	1	0	0
1176.0404	1	81	n/a	n/a	1	0	0
1176.2404	1	81	n/a	n/a	1	0	0
1176.4404	1	81	n/a	n/a	1	0	0
1176.6404	1	81	n/a	n/a	1	0	0
1176.8404	1	81	n/a	n/a	1	0	0
1177.0404	1	81	n/a	n/a	1	0	0
1177.2404	1	81	n/a	n/a	1	0	0
1177.4404	1	81	n/a	n/a	1	0	0
1178.6624	1	10	n/a	n/a	1	51	1
1179.8624	1	10	n/a	n/a	1	51	2
1180.9956	1	10	n/a	n/a	1	51	3
1182.1122	1	10	n/a	n/a	1	51	4
1183.4288	1	10	n/a	n/a	1	51	5
1184.4788	1	10	n/a	n/a	1	51	6
1185.7454	1	10	n/a	n/a	1	51	7
1187.012	1	21	n/a	n/a	1	51	0
1188.2952	1	10	n/a	n/a	1	51	1
1189.4784	1	10	n/a	n/a	1	51	2
1190.6284	1	10	n/a	n/a	1	51	3
1191.8284	1	10	n/a	n/a	1	51	4
1193.0616	1	10	n/a	n/a	1	51	5
1194.2448	1	10	n/a	n/a	1	51	6
1195.4782	1	10	n/a	n/a	1	51	7
1196.7114	1	21	n/a	n/a	1	51	0
1197.878	1	10	n/a	n/a	1	51	1
1199.1612	1	10	n/a	n/a	1	51	2
1200.3112	1	10	n/a	n/a	1	51	3
1201.4612	1	21	n/a	n/a	1	51	0
1202.2458	1	81	n/a	n/a	1	0	0
1202.4458	1	81	n/a	n/a	1	0	0
1202.6458	1	81	n/a	n/a	1	0	0
1202.8458	1	81	n/a	n/a	1	0	0
1203.0458	1	81	n/a	n/a	1	0	0
1203.2458	1	81	n/a	n/a	1	0	0
1203.4458	1	81	n/a	n/a	1	0	0
1203.6458	1	81	n/a	n/a	1	0	0
1203.8458	1	81	n/a	n/a	1	0	0
1204.0458	1	81	n/a	n/a	1	0	0
1205.2608	1	10	n/a	n/a	1	51	1
1206.3774	1	21	n/a	n/a	1	51	0
1207.694	1	10	n/a	n/a	1	51	1
1208.7274	1	10	n/a	n/a	1	51	2
1209.894	1	10	n/a	n/a	1	51	3
1211.0606	1	21	n/a	n/a	1	51	0
1212.3938	1	10	n/a	n/a	1	51	1
1213.577	1	10	n/a	n/a	1	51	2
1214.777	1	10	n/a	n/a	1	51	3
1215.8936	1	10	n/a	n/a	1	51	4
1217.2102	1	10	n/a	n/a	1	51	5
1218.5268	1	21	n/a	n/a	1	51	0
1219.7934	1	10	n/a	n/a	1	51	1
1221.06	1	21	n/a	n/a	1	51	0
1222.1932	1	10	n/a	n/a	1	51	1
1223.4764	1	10	n/a	n/a	1	51	2
1224.543	1	10	n/a	n/a	1	51	3
1225.593	1	10	n/a	n/a	1	51	4
1226.893	1	10	n/a	n/a	1	51	5
1228.1928	1	21	n/a	n/a	1	51	0
1228.9776	1	81	n/a	n/a	1	0	0
1229.1776	1	81	n/a	n/a	1	0	0
1229.3776	1	81	n/a	n/a	1	0	0
1229.5776	1	81	n/a	n/a	1	0	0
1229.7776	1	81	n/a	n/a	1	0	0
1229.9776	1	81	n/a	n/a	1	0	0
1230.1776	1	81	n/a	n/a	1	0	0
1230.3776	1	81	n/a	n/a	1	0	0
1230.5776	1	81	n/a	n/a	1	0	0
1230.7776	1	81	n/a	n/a	1	0	0
1232.126	1	10	n/a	n/a	1	51	1
1233.2426	1	10	n/a	n/a	1	51	2
1234.4592	1	10	n/a	n/a	1	51	3
1235.6758	1	21	n/a	n/a	1	51	0
1236.909	1	10	n/a	n/a	1	51	1
1238.0422	1	10	n/a	n/a	1	51	2
1239.0756	1	10	n/a	n/a	1	51	3
1240.1922	1	10	n/a	n/a	1	51	4
1241.4088	1	10	n/a	n/a	1	51	5
1242.6754	1	10	n/a	n/a	1	51	6
1243.7752	1	10	n/a	n/a	1	51	7
1244.8752	1	21	n/a	n/a	1	51	0
1246.0918	1	10	n/a	n/a	1	51	1
1247.175	1	10	n/a	n/a	1	51	2
1248.375	1	10	n/a	n/a	1	51	3
1249.5916	1	10	n/a	n/a	1	51	4
1250.8416	1	10	n/a	n/a	1	51	5
1252.0914	1	21	n/a	n/a	1	51	0
1253.2748	1	10	n/a	n/a	1	51	1
1254.4746	1	10	n/a	n/a	1	51	2
1255.5822	1	81	n/a	n/a	1	0	0
1255.7822	1	81	n/a	n/a	1	0	0
1255.9822	1	81	n/a	n/a	1	0	0
1256.1822	1	81	n/a	n/a	1	0	0
1256.3822	1	81	n/a	n/a	1	0	0
1256.5822	1	81	n/a	n/a	1	0	0
1256.7822	1	81	n/a	n/a	1	0	0
1256.9822	1	81	n/a	n/a	1	0	0
1257.1822	1	81	n/a	n/a	1	0	0
1257.3822	1	81	n/a	n/a	1	0	0
1258.6578	1	10	n/a	n/a	1	51	1
1259.8744	1	10	n/a	n/a	1	51	2
1261.0576	1	10	n/a	n/a	1	51	3
1262.2408	1	21	n/a	n/a	1	51	0
1263.3408	1	10	n/a	n/a	1	51	1
1264.6074	1	10	n/a	n/a	1	51	2
1265.7906	1	10	n/a	n/a	1	51	3
1267.0238	1	10	n/a	n/a	1	51	4
1268.0904	1	10	n/a	n/a	1	51	5
1269.157	1	21	n/a	n/a	1	51	0
1270.457	1	10	n/a	n/a	1	51	1
1271.757	1	21	n/a	n/a	1	51	0
1272.9236	1	10	n/a	n/a	1	51	1
1274.0902	1	21	n/a	n/a	1	51	0
1275.4068	1	10	n/a	n/a	1	51	1
1276.54	1	10	n/a	n/a	1	51	2
1277.5732	1	10	n/a	n/a	1	51	3
1278.7566	1	10	n/a	n/a	1	51	4
1279.8564	1	10	n/a	n/a	1	51	5
1280.9564	1	21	n/a	n/a	1	51	0
1281.6918	1	81	n/a	n/a	1	0	0
1281.8918	1	81	n/a	n/a	1	0	0
1282.0918	1	81	n/a	n/a	1	0	0
1282.2918	1	81	n/a	n/a	1	0	0
1282.4918	1	81	n/a	n/a	1	0	0
1282.6918	1	81	n/a	n/a	1	0	0
1282.8918	1	81	n/a	n/a	1	0	0
1283.0918	1	81	n/a	n/a	1	0	0
1283.2918	1	81	n/a	n/a	1	0	0
1283.4918	1	81	n/a	n/a	1	0	0
1284.6728	1	10	n/a	n/a	1	51	1
1285.7728	1	10	n/a	n/a	1	51	2
1286.8894	1	10	n/a	n/a	1	51	3
1288.006	1	21	n/a	n/a	1	51	0
1289.2726	1	10	n/a	n/a	1	51	1
1290.3392	1	10	n/a	n/a	1	51	2
1291.6558	1	10	n/a	n/a	1	51	3
1292.789	1	10	n/a	n/a	1	51	4
1294.0056	1	10	n/a	n/a	1	51	5
1295.1556	1	10	n/a	n/a	1	51	6
1296.4722	1	10	n/a	n/a	1	51	7
1297.7888	1	21	n/a	n/a	1	51	0
1298.8886	1	10	n/a	n/a	1	51	1
1300.0552	1	10	n/a	n/a	1	51	2
1301.2218	1	10	n/a	n/a	1	51	3
1302.3552	1	10	n/a	n/a	1	51	4
1303.4718	1	10	n/a	n/a	1	51	5
1304.5884	1	21	n/a	n/a	1	51	0
1305.705	1	10	n/a	n/a	1	51	1
1306.7716	1	10	n/a	n/a	1	51	2
1315.826	1	81	n/a	n/a	1	0	0
1316.026	1	81	n/a	n/a	1	0	0
1316.226	1	81	n/a	n/a	1	0	0
1316.426	1	81	n/a	n/a	1	0	0
1316.626	1	81	n/a	n/a	1	0	0
1316.826	1	81	n/a	n/a	1	0	0
1317.026	1	81	n/a	n/a	1	0	0
1317.226	1	81	n/a	n/a	1	0	0
1317.426	1	81	n/a	n/a	1	0	0
1317.626	1	81	n/a	n/a	1	0	0
1318.7708	1	10	n/a	n/a	1	50	1
1319.904	1	10	n/a	n/a	1	50	2
1321.1706	1	10	n/a	n/a	1	50	3
1322.4372	1	21	n/a	n/a	1	50	0
1323.6372	1	10	n/a	n/a	1	50	1
1324.7204	1	10	n/a	n/a	1	50	2
1325.8538	1	10	n/a	n/a	1	50	3
1327.1204	1	10	n/a	n/a	1	50	4
1328.3202	1	10	n/a	n/a	1	50	5
1329.6536	1	10	n/a	n/a	1	50	6
1330.6868	1	10	n/a	n/a	1	50	7
1331.72	1	21	n/a	n/a	1	50	0
1332.9034	1	10	n/a	n/a	1	50	1
1334.17	1	10	n/a	n/a	1	50	2
1335.4698	1	10	n/a	n/a	1	50	3
1336.5864	1	10	n/a	n/a	1	50	4
1337.7698	1	10	n/a	n/a	1	50	5
1338.9364	1	10	n/a	n/a	1	50	6
1340.1696	1	10	n/a	n/a	1	50	7
1341.4028	1	21	n/a	n/a	1	50	0
1342.2654	1	81	n/a	n/a	1	0	0
1342.4654	1	81	n/a	n/a	1	0	0
1342.6654	1	81	n/a	n/a	1	0	0
1342.8654	1	81	n/a	n/a	1	0	0
1343.0654	1	81	n/a	n/a	1	0	0
1343.2654	1	81	n/a	n/a	1	0	0
1343.4654	1	81	n/a	n/a	1	0	0
1343.6654	1	81	n/a	n/a	1	0	0
1343.8654	1	81	n/a	n/a	1	0	0
1344.0654	1	81	n/a	n/a	1	0	0
1345.3692	1	10	n/a	n/a	1	50	1
1346.4358	1	10	n/a	n/a	1	50	2
1347.5192	1	10	n/a	n/a	1	50	3
1348.6858	1	10	n/a	n/a	1	50	4
1349.969	1	10	n/a	n/a	1	50	5
1351.2522	1	21	n/a	n/a	1	50	0
1352.3856	1	10	n/a	n/a	1	50	1
1353.5188	1	10	n/a	n/a	1	50	2
1354.6688	1	10	n/a	n/a	1	50	3
1355.7186	1	10	n/a	n/a	1	50	4
1357.0186	1	10	n/a	n/a	1	50	5
1358.0686	1	10	n/a	n/a	1	50	6
1359.3518	1	10	n/a	n/a	1	50	7
1360.635	1	21	n/a	n/a	1	50	0
1361.8682	1	10	n/a	n/a	1	50	1
1363.1516	1	10	n/a	n/a	1	50	2
1364.4348	1	10	n/a	n/a	1	50	3
1365.7514	1	10	n/a	n/a	1	50	4
1366.9514	1	10	n/a	n/a	1	50	5
1368.1512	1	21	n/a	n/a	1	50	0
1368.9058	1	81	n/a	n/a	1	0	0
1369.1058	1	81	n/a	n/a	1	0	0
1369.3058	1	81	n/a	n/a	1	0	0
1369.5058	1	81	n/a	n/a	1	0	0
1369.7058	1	81	n/a	n/a	1	0	0
1369.906	1	81	n/a	n/a	1	0	0
1370.106	1	81	n/a	n/a	1	0	0
1370.3058	1	81	n/a	n/a	1	0	0
1370.5058	1	81	n/a	n/a	1	0	0
1370.7058	1	81	n/a	n/a	1	0	0
1371.901	1	10	n/a	n/a	1	50	1
1373.0176	1	21	n/a	n/a	1	50	0
1374.3008	1	10	n/a	n/a	1	50	1
1375.3508	1	10	n/a	n/a	1	50	2
1376.4174	1	10	n/a	n/a	1	50	3
1377.634	1	10	n/a	n/a	1	50	4
1378.7506	1	10	n/a	n/a	1	50	5
1379.9006	1	10	n/a	n/a	1	50	6
1381.0004	1	10	n/a	n/a	1	50	7
1382.1004	1	21	n/a	n/a	1	50	0
1383.3836	1	10	n/a	n/a	1	50	1
1384.667	1	21	n/a	n/a	1	50	0
1385.8668	1	10	n/a	n/a	1	50	1
1387.0668	1	21	n/a	n/a	1	50	0
1388.2	1	10	n/a	n/a	1	50	1
1389.4334	1	10	n/a	n/a	1	50	2
1390.65	1	10	n/a	n/a	1	50	3
1391.8832	1	10	n/a	n/a	1	50	4
1393.0664	1	10	n/a	n/a	1	50	5
1394.133	1	10	n/a	n/a	1	50	6
1395.1274	1	81	n/a	n/a	1	0	0
1395.3274	1	81	n/a	n/a	1	0	0
1395.5274	1	81	n/a	n/a	1	0	0
1395.7274	1	81	n/a	n/a	1	0	0
1395.9274	1	81	n/a	n/a	1	0	0
1396.1274	1	81	n/a	n/a	1	0	0
1396.3274	1	81	n/a	n/a	1	0	0
1396.5274	1	81	n/a	n/a	1	0	0
1396.7274	1	81	n/a	n/a	1	0	0
1396.9274	1	81	n/a	n/a	1	0	0
1398.2994	1	10	n/a	n/a	1	50	1
1399.5828	1	10	n/a	n/a	1	50	2
1400.7994	1	10	n/a	n/a	1	50	3
1401.9326	1	10	n/a	n/a	1	50	4
1403.0326	1	10	n/a	n/a	1	50	5
1404.1324	1	21	n/a	n/a	1	50	0
1405.2158	1	10	n/a	n/a	1	50	1
1406.249	1	10	n/a	n/a	1	50	2
1407.5822	1	10	n/a	n/a	1	50	3
1408.6988	1	10	n/a	n/a	1	50	4
1409.7488	1	10	n/a	n/a	1	50	5
1410.7988	1	21	n/a	n/a	1	50	0
1412.032	1	10	n/a	n/a	1	50	1
1413.1652	1	10	n/a	n/a	1	50	2
1414.2818	1	10	n/a	n/a	1	50	3
1415.3984	1	21	n/a	n/a	1	50	0
1416.6984	1	10	n/a	n/a	1	50	1
1417.9816	1	10	n/a	n/a	1	50	2
1419.0148	1	10	n/a	n/a	1	50	3
1420.3148	1	10	n/a	n/a	1	50	4
1421.2012	1	81	n/a	n/a	1	0	0
1421.4012	1	81	n/a	n/a	1	0	0
1421.6012	1	81	n/a	n/a	1	0	0
1421.8012	1	81	n/a	n/a	1	0	0
1422.0012	1	81	n/a	n/a	1	0	0
1422.2012	1	81	n/a	n/a	1	0	0
1422.4012	1	81	n/a	n/a	1	0	0
1422.6012	1	81	n/a	n/a	1	0	0
1422.8012	1	81	n/a	n/a	1	0	0
1423.0012	1	81	n/a	n/a	1	0	0
1424.198	1	10	n/a	n/a	1	50	1
1425.4478	1	10	n/a	n/a	1	50	2
1426.4812	1	10	n/a	n/a	1	50	3
1427.5144	1	21	n/a	n/a	1	50	0
1428.6144	1	10	n/a	n/a	1	50	1
1429.7142	1	21	n/a	n/a	1	50	0
1430.8476	1	10	n/a	n/a	1	50	1
1432.1308	1	10	n/a	n/a	1	50	2
1433.2808	1	10	n/a	n/a	1	50	3
1434.4474	1	10	n/a	n/a	1	50	4
1435.5806	1	10	n/a	n/a	1	50	5
1436.6638	1	10	n/a	n/a	1	50	6
1437.8972	1	10	n/a	n/a	1	50	7
1439.1304	1	21	n/a	n/a	1	50	0
1440.297	1	10	n/a	n/a	1	50	1
1441.5636	1	10	n/a	n/a	1	50	2
1442.6134	1	10	n/a	n/a	1	50	3
1443.6634	1	21	n/a	n/a	1	50	0
1444.8466	1	10	n/a	n/a	1	50	1
1446.0134	1	10	n/a	n/a	1	50	2
1471.201	1	82	n/a	n/a	1	0	0
1471.231	1	82	n/a	n/a	1	0	0
1471.462	1	82	n/a	n/a	1	0	0
1471.656	1	82	n/a	n/a	1	0	0
1471.723	1	82	n/a	n/a	1	0	0
1472.201	1	82	n/a	n/a	1	0	0
1472.221	1	82	n/a	n/a	1	0	0
1472.303	1	82	n/a	n/a	1	0	0
1472.53	1	82	n/a	n/a	1	0	0
1472.64	1	82	n/a	n/a	1	0	0
1474.1782	1	10	n/a	n/a	1	52	1
1475.4616	1	10	n/a	n/a	1	52	2
1476.7782	1	10	n/a	n/a	1	52	3
1478.0948	1	10	n/a	n/a	1	52	4
1479.3614	1	10	n/a	n/a	1	52	5
1480.628	1	21	n/a	n/a	1	52	0
1481.7112	1	10	n/a	n/a	1	52	1
1482.7944	1	21	n/a	n/a	1	52	0
1483.911	1	10	n/a	n/a	1	52	1
1485.0444	1	10	n/a	n/a	1	52	2
1486.261	1	10	n/a	n/a	1	52	3
1487.4108	1	10	n/a	n/a	1	52	4
1488.5108	1	10	n/a	n/a	1	52	5
1489.6108	1	21	n/a	n/a	1	52	0
1490.644	1	10	n/a	n/a	1	52	1
1491.7606	1	10	n/a	n/a	1	52	2
1492.8606	1	10	n/a	n/a	1	52	3
1493.9604	1	21	n/a	n/a	1	52	0
1495.077	1	10	n/a	n/a	1	52	1
1496.1936	1	21	n/a	n/a	1	52	0
1497.0384	1	82	n/a	n/a	1	0	0
1497.1104	1	82	n/a	n/a	1	0	0
1497.2194	1	82	n/a	n/a	1	0	0
1497.5814	1	82	n/a	n/a	1	0	0
1497.9764	1	82	n/a	n/a	1	0	0
1498.0384	1	82	n/a	n/a	1	0	0
1498.0994	1	82	n/a	n/a	1	0	0
1498.3284	1	82	n/a	n/a	1	0	0
1498.4254	1	82	n/a	n/a	1	0	0
1498.5594	1	82	n/a	n/a	1	0	0
1500.0934	1	10	n/a	n/a	1	52	1
1501.2934	1	10	n/a	n/a	1	52	2
1502.5766	1	10	n/a	n/a	1	52	3
1503.7598	1	10	n/a	n/a	1	52	4
1504.9764	1	10	n/a	n/a	1	52	5
1506.0264	1	10	n/a	n/a	1	52	6
1507.2764	1	10	n/a	n/a	1	52	7
1508.5262	1	21	n/a	n/a	1	52	0
1509.5928	1	10	n/a	n/a	1	52	1
1510.6594	1	21	n/a	n/a	1	52	0
1511.9594	1	10	n/a	n/a	1	52	1
1513.026	1	10	n/a	n/a	1	52	2
1514.3426	1	10	n/a	n/a	1	52	3
1515.3926	1	10	n/a	n/a	1	52	4
1516.5592	1	10	n/a	n/a	1	52	5
1517.7758	1	10	n/a	n/a	1	52	6
1518.859	1	10	n/a	n/a	1	52	7
1519.9422	1	21	n/a	n/a	1	52	0
1521.0922	1	10	n/a	n/a	1	52	1
1522.2422	1	21	n/a	n/a	1	52	0
1523.2018	1	82	n/a	n/a	1	0	0
1523.6138	1	82	n/a	n/a	1	0	0
1524.0008	1	82	n/a	n/a	1	0	0
1524.0788	1	82	n/a	n/a	1	0	0
1524.1058	1	82	n/a	n/a	1	0	0
1524.2018	1	82	n/a	n/a	1	0	0
1524.5298	1	82	n/a	n/a	1	0	0
1524.7878	1	82	n/a	n/a	1	0	0
1524.9908	1	82	n/a	n/a	1	0	0
1525.1358	1	82	n/a	n/a	1	0	0
1526.3752	1	10	n/a	n/a	1	52	1
1527.4918	1	10	n/a	n/a	1	52	2
1528.5918	1	10	n/a	n/a	1	52	3
1529.675	1	10	n/a	n/a	1	52	4
1530.725	1	10	n/a	n/a	1	52	5
1531.7748	1	21	n/a	n/a	1	52	0
1532.8748	1	10	n/a	n/a	1	52	1
1533.9748	1	10	n/a	n/a	1	52	2
1535.0248	1	10	n/a	n/a	1	52	3
1536.0914	1	10	n/a	n/a	1	52	4
1537.1912	1	10	n/a	n/a	1	52	5
1538.3578	1	10	n/a	n/a	1	52	6
1539.5912	1	10	n/a	n/a	1	52	7
1540.8244	1	21	n/a	n/a	1	52	0
1541.9076	1	10	n/a	n/a	1	52	1
1542.991	1	21	n/a	n/a	1	52	0
1544.1742	1	10	n/a	n/a	1	52	1
1545.4908	1	10	n/a	n/a	1	52	2
1546.624	1	10	n/a	n/a	1	52	3
1547.6572	1	10	n/a	n/a	1	52	4
1548.5068	1	82	n/a	n/a	1	0	0
1548.6058	1	82	n/a	n/a	1	0	0
1548.8478	1	82	n/a	n/a	1	0	0
1549.0128	1	82	n/a	n/a	1	0	0
1549.0788	1	82	n/a	n/a	1	0	0
1549.5068	1	82	n/a	n/a	1	0	0
1549.6048	1	82	n/a	n/a	1	0	0
1549.9988	1	82	n/a	n/a	1	0	0
1550.0408	1	82	n/a	n/a	1	0	0
1550.3368	1	82	n/a	n/a	1	0	0
1551.5404	1	10	n/a	n/a	1	52	1
1552.807	1	10	n/a	n/a	1	52	2
1553.957	1	10	n/a	n/a	1	52	3
1555.1068	1	21	n/a	n/a	1	52	0
1556.3902	1	10	n/a	n/a	1	52	1
1557.6068	1	10	n/a	n/a	1	52	2
1558.89	1	10	n/a	n/a	1	52	3
1560.0066	1	10	n/a	n/a	1	52	4
1561.2398	1	10	n/a	n/a	1	52	5
1562.473	1	21	n/a	n/a	1	52	0
1563.773	1	10	n/a	n/a	1	52	1
1564.8062	1	10	n/a	n/a	1	52	2
1565.9228	1	10	n/a	n/a	1	52	3
1567.0394	1	21	n/a	n/a	1	52	0
1568.1728	1	10	n/a	n/a	1	52	1
1569.2226	1	10	n/a	n/a	1	52	2
1570.3392	1	10	n/a	n/a	1	52	3
1571.5392	1	10	n/a	n/a	1	52	4
1572.7392	1	10	n/a	n/a	1	52	5
1573.939	1	10	n/a	n/a	1	52	6
1574.7396	1	82	n/a	n/a	1	0	0
1575.1276	1	82	n/a	n/a	1	0	0
1575.1796	1	82	n/a	n/a	1	0	0
1575.3716	1	82	n/a	n/a	1	0	0
1575.5166	1	82	n/a	n/a	1	0	0
1575.7396	1	82	n/a	n/a	1	0	0
1576.0406	1	82	n/a	n/a	1	0	0
1576.2736	1	82	n/a	n/a	1	0	0
1576.3866	1	82	n/a	n/a	1	0	0
1576.4116	1	82	n/a	n/a	1	0	0
1577.7056	1	10	n/a	n/a	1	52	1
1578.8388	1	10	n/a	n/a	1	52	2
1579.922	1	10	n/a	n/a	1	52	3
1581.1054	1	10	n/a	n/a	1	52	4
1582.3886	1	10	n/a	n/a	1	52	5
1583.6718	1	10	n/a	n/a	1	52	6
1584.8884	1	10	n/a	n/a	1	52	7
1586.105	1	21	n/a	n/a	1	52	0
1587.3382	1	10	n/a	n/a	1	52	1
1588.6716	1	10	n/a	n/a	1	52	2
1589.7548	1	10	n/a	n/a	1	52	3
1590.838	1	21	n/a	n/a	1	52	0
1592.1546	1	10	n/a	n/a	1	52	1
1593.188	1	10	n/a	n/a	1	52	2
1594.5046	1	10	n/a	n/a	1	52	3
1595.5712	1	10	n/a	n/a	1	52	4
1596.8878	1	10	n/a	n/a	1	52	5
1598.1376	1	10	n/a	n/a	1	52	6
1599.1876	1	10	n/a	n/a	1	52	7
1600.2376	1	21	n/a	n/a	1	52	0
1675.0102	1	82	n/a	n/a	1	0	0
1675.2662	1	82	n/a	n/a	1	0	0
1675.3182	1	82	n/a	n/a	1	0	0
1675.5532	1	82	n/a	n/a	1	0	0
1675.7062	1	82	n/a	n/a	1	0	0
1676.0102	1	82	n/a	n/a	1	0	0
1676.2892	1	82	n/a	n/a	1	0	0
1676.4552	1	82	n/a	n/a	1	0	0
1676.6552	1	82	n/a	n/a	1	0	0
1676.7962	1	82	n/a	n/a	1	0	0
1677.983	1	10	n/a	n/a	1	52	1
1679.0496	1	10	n/a	n/a	1	52	2
1680.1994	1	10	n/a	n/a	1	52	3
1681.266	1	10	n/a	n/a	1	52	4
1682.5326	1	10	n/a	n/a	1	52	5
1683.616	1	10	n/a	n/a	1	52	6
1684.6992	1	10	n/a	n/a	1	52	7
1685.7824	1	21	n/a	n/a	1	52	0
1687.0658	1	10	n/a	n/a	1	52	1
1688.349	1	21	n/a	n/a	1	52	0
1689.649	1	10	n/a	n/a	1	52	1
1690.7488	1	10	n/a	n/a	1	52	2
1692.0488	1	10	n/a	n/a	1	52	3
1693.2154	1	10	n/a	n/a	1	52	4
1694.382	1	10	n/a	n/a	1	52	5
1695.5486	1	21	n/a	n/a	1	52	0
1696.7318	1	10	n/a	n/a	1	52	1
1697.7984	1	10	n/a	n/a	1	52	2
1699.065	1	10	n/a	n/a	1	52	3
1700.1482	1	10	n/a	n/a	1	52	4
1700.9038	1	82	n/a	n/a	1	0	0
1701.3148	1	82	n/a	n/a	1	0	0
1701.4288	1	82	n/a	n/a	1	0	0
1701.6088	1	82	n/a	n/a	1	0	0
1701.7448	1	82	n/a	n/a	1	0	0
1701.9038	1	82	n/a	n/a	1	0	0
1702.0798	1	82	n/a	n/a	1	0	0
1702.4468	1	82	n/a	n/a	1	0	0
1702.5128	1	82	n/a	n/a	1	0	0
1702.6098	1	82	n/a	n/a	1	0	0
1704.0148	1	10	n/a	n/a	1	52	1
1705.1146	1	10	n/a	n/a	1	52	2
1706.3312	1	10	n/a	n/a	1	52	3
1707.5646	1	10	n/a	n/a	1	52	4
1708.7644	1	10	n/a	n/a	1	52	5
1709.8144	1	10	n/a	n/a	1	52	6
1711.0976	1	10	n/a	n/a	1	52	7
1712.381	1	21	n/a	n/a	1	52	0
1713.6308	1	10	n/a	n/a	1	52	1
1714.6808	1	10	n/a	n/a	1	52	2
1715.864	1	10	n/a	n/a	1	52	3
1717.0472	1	21	n/a	n/a	1	52	0
1718.2806	1	10	n/a	n/a	1	52	1
1719.5138	1	21	n/a	n/a	1	52	0
1720.6304	1	10	n/a	n/a	1	52	1
1721.797	1	10	n/a	n/a	1	52	2
1722.8302	1	10	n/a	n/a	1	52	3
1723.8636	1	10	n/a	n/a	1	52	4
1724.9968	1	10	n/a	n/a	1	52	5
1726.13	1	21	n/a	n/a	1	52	0
1726.9888	1	82	n/a	n/a	1	0	0
1727.2368	1	82	n/a	n/a	1	0	0
1727.5828	1	82	n/a	n/a	1	0	0
1727.6328	1	82	n/a	n/a	1	0	0
1727.7408	1	82	n/a	n/a	1	0	0
1727.9888	1	82	n/a	n/a	1	0	0
1728.0218	1	82	n/a	n/a	1	0	0
1728.1138	1	82	n/a	n/a	1	0	0
1728.5508	1	82	n/a	n/a	1	0	0
1728.7768	1	82	n/a	n/a	1	0	0
1729.9132	1	10	n/a	n/a	1	52	1
1730.9632	1	21	n/a	n/a	1	52	0
1732.063	1	10	n/a	n/a	1	52	1
1733.3796	1	10	n/a	n/a	1	52	2
1734.413	1	10	n/a	n/a	1	52	3
1735.6128	1	10	n/a	n/a	1	52	4
1736.8794	1	10	n/a	n/a	1	52	5
1738.196	1	10	n/a	n/a	1	52	6
1739.446	1	10	n/a	n/a	1	52	7
1740.6958	1	21	n/a	n/a	1	52	0
1741.7458	1	10	n/a	n/a	1	52	1
1742.8458	1	10	n/a	n/a	1	52	2
1744.1456	1	10	n/a	n/a	1	52	3
1745.4456	1	21	n/a	n/a	1	52	0
1746.4956	1	10	n/a	n/a	1	52	1
1747.7288	1	10	n/a	n/a	1	52	2
1748.9788	1	10	n/a	n/a	1	52	3
1750.012	1	10	n/a	n/a	1	52	4
1751.1286	1	10	n/a	n/a	1	52	5
1752.2452	1	21	n/a	n/a	1	52	0
1753.294	1	82	n/a	n/a	1	0	0
1753.678	1	82	n/a	n/a	1	0	0
1753.704	1	82	n/a	n/a	1	0	0
1753.822	1	82	n/a	n/a	1	0	0
1754.238	1	82	n/a	n/a	1	0	0
1754.294	1	82	n/a	n/a	1	0	0
1754.574	1	82	n/a	n/a	1	0	0
1754.658	1	82	n/a	n/a	1	0	0
1755.021	1	82	n/a	n/a	1	0	0
1755.253	1	82	n/a	n/a	1	0	0
1756.5116	1	10	n/a	n/a	1	52	1
1757.7448	1	10	n/a	n/a	1	52	2
1758.8114	1	10	n/a	n/a	1	52	3
1759.8614	1	10	n/a	n/a	1	52	4
1761.0114	1	10	n/a	n/a	1	52	5
1762.1612	1	21	n/a	n/a	1	52	0
1763.2612	1	10	n/a	n/a	1	52	1
1764.4112	1	10	n/a	n/a	1	52	2
1765.611	1	10	n/a	n/a	1	52	3
1766.9276	1	10	n/a	n/a	1	52	4
1768.1276	1	10	n/a	n/a	1	52	5
1769.3942	1	10	n/a	n/a	1	52	6
1770.5274	1	10	n/a	n/a	1	52	7
1771.6608	1	21	n/a	n/a	1	52	0
1772.7606	1	10	n/a	n/a	1	52	1
1774.0606	1	10	n/a	n/a	1	52	2
1775.3272	1	10	n/a	n/a	1	52	3
1776.4438	1	10	n/a	n/a	1	52	4
1777.727	1	10	n/a	n/a	1	52	5
1779.0104	1	21	n/a	n/a	1	52	0
1779.8748	1	82	n/a	n/a	1	0	0
1780.1778	1	82	n/a	n/a	1	0	0
1780.5978	1	82	n/a	n/a	1	0	0
1780.7088	1	82	n/a	n/a	1	0	0
1780.7338	1	82	n/a	n/a	1	0	0
1780.8748	1	82	n/a	n/a	1	0	0
1781.2128	1	82	n/a	n/a	1	0	0
1781.3198	1	82	n/a	n/a	1	0	0
1781.3538	1	82	n/a	n/a	1	0	0
1781.5938	1	82	n/a	n/a	1	0	0
1782.8934	1	10	n/a	n/a	1	52	1
1783.96	1	10	n/a	n/a	1	52	2
1785.1266	1	10	n/a	n/a	1	52	3
1786.3266	1	10	n/a	n/a	1	52	4
1787.5264	1	10	n/a	n/a	1	52	5
1788.5764	1	10	n/a	n/a	1	52	6
1789.7596	1	10	n/a	n/a	1	52	7
1790.943	1	21	n/a	n/a	1	52	0
1792.2262	1	10	n/a	n/a	1	52	1
1793.3094	1	10	n/a	n/a	1	52	2
1794.5428	1	10	n/a	n/a	1	52	3
1795.8594	1	10	n/a	n/a	1	52	4
1797.1592	1	10	n/a	n/a	1	52	5
1798.2092	1	10	n/a	n/a	1	52	6
1799.4924	1	10	n/a	n/a	1	52	7
1800.7756	1	21	n/a	n/a	1	52	0
1801.859	1	10	n/a	n/a	1	52	1
1803.0756	1	10	n/a	n/a	1	52	2
1804.3922	1	10	n/a	n/a	1	52	3
1805.7088	1	10	n/a	n/a	1	52	4
1814.7594	1	82	n/a	n/a	1	0	0
1814.8572	1	82	n/a	n/a	1	0	0
1815.1382	1	82	n/a	n/a	1	0	0
1815.3572	1	82	n/a	n/a	1	0	0
1815.5022	1	82	n/a	n/a	1	0	0
1815.7594	1	82	n/a	n/a	1	0	0
1815.9354	1	82	n/a	n/a	1	0	0
1815.9854	1	82	n/a	n/a	1	0	0
1816.3764	1	82	n/a	n/a	1	0	0
1816.7144	1	82	n/a	n/a	1	0	0
1817.8746	1	10	n/a	n/a	1	50	1
1819.1412	1	10	n/a	n/a	1	50	2
1820.3246	1	10	n/a	n/a	1	50	3
1821.5578	1	10	n/a	n/a	1	50	4
1822.6244	1	10	n/a	n/a	1	50	5
1823.691	1	21	n/a	n/a	1	50	0
1824.741	1	10	n/a	n/a	1	50	1
1825.7742	1	10	n/a	n/a	1	50	2
1826.8742	1	10	n/a	n/a	1	50	3
1828.174	1	10	n/a	n/a	1	50	4
1829.2574	1	10	n/a	n/a	1	50	5
1830.3406	1	21	n/a	n/a	1	50	0
1831.5738	1	10	n/a	n/a	1	50	1
1832.8072	1	10	n/a	n/a	1	50	2
1834.0904	1	10	n/a	n/a	1	50	3
1835.3736	1	21	n/a	n/a	1	50	0
1836.6902	1	10	n/a	n/a	1	50	1
1837.7736	1	10	n/a	n/a	1	50	2
1838.8234	1	10	n/a	n/a	1	50	3
1839.8734	1	21	n/a	n/a	1	50	0
1840.705	1	82	n/a	n/a	1	0	0
1840.803	1	82	n/a	n/a	1	0	0
1840.931	1	82	n/a	n/a	1	0	0
1841.35	1	82	n/a	n/a	1	0	0
1841.379	1	82	n/a	n/a	1	0	0
1841.705	1	82	n/a	n/a	1	0	0
1841.835	1	82	n/a	n/a	1	0	0
1841.859	1	82	n/a	n/a	1	0	0
1842.231	1	82	n/a	n/a	1	0	0
1842.308	1	82	n/a	n/a	1	0	0
1843.8398	1	10	n/a	n/a	1	50	1
1844.9398	1	10	n/a	n/a	1	50	2
1846.0396	1	10	n/a	n/a	1	50	3
1847.2562	1	10	n/a	n/a	1	50	4
1848.3062	1	10	n/a	n/a	1	50	5
1849.4894	1	10	n/a	n/a	1	50	6
1850.556	1	10	n/a	n/a	1	50	7
1851.6226	1	21	n/a	n/a	1	50	0
1852.9392	1	10	n/a	n/a	1	50	1
1854.2392	1	10	n/a	n/a	1	50	2
1855.5224	1	10	n/a	n/a	1	50	3
1856.8058	1	21	n/a	n/a	1	50	0
1858.1056	1	10	n/a	n/a	1	50	1
1859.4056	1	21	n/a	n/a	1	50	0
1860.4722	1	10	n/a	n/a	1	50	1
1861.5388	1	21	n/a	n/a	1	50	0
1862.6554	1	10	n/a	n/a	1	50	1
1863.7886	1	10	n/a	n/a	1	50	2
1864.972	1	10	n/a	n/a	1	50	3
1866.0886	1	10	n/a	n/a	1	50	4
1867.015	1	82	n/a	n/a	1	0	0
1867.164	1	82	n/a	n/a	1	0	0
1867.266	1	82	n/a	n/a	1	0	0
1867.548	1	82	n/a	n/a	1	0	0
1867.806	1	82	n/a	n/a	1	0	0
1868.015	1	82	n/a	n/a	1	0	0
1868.315	1	82	n/a	n/a	1	0	0
1868.441	1	82	n/a	n/a	1	0	0
1868.7	1	82	n/a	n/a	1	0	0
1868.784	1	82	n/a	n/a	1	0	0
1870.0716	1	10	n/a	n/a	1	50	1
1871.3716	1	10	n/a	n/a	1	50	2
1872.5214	1	10	n/a	n/a	1	50	3
1873.7548	1	10	n/a	n/a	1	50	4
1875.0546	1	10	n/a	n/a	1	50	5
1876.3546	1	21	n/a	n/a	1	50	0
1877.6712	1	10	n/a	n/a	1	50	1
1878.8044	1	10	n/a	n/a	1	50	2
1880.1044	1	10	n/a	n/a	1	50	3
1881.4042	1	21	n/a	n/a	1	50	0
1882.4876	1	10	n/a	n/a	1	50	1
1883.5874	1	10	n/a	n/a	1	50	2
1884.8708	1	10	n/a	n/a	1	50	3
1886.1874	1	10	n/a	n/a	1	50	4
1887.454	1	10	n/a	n/a	1	50	5
1888.5372	1	10	n/a	n/a	1	50	6
1889.6872	1	10	n/a	n/a	1	50	7
1890.837	1	21	n/a	n/a	1	50	0
1892.137	1	10	n/a	n/a	1	50	1
1893.2202	1	10	n/a	n/a	1	50	2
1894.2968	1	82	n/a	n/a	1	0	0
1894.7246	1	82	n/a	n/a	1	0	0
1894.7586	1	82	n/a	n/a	1	0	0
1894.9546	1	82	n/a	n/a	1	0	0
1895.0526	1	82	n/a	n/a	1	0	0
1895.2968	1	82	n/a	n/a	1	0	0
1895.5308	1	82	n/a	n/a	1	0	0
1895.6198	1	82	n/a	n/a	1	0	0
1895.9468	1	82	n/a	n/a	1	0	0
1896.1118	1	82	n/a	n/a	1	0	0
1897.4534	1	10	n/a	n/a	1	50	1
1898.6532	1	10	n/a	n/a	1	50	2
1899.8698	1	10	n/a	n/a	1	50	3
1901.1364	1	10	n/a	n/a	1	50	4
1902.303	1	10	n/a	n/a	1	50	5
1903.4696	1	21	n/a	n/a	1	50	0
1904.6528	1	10	n/a	n/a	1	50	1
1905.9362	1	10	n/a	n/a	1	50	2
1907.2028	1	10	n/a	n/a	1	50	3
1908.4694	1	21	n/a	n/a	1	50	0
1909.6192	1	10	n/a	n/a	1	50	1
1910.8526	1	10	n/a	n/a	1	50	2
1912.0524	1	10	n/a	n/a	1	50	3
1913.219	1	10	n/a	n/a	1	50	4
1914.4024	1	10	n/a	n/a	1	50	5
1915.6856	1	10	n/a	n/a	1	50	6
1916.9856	1	10	n/a	n/a	1	50	7
1918.2854	1	21	n/a	n/a	1	50	0
1919.402	1	10	n/a	n/a	1	50	1
1920.5852	1	10	n/a	n/a	1	50	2
1921.4904	1	82	n/a	n/a	1	0	0
1921.7924	1	82	n/a	n/a	1	0	0
1921.8344	1	82	n/a	n/a	1	0	0
1921.9224	1	82	n/a	n/a	1	0	0
1922.1564	1	82	n/a	n/a	1	0	0
1922.4904	1	82	n/a	n/a	1	0	0
1922.8784	1	82	n/a	n/a	1	0	0
1922.9704	1	82	n/a	n/a	1	0	0
1923.0834	1	82	n/a	n/a	1	0	0
1923.2424	1	82	n/a	n/a	1	0	0
1924.635	1	10	n/a	n/a	1	50	1
1925.8016	1	10	n/a	n/a	1	50	2
1927.0016	1	10	n/a	n/a	1	50	3
1928.2848	1	10	n/a	n/a	1	50	4
1929.3514	1	10	n/a	n/a	1	50	5
1930.5514	1	10	n/a	n/a	1	50	6
1931.8512	1	10	n/a	n/a	1	50	7
1933.1512	1	21	n/a	n/a	1	50	0
1934.4678	1	10	n/a	n/a	1	50	1
1935.7844	1	10	n/a	n/a	1	50	2
1936.8176	1	10	n/a	n/a	1	50	3
1937.851	1	21	n/a	n/a	1	50	0
1938.9176	1	10	n/a	n/a	1	50	1
1940.0342	1	10	n/a	n/a	1	50	2
1941.1008	1	10	n/a	n/a	1	50	3
1942.1674	1	10	n/a	n/a	1	50	4
1943.2006	1	10	n/a	n/a	1	50	5
1944.2338	1	21	n/a	n/a	1	50	0
1945.5172	1	10	n/a	n/a	1	50	1
1946.667	1	10	n/a	n/a	1	50	2
1987.408	1	81	n/a	n/a	1	0	0
1987.608	1	81	n/a	n/a	1	0	0
1987.808	1	81	n/a	n/a	1	0	0
1988.008	1	81	n/a	n/a	1	0	0
1988.208	1	81	n/a	n/a	1	0	0
1988.408	1	81	n/a	n/a	1	0	0
1988.608	1	81	n/a	n/a	1	0	0
1988.808	1	81	n/a	n/a	1	0	0
1989.008	1	81	n/a	n/a	1	0	0
1989.208	1	81	n/a	n/a	1	0	0
1990.5978	1	10	n/a	n/a	1	51	1
1991.7312	1	10	n/a	n/a	1	51	2
1992.9644	1	10	n/a	n/a	1	51	3
1994.1642	1	10	n/a	n/a	1	51	4
1995.3476	1	10	n/a	n/a	1	51	5
1996.5308	1	21	n/a	n/a	1	51	0
1997.7308	1	10	n/a	n/a	1	51	1
1998.7806	1	10	n/a	n/a	1	51	2
2000.0472	1	10	n/a	n/a	1	51	3
2001.2138	1	10	n/a	n/a	1	51	4
2002.3138	1	10	n/a	n/a	1	51	5
2003.4304	1	10	n/a	n/a	1	51	6
2004.497	1	10	n/a	n/a	1	51	7
2005.5636	1	21	n/a	n/a	1	51	0
2006.6636	1	10	n/a	n/a	1	51	1
2007.7634	1	21	n/a	n/a	1	51	0
2008.83	1	10	n/a	n/a	1	51	1
2010.0134	1	10	n/a	n/a	1	51	2
2011.0966	1	10	n/a	n/a	1	51	3
2012.3966	1	10	n/a	n/a	1	51	4
2013.1392	1	81	n/a	n/a	1	0	0
2013.3392	1	81	n/a	n/a	1	0	0
2013.5392	1	81	n/a	n/a	1	0	0
2013.7392	1	81	n/a	n/a	1	0	0
2013.9392	1	81	n/a	n/a	1	0	0
2014.1392	1	81	n/a	n/a	1	0	0
2014.3392	1	81	n/a	n/a	1	0	0
2014.5392	1	81	n/a	n/a	1	0	0
2014.7392	1	81	n/a	n/a	1	0	0
2014.9392	1	81	n/a	n/a	1	0	0
2016.2464	1	10	n/a	n/a	1	51	1
2017.463	1	21	n/a	n/a	1	51	0
2018.5296	1	10	n/a	n/a	1	51	1
2019.5628	1	10	n/a	n/a	1	51	2
2020.646	1	10	n/a	n/a	1	51	3
2021.846	1	10	n/a	n/a	1	51	4
2023.0626	1	10	n/a	n/a	1	51	5
2024.2792	1	21	n/a	n/a	1	51	0
2025.3792	1	10	n/a	n/a	1	51	1
2026.5124	1	10	n/a	n/a	1	51	2
2027.6956	1	10	n/a	n/a	1	51	3
2028.879	1	21	n/a	n/a	1	51	0
2030.0956	1	10	n/a	n/a	1	51	1
2031.2954	1	10	n/a	n/a	1	51	2
2032.362	1	10	n/a	n/a	1	51	3
2033.5954	1	10	n/a	n/a	1	51	4
2034.712	1	10	n/a	n/a	1	51	5
2035.8286	1	21	n/a	n/a	1	51	0
2037.095	1	10	n/a	n/a	1	51	1
2038.3616	1	10	n/a	n/a	1	51	2
2039.226	1	81	n/a	n/a	1	0	0
2039.426	1	81	n/a	n/a	1	0	0
2039.626	1	81	n/a	n/a	1	0	0
2039.826	1	81	n/a	n/a	1	0	0
2040.026	1	81	n/a	n/a	1	0	0
2040.226	1	81	n/a	n/a	1	0	0
2040.426	1	81	n/a	n/a	1	0	0
2040.626	1	81	n/a	n/a	1	0	0
2040.826	1	81	n/a	n/a	1	0	0
2041.026	1	81	n/a	n/a	1	0	0
2042.1614	1	10	n/a	n/a	1	51	1
2043.2614	1	10	n/a	n/a	1	51	2
2044.528	1	10	n/a	n/a	1	51	3
2045.6446	1	10	n/a	n/a	1	51	4
2046.7446	1	10	n/a	n/a	1	51	5
2047.8444	1	21	n/a	n/a	1	51	0
2049.1278	1	10	n/a	n/a	1	51	1
2050.2944	1	10	n/a	n/a	1	51	2
2051.4776	1	10	n/a	n/a	1	51	3
2052.6608	1	21	n/a	n/a	1	51	0
2053.8608	1	10	n/a	n/a	1	51	1
2054.9608	1	10	n/a	n/a	1	51	2
2056.1274	1	10	n/a	n/a	1	51	3
2057.244	1	10	n/a	n/a	1	51	4
2058.2938	1	10	n/a	n/a	1	51	5
2059.4938	1	10	n/a	n/a	1	51	6
2060.727	1	10	n/a	n/a	1	51	7
2061.9604	1	21	n/a	n/a	1	51	0
2063.0102	1	10	n/a	n/a	1	51	1
2064.2434	1	10	n/a	n/a	1	51	2
2064.972	1	81	n/a	n/a	1	0	0
2065.172	1	81	n/a	n/a	1	0	0
2065.372	1	81	n/a	n/a	1	0	0
2065.572	1	81	n/a	n/a	1	0	0
2065.7718	1	81	n/a	n/a	1	0	0
2065.972	1	81	n/a	n/a	1	0	0
2066.172	1	81	n/a	n/a	1	0	0
2066.372	1	81	n/a	n/a	1	0	0
2066.572	1	81	n/a	n/a	1	0	0
2066.772	1	81	n/a	n/a	1	0	0
2068.01	1	10	n/a	n/a	1	51	1
2069.0932	1	10	n/a	n/a	1	51	2
2070.2764	1	10	n/a	n/a	1	51	3
2071.3264	1	10	n/a	n/a	1	51	4
2072.4264	1	10	n/a	n/a	1	51	5
2073.5262	1	21	n/a	n/a	1	51	0
2074.6096	1	10	n/a	n/a	1	51	1
2075.6428	1	10	n/a	n/a	1	51	2
2076.8094	1	10	n/a	n/a	1	51	3
2077.976	1	21	n/a	n/a	1	51	0
2079.1092	1	10	n/a	n/a	1	51	1
2080.3592	1	10	n/a	n/a	1	51	2
2081.6258	1	10	n/a	n/a	1	51	3
2082.6924	1	10	n/a	n/a	1	51	4
2084.009	1	10	n/a	n/a	1	51	5
2085.3256	1	21	n/a	n/a	1	51	0
2086.4756	1	10	n/a	n/a	1	51	1
2087.6088	1	10	n/a	n/a	1	51	2
2088.842	1	10	n/a	n/a	1	51	3
2089.9754	1	10	n/a	n/a	1	51	4
2090.9646	1	81	n/a	n/a	1	0	0
2091.1646	1	81	n/a	n/a	1	0	0
2091.3646	1	81	n/a	n/a	1	0	0
2091.5646	1	81	n/a	n/a	1	0	0
2091.7646	1	81	n/a	n/a	1	0	0
2091.9646	1	81	n/a	n/a	1	0	0
2092.1646	1	81	n/a	n/a	1	0	0
2092.3646	1	81	n/a	n/a	1	0	0
2092.5646	1	81	n/a	n/a	1	0	0
2092.7646	1	81	n/a	n/a	1	0	0
2094.0418	1	10	n/a	n/a	1	51	1
2095.225	1	21	n/a	n/a	1	51	0
2096.3082	1	10	n/a	n/a	1	51	1
2097.4582	1	10	n/a	n/a	1	51	2
2098.5082	1	10	n/a	n/a	1	51	3
2099.658	1	10	n/a	n/a	1	51	4
2100.9746	1	10	n/a	n/a	1	51	5
2102.108	1	10	n/a	n/a	1	51	6
2103.2578	1	10	n/a	n/a	1	51	7
2104.4078	1	21	n/a	n/a	1	51	0
2105.541	1	10	n/a	n/a	1	51	1
2106.6744	1	10	n/a	n/a	1	51	2
2107.7076	1	10	n/a	n/a	1	51	3
2108.9242	1	10	n/a	n/a	1	51	4
2110.0908	1	10	n/a	n/a	1	51	5
2111.2574	1	21	n/a	n/a	1	51	0
2112.3406	1	10	n/a	n/a	1	51	1
2113.6406	1	10	n/a	n/a	1	51	2
2114.8906	1	10	n/a	n/a	1	51	3
2116.1404	1	21	n/a	n/a	1	51	0
