onset	duration	value	response	rt	good	TMS	seq
136.0712	1	82	n/a	n/a	1	0	0
136.1892	1	82	n/a	n/a	1	0	0
136.2422	1	82	n/a	n/a	1	0	0
136.4942	1	82	n/a	n/a	1	0	0
136.7812	1	82	n/a	n/a	1	0	0
137.0712	1	82	n/a	n/a	1	0	0
137.1282	1	82	n/a	n/a	1	0	0
137.3072	1	82	n/a	n/a	1	0	0
137.6162	1	82	n/a	n/a	1	0	0
137.9482	1	82	n/a	n/a	1	0	0
139.1402	1	10	n/a	n/a	1	52	1
140.2234	1	10	n/a	n/a	1	52	2
141.3068	1	10	n/a	n/a	1	52	3
142.5566	1	10	n/a	n/a	1	52	4
143.7066	1	10	n/a	n/a	1	52	5
145.0232	1	10	n/a	n/a	1	52	6
146.1564	1	10	n/a	n/a	1	52	7
147.2898	1	21	n/a	n/a	1	52	0
148.3396	1	10	n/a	n/a	1	52	1
149.6562	1	10	n/a	n/a	1	52	2
150.7894	1	10	n/a	n/a	1	52	3
151.8894	1	10	n/a	n/a	1	52	4
153.206	1	10	n/a	n/a	1	52	5
154.4892	1	10	n/a	n/a	1	52	6
155.7558	1	10	n/a	n/a	1	52	7
157.0224	1	21	n/a	n/a	1	52	0
158.2724	1	10	n/a	n/a	1	52	1
159.5724	1	10	n/a	n/a	1	52	2
160.7556	1	10	n/a	n/a	1	52	3
161.9222	1	10	n/a	n/a	1	52	4
162.6536	1	82	n/a	n/a	1	0	0
162.8056	1	82	n/a	n/a	1	0	0
162.9186	1	82	n/a	n/a	1	0	0
163.1006	1	82	n/a	n/a	1	0	0
163.4446	1	82	n/a	n/a	1	0	0
163.6536	1	82	n/a	n/a	1	0	0
163.8116	1	82	n/a	n/a	1	0	0
164.1706	1	82	n/a	n/a	1	0	0
164.4356	1	82	n/a	n/a	1	0	0
164.5656	1	82	n/a	n/a	1	0	0
165.6052	1	10	n/a	n/a	1	52	1
166.7718	1	10	n/a	n/a	1	52	2
168.0052	1	10	n/a	n/a	1	52	3
169.055	1	10	n/a	n/a	1	52	4
170.1384	1	10	n/a	n/a	1	52	5
171.1716	1	10	n/a	n/a	1	52	6
172.4882	1	10	n/a	n/a	1	52	7
173.8048	1	21	n/a	n/a	1	52	0
175.0548	1	10	n/a	n/a	1	52	1
176.3214	1	21	n/a	n/a	1	52	0
177.6546	1	10	n/a	n/a	1	52	1
178.9878	1	21	n/a	n/a	1	52	0
180.2878	1	10	n/a	n/a	1	52	1
181.421	1	10	n/a	n/a	1	52	2
182.7042	1	10	n/a	n/a	1	52	3
183.9876	1	10	n/a	n/a	1	52	4
185.2874	1	10	n/a	n/a	1	52	5
186.5874	1	21	n/a	n/a	1	52	0
187.904	1	10	n/a	n/a	1	52	1
189.1206	1	10	n/a	n/a	1	52	2
190.0552	1	82	n/a	n/a	1	0	0
190.3352	1	82	n/a	n/a	1	0	0
190.7252	1	82	n/a	n/a	1	0	0
190.9022	1	82	n/a	n/a	1	0	0
190.9432	1	82	n/a	n/a	1	0	0
191.0554	1	82	n/a	n/a	1	0	0
191.1734	1	82	n/a	n/a	1	0	0
191.4704	1	82	n/a	n/a	1	0	0
191.8204	1	82	n/a	n/a	1	0	0
191.9662	1	82	n/a	n/a	1	0	0
193.0536	1	10	n/a	n/a	1	52	1
194.1036	1	10	n/a	n/a	1	52	2
195.4036	1	10	n/a	n/a	1	52	3
196.7034	1	21	n/a	n/a	1	52	0
197.9368	1	10	n/a	n/a	1	52	1
199.17	1	21	n/a	n/a	1	52	0
200.2032	1	10	n/a	n/a	1	52	1
201.3532	1	10	n/a	n/a	1	52	2
202.4198	1	10	n/a	n/a	1	52	3
203.7196	1	10	n/a	n/a	1	52	4
204.903	1	10	n/a	n/a	1	52	5
206.0862	1	21	n/a	n/a	1	52	0
207.3528	1	10	n/a	n/a	1	52	1
208.6194	1	21	n/a	n/a	1	52	0
209.736	1	10	n/a	n/a	1	52	1
211.0026	1	10	n/a	n/a	1	52	2
212.2692	1	10	n/a	n/a	1	52	3
213.4024	1	10	n/a	n/a	1	52	4
214.6024	1	10	n/a	n/a	1	52	5
215.7024	1	10	n/a	n/a	1	52	6
216.6828	1	82	n/a	n/a	1	0	0
217.0068	1	82	n/a	n/a	1	0	0
217.1678	1	82	n/a	n/a	1	0	0
217.5998	1	82	n/a	n/a	1	0	0
217.6238	1	82	n/a	n/a	1	0	0
217.6828	1	82	n/a	n/a	1	0	0
217.7948	1	82	n/a	n/a	1	0	0
217.8818	1	82	n/a	n/a	1	0	0
218.0168	1	82	n/a	n/a	1	0	0
218.2428	1	82	n/a	n/a	1	0	0
219.7854	1	10	n/a	n/a	1	52	1
221.002	1	21	n/a	n/a	1	52	0
222.252	1	10	n/a	n/a	1	52	1
223.5018	1	10	n/a	n/a	1	52	2
224.8018	1	10	n/a	n/a	1	52	3
226.1016	1	10	n/a	n/a	1	52	4
227.4016	1	10	n/a	n/a	1	52	5
228.5182	1	10	n/a	n/a	1	52	6
229.7014	1	10	n/a	n/a	1	52	7
230.8848	1	21	n/a	n/a	1	52	0
232.018	1	10	n/a	n/a	1	52	1
233.1512	1	21	n/a	n/a	1	52	0
234.2512	1	10	n/a	n/a	1	52	1
235.3678	1	21	n/a	n/a	1	52	0
236.4678	1	10	n/a	n/a	1	52	1
237.5676	1	21	n/a	n/a	1	52	0
238.601	1	10	n/a	n/a	1	52	1
239.9008	1	10	n/a	n/a	1	52	2
241.0674	1	10	n/a	n/a	1	52	3
242.284	1	10	n/a	n/a	1	52	4
243.3766	1	82	n/a	n/a	1	0	0
243.7026	1	82	n/a	n/a	1	0	0
243.7586	1	82	n/a	n/a	1	0	0
244.0346	1	82	n/a	n/a	1	0	0
244.1896	1	82	n/a	n/a	1	0	0
244.3766	1	82	n/a	n/a	1	0	0
244.7326	1	82	n/a	n/a	1	0	0
244.8386	1	82	n/a	n/a	1	0	0
245.1646	1	82	n/a	n/a	1	0	0
245.2276	1	82	n/a	n/a	1	0	0
246.3838	1	10	n/a	n/a	1	52	1
247.567	1	10	n/a	n/a	1	52	2
248.8504	1	10	n/a	n/a	1	52	3
250.1336	1	21	n/a	n/a	1	52	0
251.4336	1	10	n/a	n/a	1	52	1
252.6168	1	10	n/a	n/a	1	52	2
253.9334	1	10	n/a	n/a	1	52	3
255.2166	1	10	n/a	n/a	1	52	4
256.25	1	10	n/a	n/a	1	52	5
257.2832	1	21	n/a	n/a	1	52	0
258.4164	1	10	n/a	n/a	1	52	1
259.5164	1	10	n/a	n/a	1	52	2
260.5496	1	10	n/a	n/a	1	52	3
261.583	1	21	n/a	n/a	1	52	0
262.8996	1	10	n/a	n/a	1	52	1
263.9994	1	10	n/a	n/a	1	52	2
265.0328	1	10	n/a	n/a	1	52	3
266.066	1	21	n/a	n/a	1	52	0
267.366	1	10	n/a	n/a	1	52	1
268.5492	1	10	n/a	n/a	1	52	2
288.7524	1	82	n/a	n/a	1	0	0
289.1444	1	82	n/a	n/a	1	0	0
289.1694	1	82	n/a	n/a	1	0	0
289.2254	1	82	n/a	n/a	1	0	0
289.3134	1	82	n/a	n/a	1	0	0
289.7524	1	82	n/a	n/a	1	0	0
290.1274	1	82	n/a	n/a	1	0	0
290.2494	1	82	n/a	n/a	1	0	0
290.3484	1	82	n/a	n/a	1	0	0
290.4044	1	82	n/a	n/a	1	0	0
291.7312	1	10	n/a	n/a	1	50	1
292.7978	1	10	n/a	n/a	1	50	2
293.9644	1	10	n/a	n/a	1	50	3
295.1642	1	10	n/a	n/a	1	50	4
296.2808	1	10	n/a	n/a	1	50	5
297.3974	1	21	n/a	n/a	1	50	0
298.714	1	10	n/a	n/a	1	50	1
300.0306	1	21	n/a	n/a	1	50	0
301.2472	1	10	n/a	n/a	1	50	1
302.5138	1	10	n/a	n/a	1	50	2
303.747	1	10	n/a	n/a	1	50	3
304.9804	1	21	n/a	n/a	1	50	0
306.0802	1	10	n/a	n/a	1	50	1
307.2802	1	10	n/a	n/a	1	50	2
308.4968	1	10	n/a	n/a	1	50	3
309.8134	1	10	n/a	n/a	1	50	4
310.9634	1	10	n/a	n/a	1	50	5
312.28	1	10	n/a	n/a	1	50	6
313.4632	1	10	n/a	n/a	1	50	7
314.6464	1	21	n/a	n/a	1	50	0
315.6072	1	82	n/a	n/a	1	0	0
315.6912	1	82	n/a	n/a	1	0	0
315.7152	1	82	n/a	n/a	1	0	0
315.8422	1	82	n/a	n/a	1	0	0
316.1562	1	82	n/a	n/a	1	0	0
316.6072	1	82	n/a	n/a	1	0	0
316.6402	1	82	n/a	n/a	1	0	0
316.8932	1	82	n/a	n/a	1	0	0
317.0532	1	82	n/a	n/a	1	0	0
317.2742	1	82	n/a	n/a	1	0	0
318.5628	1	10	n/a	n/a	1	50	1
319.7962	1	10	n/a	n/a	1	50	2
320.8294	1	10	n/a	n/a	1	50	3
321.8626	1	21	n/a	n/a	1	50	0
323.1126	1	10	n/a	n/a	1	50	1
324.4126	1	10	n/a	n/a	1	50	2
325.4624	1	10	n/a	n/a	1	50	3
326.5124	1	10	n/a	n/a	1	50	4
327.779	1	10	n/a	n/a	1	50	5
328.9956	1	10	n/a	n/a	1	50	6
330.1456	1	10	n/a	n/a	1	50	7
331.2954	1	21	n/a	n/a	1	50	0
332.5954	1	10	n/a	n/a	1	50	1
333.8954	1	21	n/a	n/a	1	50	0
335.0286	1	10	n/a	n/a	1	50	1
336.2452	1	10	n/a	n/a	1	50	2
337.4618	1	10	n/a	n/a	1	50	3
338.595	1	10	n/a	n/a	1	50	4
339.9116	1	10	n/a	n/a	1	50	5
341.2282	1	21	n/a	n/a	1	50	0
342.249	1	82	n/a	n/a	1	0	0
342.655	1	82	n/a	n/a	1	0	0
342.907	1	82	n/a	n/a	1	0	0
343.006	1	82	n/a	n/a	1	0	0
343.048	1	82	n/a	n/a	1	0	0
343.249	1	82	n/a	n/a	1	0	0
343.609	1	82	n/a	n/a	1	0	0
343.645	1	82	n/a	n/a	1	0	0
344.041	1	82	n/a	n/a	1	0	0
344.124	1	82	n/a	n/a	1	0	0
345.178	1	10	n/a	n/a	1	50	1
346.3278	1	10	n/a	n/a	1	50	2
347.6112	1	10	n/a	n/a	1	50	3
348.8444	1	10	n/a	n/a	1	50	4
350.1444	1	10	n/a	n/a	1	50	5
351.1776	1	10	n/a	n/a	1	50	6
352.4442	1	10	n/a	n/a	1	50	7
353.7108	1	21	n/a	n/a	1	50	0
354.8608	1	10	n/a	n/a	1	50	1
356.0274	1	10	n/a	n/a	1	50	2
357.2606	1	10	n/a	n/a	1	50	3
358.5772	1	10	n/a	n/a	1	50	4
359.6438	1	10	n/a	n/a	1	50	5
360.7104	1	21	n/a	n/a	1	50	0
361.8104	1	10	n/a	n/a	1	50	1
362.877	1	10	n/a	n/a	1	50	2
364.1268	1	10	n/a	n/a	1	50	3
365.3768	1	21	n/a	n/a	1	50	0
366.6766	1	10	n/a	n/a	1	50	1
367.9766	1	21	n/a	n/a	1	50	0
368.8184	1	82	n/a	n/a	1	0	0
369.1904	1	82	n/a	n/a	1	0	0
369.4764	1	82	n/a	n/a	1	0	0
369.5114	1	82	n/a	n/a	1	0	0
369.6304	1	82	n/a	n/a	1	0	0
369.8184	1	82	n/a	n/a	1	0	0
370.0414	1	82	n/a	n/a	1	0	0
370.0874	1	82	n/a	n/a	1	0	0
370.3744	1	82	n/a	n/a	1	0	0
370.7754	1	82	n/a	n/a	1	0	0
371.943	1	10	n/a	n/a	1	50	1
373.1764	1	21	n/a	n/a	1	50	0
374.2762	1	10	n/a	n/a	1	50	1
375.3762	1	21	n/a	n/a	1	50	0
376.4928	1	10	n/a	n/a	1	50	1
377.5594	1	10	n/a	n/a	1	50	2
378.6094	1	10	n/a	n/a	1	50	3
379.676	1	10	n/a	n/a	1	50	4
380.8592	1	10	n/a	n/a	1	50	5
382.0424	1	21	n/a	n/a	1	50	0
383.1924	1	10	n/a	n/a	1	50	1
384.4924	1	10	n/a	n/a	1	50	2
385.5756	1	10	n/a	n/a	1	50	3
386.7088	1	10	n/a	n/a	1	50	4
387.8088	1	10	n/a	n/a	1	50	5
388.942	1	10	n/a	n/a	1	50	6
390.0586	1	10	n/a	n/a	1	50	7
391.1752	1	21	n/a	n/a	1	50	0
392.3086	1	10	n/a	n/a	1	50	1
393.4418	1	21	n/a	n/a	1	50	0
394.3224	1	82	n/a	n/a	1	0	0
394.6604	1	82	n/a	n/a	1	0	0
395.0444	1	82	n/a	n/a	1	0	0
395.1874	1	82	n/a	n/a	1	0	0
395.2554	1	82	n/a	n/a	1	0	0
395.3226	1	82	n/a	n/a	1	0	0
395.4786	1	82	n/a	n/a	1	0	0
395.4986	1	82	n/a	n/a	1	0	0
395.8596	1	82	n/a	n/a	1	0	0
396.2526	1	82	n/a	n/a	1	0	0
397.3748	1	10	n/a	n/a	1	50	1
398.6748	1	10	n/a	n/a	1	50	2
399.758	1	10	n/a	n/a	1	50	3
400.8414	1	21	n/a	n/a	1	50	0
401.958	1	10	n/a	n/a	1	50	1
403.2078	1	10	n/a	n/a	1	50	2
404.2744	1	10	n/a	n/a	1	50	3
405.441	1	10	n/a	n/a	1	50	4
406.7076	1	10	n/a	n/a	1	50	5
407.9742	1	21	n/a	n/a	1	50	0
409.0408	1	10	n/a	n/a	1	50	1
410.0742	1	10	n/a	n/a	1	50	2
411.124	1	10	n/a	n/a	1	50	3
412.4074	1	10	n/a	n/a	1	50	4
413.4906	1	10	n/a	n/a	1	50	5
414.7072	1	10	n/a	n/a	1	50	6
415.7572	1	10	n/a	n/a	1	50	7
416.807	1	21	n/a	n/a	1	50	0
418.057	1	10	n/a	n/a	1	50	1
419.1736	1	10	n/a	n/a	1	50	2
456.7294	1	81	n/a	n/a	1	0	0
456.9294	1	81	n/a	n/a	1	0	0
457.1294	1	81	n/a	n/a	1	0	0
457.3294	1	81	n/a	n/a	1	0	0
457.5294	1	81	n/a	n/a	1	0	0
457.7294	1	81	n/a	n/a	1	0	0
457.9294	1	81	n/a	n/a	1	0	0
458.1294	1	81	n/a	n/a	1	0	0
458.3294	1	81	n/a	n/a	1	0	0
458.5294	1	81	n/a	n/a	1	0	0
459.8712	1	10	n/a	n/a	1	51	1
461.1212	1	21	n/a	n/a	1	51	0
462.2876	1	10	n/a	n/a	1	51	1
463.4376	1	10	n/a	n/a	1	51	2
464.521	1	10	n/a	n/a	1	51	3
465.6042	1	21	n/a	n/a	1	51	0
466.7708	1	10	n/a	n/a	1	51	1
467.9374	1	21	n/a	n/a	1	51	0
469.254	1	10	n/a	n/a	1	51	1
470.5706	1	10	n/a	n/a	1	51	2
471.6372	1	10	n/a	n/a	1	51	3
472.8704	1	10	n/a	n/a	1	51	4
474.1704	1	10	n/a	n/a	1	51	5
475.4702	1	21	n/a	n/a	1	51	0
476.7036	1	10	n/a	n/a	1	51	1
478.0034	1	10	n/a	n/a	1	51	2
479.2534	1	10	n/a	n/a	1	51	3
480.5366	1	10	n/a	n/a	1	51	4
481.8532	1	10	n/a	n/a	1	51	5
483.1698	1	21	n/a	n/a	1	51	0
484.0624	1	81	n/a	n/a	1	0	0
484.2624	1	81	n/a	n/a	1	0	0
484.4624	1	81	n/a	n/a	1	0	0
484.6624	1	81	n/a	n/a	1	0	0
484.8624	1	81	n/a	n/a	1	0	0
485.0624	1	81	n/a	n/a	1	0	0
485.2624	1	81	n/a	n/a	1	0	0
485.4624	1	81	n/a	n/a	1	0	0
485.6624	1	81	n/a	n/a	1	0	0
485.8624	1	81	n/a	n/a	1	0	0
486.9862	1	10	n/a	n/a	1	51	1
488.0862	1	10	n/a	n/a	1	51	2
489.2362	1	10	n/a	n/a	1	51	3
490.386	1	21	n/a	n/a	1	51	0
491.486	1	10	n/a	n/a	1	51	1
492.536	1	10	n/a	n/a	1	51	2
493.7858	1	10	n/a	n/a	1	51	3
495.0358	1	21	n/a	n/a	1	51	0
496.1524	1	10	n/a	n/a	1	51	1
497.269	1	21	n/a	n/a	1	51	0
498.4022	1	10	n/a	n/a	1	51	1
499.4354	1	10	n/a	n/a	1	51	2
500.752	1	10	n/a	n/a	1	51	3
501.8186	1	10	n/a	n/a	1	51	4
503.102	1	10	n/a	n/a	1	51	5
504.2686	1	10	n/a	n/a	1	51	6
505.4352	1	10	n/a	n/a	1	51	7
506.6018	1	21	n/a	n/a	1	51	0
507.7184	1	10	n/a	n/a	1	51	1
508.835	1	21	n/a	n/a	1	51	0
509.7346	1	81	n/a	n/a	1	0	0
509.9346	1	81	n/a	n/a	1	0	0
510.1346	1	81	n/a	n/a	1	0	0
510.3346	1	81	n/a	n/a	1	0	0
510.5346	1	81	n/a	n/a	1	0	0
510.7346	1	81	n/a	n/a	1	0	0
510.9346	1	81	n/a	n/a	1	0	0
511.1346	1	81	n/a	n/a	1	0	0
511.3346	1	81	n/a	n/a	1	0	0
511.5346	1	81	n/a	n/a	1	0	0
512.6848	1	10	n/a	n/a	1	51	1
513.9514	1	10	n/a	n/a	1	51	2
515.0346	1	10	n/a	n/a	1	51	3
516.1178	1	21	n/a	n/a	1	51	0
517.3844	1	10	n/a	n/a	1	51	1
518.6844	1	10	n/a	n/a	1	51	2
519.7676	1	10	n/a	n/a	1	51	3
521.0842	1	10	n/a	n/a	1	51	4
522.2174	1	10	n/a	n/a	1	51	5
523.3508	1	21	n/a	n/a	1	51	0
524.384	1	10	n/a	n/a	1	51	1
525.7006	1	10	n/a	n/a	1	51	2
526.9172	1	10	n/a	n/a	1	51	3
528.0004	1	10	n/a	n/a	1	51	4
529.2838	1	10	n/a	n/a	1	51	5
530.567	1	21	n/a	n/a	1	51	0
531.6502	1	10	n/a	n/a	1	51	1
532.7336	1	21	n/a	n/a	1	51	0
534.0334	1	10	n/a	n/a	1	51	1
535.1668	1	10	n/a	n/a	1	51	2
536.013	1	81	n/a	n/a	1	0	0
536.213	1	81	n/a	n/a	1	0	0
536.413	1	81	n/a	n/a	1	0	0
536.613	1	81	n/a	n/a	1	0	0
536.813	1	81	n/a	n/a	1	0	0
537.0132	1	81	n/a	n/a	1	0	0
537.2132	1	81	n/a	n/a	1	0	0
537.4132	1	81	n/a	n/a	1	0	0
537.6132	1	81	n/a	n/a	1	0	0
537.8132	1	81	n/a	n/a	1	0	0
539.0832	1	10	n/a	n/a	1	51	1
540.2498	1	10	n/a	n/a	1	51	2
541.333	1	10	n/a	n/a	1	51	3
542.4162	1	10	n/a	n/a	1	51	4
543.6996	1	10	n/a	n/a	1	51	5
544.7662	1	10	n/a	n/a	1	51	6
545.8828	1	10	n/a	n/a	1	51	7
546.9994	1	21	n/a	n/a	1	51	0
548.2826	1	10	n/a	n/a	1	51	1
549.3826	1	10	n/a	n/a	1	51	2
550.6158	1	10	n/a	n/a	1	51	3
551.8324	1	10	n/a	n/a	1	51	4
552.899	1	10	n/a	n/a	1	51	5
554.049	1	10	n/a	n/a	1	51	6
555.3656	1	10	n/a	n/a	1	51	7
556.6822	1	21	n/a	n/a	1	51	0
558.0154	1	10	n/a	n/a	1	51	1
559.3486	1	21	n/a	n/a	1	51	0
560.5818	1	10	n/a	n/a	1	51	1
561.6152	1	10	n/a	n/a	1	51	2
562.5036	1	81	n/a	n/a	1	0	0
562.7036	1	81	n/a	n/a	1	0	0
562.9036	1	81	n/a	n/a	1	0	0
563.1036	1	81	n/a	n/a	1	0	0
563.3036	1	81	n/a	n/a	1	0	0
563.5036	1	81	n/a	n/a	1	0	0
563.7036	1	81	n/a	n/a	1	0	0
563.9036	1	81	n/a	n/a	1	0	0
564.1036	1	81	n/a	n/a	1	0	0
564.3036	1	81	n/a	n/a	1	0	0
565.4982	1	10	n/a	n/a	1	51	1
566.6148	1	10	n/a	n/a	1	51	2
567.8148	1	10	n/a	n/a	1	51	3
568.9148	1	10	n/a	n/a	1	51	4
570.0814	1	10	n/a	n/a	1	51	5
571.248	1	21	n/a	n/a	1	51	0
572.3312	1	10	n/a	n/a	1	51	1
573.4144	1	21	n/a	n/a	1	51	0
574.481	1	10	n/a	n/a	1	51	1
575.5476	1	21	n/a	n/a	1	51	0
576.8642	1	10	n/a	n/a	1	51	1
578.0308	1	10	n/a	n/a	1	51	2
579.3642	1	10	n/a	n/a	1	51	3
580.5474	1	10	n/a	n/a	1	51	4
581.864	1	10	n/a	n/a	1	51	5
582.964	1	10	n/a	n/a	1	51	6
583.9972	1	10	n/a	n/a	1	51	7
585.0304	1	21	n/a	n/a	1	51	0
586.147	1	10	n/a	n/a	1	51	1
587.397	1	10	n/a	n/a	1	51	2
707.3958	1	81	n/a	n/a	1	0	0
707.5958	1	81	n/a	n/a	1	0	0
707.7958	1	81	n/a	n/a	1	0	0
707.9958	1	81	n/a	n/a	1	0	0
708.1958	1	81	n/a	n/a	1	0	0
708.3958	1	81	n/a	n/a	1	0	0
708.5958	1	81	n/a	n/a	1	0	0
708.7958	1	81	n/a	n/a	1	0	0
708.9958	1	81	n/a	n/a	1	0	0
709.1958	1	81	n/a	n/a	1	0	0
710.3882	1	10	n/a	n/a	1	51	1
711.4882	1	21	n/a	n/a	1	51	0
712.7546	1	10	n/a	n/a	1	51	1
714.0712	1	10	n/a	n/a	1	51	2
715.3712	1	10	n/a	n/a	1	51	3
716.5544	1	10	n/a	n/a	1	51	4
717.6878	1	10	n/a	n/a	1	51	5
718.8876	1	10	n/a	n/a	1	51	6
720.1376	1	10	n/a	n/a	1	51	7
721.3876	1	21	n/a	n/a	1	51	0
722.6042	1	10	n/a	n/a	1	51	1
723.7708	1	10	n/a	n/a	1	51	2
724.8706	1	10	n/a	n/a	1	51	3
726.0372	1	10	n/a	n/a	1	51	4
727.1372	1	10	n/a	n/a	1	51	5
728.2538	1	10	n/a	n/a	1	51	6
729.3204	1	10	n/a	n/a	1	51	7
730.387	1	21	n/a	n/a	1	51	0
731.6036	1	10	n/a	n/a	1	51	1
732.8868	1	10	n/a	n/a	1	51	2
733.7282	1	81	n/a	n/a	1	0	0
733.9282	1	81	n/a	n/a	1	0	0
734.1282	1	81	n/a	n/a	1	0	0
734.3282	1	81	n/a	n/a	1	0	0
734.5282	1	81	n/a	n/a	1	0	0
734.7282	1	81	n/a	n/a	1	0	0
734.9282	1	81	n/a	n/a	1	0	0
735.1282	1	81	n/a	n/a	1	0	0
735.3282	1	81	n/a	n/a	1	0	0
735.5282	1	81	n/a	n/a	1	0	0
736.8032	1	10	n/a	n/a	1	51	1
737.9532	1	10	n/a	n/a	1	51	2
739.1698	1	10	n/a	n/a	1	51	3
740.3698	1	10	n/a	n/a	1	51	4
741.453	1	10	n/a	n/a	1	51	5
742.5362	1	21	n/a	n/a	1	51	0
743.7362	1	10	n/a	n/a	1	51	1
744.7694	1	10	n/a	n/a	1	51	2
745.9528	1	10	n/a	n/a	1	51	3
747.2526	1	10	n/a	n/a	1	51	4
748.5692	1	10	n/a	n/a	1	51	5
749.8858	1	21	n/a	n/a	1	51	0
751.2024	1	10	n/a	n/a	1	51	1
752.519	1	10	n/a	n/a	1	51	2
753.819	1	10	n/a	n/a	1	51	3
754.9522	1	10	n/a	n/a	1	51	4
755.9854	1	10	n/a	n/a	1	51	5
757.2188	1	10	n/a	n/a	1	51	6
758.452	1	10	n/a	n/a	1	51	7
759.6852	1	21	n/a	n/a	1	51	0
760.65	1	81	n/a	n/a	1	0	0
760.85	1	81	n/a	n/a	1	0	0
761.05	1	81	n/a	n/a	1	0	0
761.25	1	81	n/a	n/a	1	0	0
761.45	1	81	n/a	n/a	1	0	0
761.65	1	81	n/a	n/a	1	0	0
761.85	1	81	n/a	n/a	1	0	0
762.05	1	81	n/a	n/a	1	0	0
762.25	1	81	n/a	n/a	1	0	0
762.45	1	81	n/a	n/a	1	0	0
763.8016	1	10	n/a	n/a	1	51	1
765.0016	1	10	n/a	n/a	1	51	2
766.0848	1	10	n/a	n/a	1	51	3
767.2348	1	10	n/a	n/a	1	51	4
768.5014	1	10	n/a	n/a	1	51	5
769.7846	1	10	n/a	n/a	1	51	6
770.9846	1	10	n/a	n/a	1	51	7
772.1846	1	21	n/a	n/a	1	51	0
773.2844	1	10	n/a	n/a	1	51	1
774.3844	1	21	n/a	n/a	1	51	0
775.5676	1	10	n/a	n/a	1	51	1
776.6676	1	10	n/a	n/a	1	51	2
777.9842	1	10	n/a	n/a	1	51	3
779.1674	1	10	n/a	n/a	1	51	4
780.2674	1	10	n/a	n/a	1	51	5
781.3674	1	21	n/a	n/a	1	51	0
782.6338	1	10	n/a	n/a	1	51	1
783.9004	1	21	n/a	n/a	1	51	0
785.0004	1	10	n/a	n/a	1	51	1
786.2504	1	10	n/a	n/a	1	51	2
786.9978	1	81	n/a	n/a	1	0	0
787.1978	1	81	n/a	n/a	1	0	0
787.3978	1	81	n/a	n/a	1	0	0
787.5978	1	81	n/a	n/a	1	0	0
787.7978	1	81	n/a	n/a	1	0	0
787.9978	1	81	n/a	n/a	1	0	0
788.1978	1	81	n/a	n/a	1	0	0
788.3978	1	81	n/a	n/a	1	0	0
788.5978	1	81	n/a	n/a	1	0	0
788.7978	1	81	n/a	n/a	1	0	0
789.9168	1	10	n/a	n/a	1	51	1
791.1	1	10	n/a	n/a	1	51	2
792.1834	1	10	n/a	n/a	1	51	3
793.2166	1	10	n/a	n/a	1	51	4
794.4166	1	10	n/a	n/a	1	51	5
795.6164	1	21	n/a	n/a	1	51	0
796.683	1	10	n/a	n/a	1	51	1
797.9996	1	10	n/a	n/a	1	51	2
799.1162	1	10	n/a	n/a	1	51	3
800.4162	1	10	n/a	n/a	1	51	4
801.5494	1	10	n/a	n/a	1	51	5
802.616	1	10	n/a	n/a	1	51	6
803.7826	1	10	n/a	n/a	1	51	7
804.9492	1	21	n/a	n/a	1	51	0
806.2492	1	10	n/a	n/a	1	51	1
807.3658	1	10	n/a	n/a	1	51	2
808.4158	1	10	n/a	n/a	1	51	3
809.6156	1	10	n/a	n/a	1	51	4
810.6656	1	10	n/a	n/a	1	51	5
811.7156	1	21	n/a	n/a	1	51	0
812.6262	1	81	n/a	n/a	1	0	0
812.8262	1	81	n/a	n/a	1	0	0
813.0262	1	81	n/a	n/a	1	0	0
813.2262	1	81	n/a	n/a	1	0	0
813.4262	1	81	n/a	n/a	1	0	0
813.6262	1	81	n/a	n/a	1	0	0
813.8262	1	81	n/a	n/a	1	0	0
814.0262	1	81	n/a	n/a	1	0	0
814.2262	1	81	n/a	n/a	1	0	0
814.4262	1	81	n/a	n/a	1	0	0
815.7986	1	10	n/a	n/a	1	51	1
816.9152	1	10	n/a	n/a	1	51	2
818.2152	1	10	n/a	n/a	1	51	3
819.4818	1	10	n/a	n/a	1	51	4
820.665	1	10	n/a	n/a	1	51	5
821.7482	1	10	n/a	n/a	1	51	6
822.8482	1	10	n/a	n/a	1	51	7
823.9482	1	21	n/a	n/a	1	51	0
825.2314	1	10	n/a	n/a	1	51	1
826.4146	1	10	n/a	n/a	1	51	2
827.498	1	10	n/a	n/a	1	51	3
828.5812	1	21	n/a	n/a	1	51	0
829.8644	1	10	n/a	n/a	1	51	1
831.181	1	10	n/a	n/a	1	51	2
832.431	1	10	n/a	n/a	1	51	3
833.5976	1	10	n/a	n/a	1	51	4
834.8642	1	10	n/a	n/a	1	51	5
836.0308	1	10	n/a	n/a	1	51	6
837.0806	1	10	n/a	n/a	1	51	7
838.1306	1	21	n/a	n/a	1	51	0
848.4838	1	81	n/a	n/a	1	0	0
848.6838	1	81	n/a	n/a	1	0	0
848.8838	1	81	n/a	n/a	1	0	0
849.0838	1	81	n/a	n/a	1	0	0
849.2838	1	81	n/a	n/a	1	0	0
849.4838	1	81	n/a	n/a	1	0	0
849.6838	1	81	n/a	n/a	1	0	0
849.8838	1	81	n/a	n/a	1	0	0
850.0838	1	81	n/a	n/a	1	0	0
850.2838	1	81	n/a	n/a	1	0	0
851.6964	1	10	n/a	n/a	1	50	1
852.8798	1	10	n/a	n/a	1	50	2
854.1796	1	10	n/a	n/a	1	50	3
855.4462	1	10	n/a	n/a	1	50	4
856.563	1	10	n/a	n/a	1	50	5
857.6794	1	21	n/a	n/a	1	50	0
858.9294	1	10	n/a	n/a	1	50	1
860.1626	1	10	n/a	n/a	1	50	2
861.4126	1	10	n/a	n/a	1	50	3
862.5126	1	10	n/a	n/a	1	50	4
863.6124	1	10	n/a	n/a	1	50	5
864.7124	1	21	n/a	n/a	1	50	0
865.8956	1	10	n/a	n/a	1	50	1
867.0456	1	10	n/a	n/a	1	50	2
868.3122	1	10	n/a	n/a	1	50	3
869.5454	1	10	n/a	n/a	1	50	4
870.7954	1	10	n/a	n/a	1	50	5
871.862	1	10	n/a	n/a	1	50	6
872.912	1	10	n/a	n/a	1	50	7
873.9618	1	21	n/a	n/a	1	50	0
875.0236	1	81	n/a	n/a	1	0	0
875.2236	1	81	n/a	n/a	1	0	0
875.4234	1	81	n/a	n/a	1	0	0
875.6234	1	81	n/a	n/a	1	0	0
875.8234	1	81	n/a	n/a	1	0	0
876.0236	1	81	n/a	n/a	1	0	0
876.2236	1	81	n/a	n/a	1	0	0
876.4236	1	81	n/a	n/a	1	0	0
876.6236	1	81	n/a	n/a	1	0	0
876.8236	1	81	n/a	n/a	1	0	0
877.945	1	10	n/a	n/a	1	50	1
878.9782	1	21	n/a	n/a	1	50	0
880.1448	1	10	n/a	n/a	1	50	1
881.2114	1	10	n/a	n/a	1	50	2
882.3946	1	10	n/a	n/a	1	50	3
883.4446	1	10	n/a	n/a	1	50	4
884.6446	1	10	n/a	n/a	1	50	5
885.8444	1	21	n/a	n/a	1	50	0
886.8944	1	10	n/a	n/a	1	50	1
888.1776	1	10	n/a	n/a	1	50	2
889.311	1	10	n/a	n/a	1	50	3
890.4442	1	21	n/a	n/a	1	50	0
891.5274	1	10	n/a	n/a	1	50	1
892.694	1	10	n/a	n/a	1	50	2
893.9774	1	10	n/a	n/a	1	50	3
895.144	1	10	n/a	n/a	1	50	4
896.3606	1	10	n/a	n/a	1	50	5
897.4272	1	10	n/a	n/a	1	50	6
898.4938	1	10	n/a	n/a	1	50	7
899.5604	1	21	n/a	n/a	1	50	0
900.644	1	81	n/a	n/a	1	0	0
900.844	1	81	n/a	n/a	1	0	0
901.044	1	81	n/a	n/a	1	0	0
901.244	1	81	n/a	n/a	1	0	0
901.444	1	81	n/a	n/a	1	0	0
901.644	1	81	n/a	n/a	1	0	0
901.844	1	81	n/a	n/a	1	0	0
902.044	1	81	n/a	n/a	1	0	0
902.244	1	81	n/a	n/a	1	0	0
902.444	1	81	n/a	n/a	1	0	0
903.8268	1	10	n/a	n/a	1	50	1
905.0934	1	10	n/a	n/a	1	50	2
906.1266	1	10	n/a	n/a	1	50	3
907.2598	1	10	n/a	n/a	1	50	4
908.4098	1	10	n/a	n/a	1	50	5
909.4598	1	10	n/a	n/a	1	50	6
910.593	1	10	n/a	n/a	1	50	7
911.7262	1	21	n/a	n/a	1	50	0
912.8928	1	10	n/a	n/a	1	50	1
914.0594	1	21	n/a	n/a	1	50	0
915.326	1	10	n/a	n/a	1	50	1
916.5926	1	21	n/a	n/a	1	50	0
917.626	1	10	n/a	n/a	1	50	1
918.6592	1	21	n/a	n/a	1	50	0
919.8092	1	10	n/a	n/a	1	50	1
921.0758	1	10	n/a	n/a	1	50	2
922.1756	1	10	n/a	n/a	1	50	3
923.309	1	10	n/a	n/a	1	50	4
924.3756	1	10	n/a	n/a	1	50	5
925.4422	1	21	n/a	n/a	1	50	0
926.5008	1	81	n/a	n/a	1	0	0
926.7008	1	81	n/a	n/a	1	0	0
926.9008	1	81	n/a	n/a	1	0	0
927.1008	1	81	n/a	n/a	1	0	0
927.3008	1	81	n/a	n/a	1	0	0
927.5008	1	81	n/a	n/a	1	0	0
927.7008	1	81	n/a	n/a	1	0	0
927.9008	1	81	n/a	n/a	1	0	0
928.1008	1	81	n/a	n/a	1	0	0
928.3008	1	81	n/a	n/a	1	0	0
929.5586	1	10	n/a	n/a	1	50	1
930.7418	1	10	n/a	n/a	1	50	2
931.9918	1	10	n/a	n/a	1	50	3
933.275	1	10	n/a	n/a	1	50	4
934.3582	1	10	n/a	n/a	1	50	5
935.4416	1	21	n/a	n/a	1	50	0
936.7082	1	10	n/a	n/a	1	50	1
937.8248	1	10	n/a	n/a	1	50	2
938.9414	1	10	n/a	n/a	1	50	3
940.1912	1	10	n/a	n/a	1	50	4
941.4078	1	10	n/a	n/a	1	50	5
942.4412	1	10	n/a	n/a	1	50	6
943.7244	1	10	n/a	n/a	1	50	7
945.0076	1	21	n/a	n/a	1	50	0
946.2576	1	10	n/a	n/a	1	50	1
947.5742	1	10	n/a	n/a	1	50	2
948.6908	1	10	n/a	n/a	1	50	3
949.824	1	10	n/a	n/a	1	50	4
951.1072	1	10	n/a	n/a	1	50	5
952.2738	1	10	n/a	n/a	1	50	6
953.0694	1	81	n/a	n/a	1	0	0
953.2694	1	81	n/a	n/a	1	0	0
953.4694	1	81	n/a	n/a	1	0	0
953.6694	1	81	n/a	n/a	1	0	0
953.8694	1	81	n/a	n/a	1	0	0
954.0694	1	81	n/a	n/a	1	0	0
954.2694	1	81	n/a	n/a	1	0	0
954.4694	1	81	n/a	n/a	1	0	0
954.6694	1	81	n/a	n/a	1	0	0
954.8694	1	81	n/a	n/a	1	0	0
956.1904	1	10	n/a	n/a	1	50	1
957.457	1	10	n/a	n/a	1	50	2
958.5902	1	10	n/a	n/a	1	50	3
959.8734	1	10	n/a	n/a	1	50	4
961.04	1	10	n/a	n/a	1	50	5
962.34	1	10	n/a	n/a	1	50	6
963.5566	1	10	n/a	n/a	1	50	7
964.7732	1	21	n/a	n/a	1	50	0
966.0898	1	10	n/a	n/a	1	50	1
967.4064	1	21	n/a	n/a	1	50	0
968.4562	1	10	n/a	n/a	1	50	1
969.5896	1	10	n/a	n/a	1	50	2
970.6728	1	10	n/a	n/a	1	50	3
971.906	1	10	n/a	n/a	1	50	4
973.0894	1	10	n/a	n/a	1	50	5
974.156	1	10	n/a	n/a	1	50	6
975.2726	1	10	n/a	n/a	1	50	7
976.3892	1	21	n/a	n/a	1	50	0
977.4724	1	10	n/a	n/a	1	50	1
978.5224	1	10	n/a	n/a	1	50	2
996.988	1	82	n/a	n/a	1	0	0
997.118	1	82	n/a	n/a	1	0	0
997.154	1	82	n/a	n/a	1	0	0
997.323	1	82	n/a	n/a	1	0	0
997.558	1	82	n/a	n/a	1	0	0
997.988	1	82	n/a	n/a	1	0	0
998.42	1	82	n/a	n/a	1	0	0
998.551	1	82	n/a	n/a	1	0	0
998.622	1	82	n/a	n/a	1	0	0
998.859	1	82	n/a	n/a	1	0	0
999.9378	1	10	n/a	n/a	1	52	1
1000.971	1	10	n/a	n/a	1	52	2
1002.2042	1	10	n/a	n/a	1	52	3
1003.4376	1	21	n/a	n/a	1	52	0
1004.6042	1	10	n/a	n/a	1	52	1
1005.7708	1	21	n/a	n/a	1	52	0
1006.854	1	10	n/a	n/a	1	52	1
1007.9372	1	21	n/a	n/a	1	52	0
1009.0372	1	10	n/a	n/a	1	52	1
1010.3372	1	10	n/a	n/a	1	52	2
1011.4704	1	10	n/a	n/a	1	52	3
1012.6036	1	21	n/a	n/a	1	52	0
1013.6536	1	10	n/a	n/a	1	52	1
1014.7036	1	10	n/a	n/a	1	52	2
1015.9868	1	10	n/a	n/a	1	52	3
1017.27	1	21	n/a	n/a	1	52	0
1018.5534	1	10	n/a	n/a	1	52	1
1019.72	1	10	n/a	n/a	1	52	2
1020.7532	1	10	n/a	n/a	1	52	3
1021.9032	1	10	n/a	n/a	1	52	4
1023.0156	1	82	n/a	n/a	1	0	0
1023.1906	1	82	n/a	n/a	1	0	0
1023.2656	1	82	n/a	n/a	1	0	0
1023.5196	1	82	n/a	n/a	1	0	0
1023.9126	1	82	n/a	n/a	1	0	0
1024.0156	1	82	n/a	n/a	1	0	0
1024.0506	1	82	n/a	n/a	1	0	0
1024.4866	1	82	n/a	n/a	1	0	0
1024.7276	1	82	n/a	n/a	1	0	0
1024.8036	1	82	n/a	n/a	1	0	0
1026.1696	1	10	n/a	n/a	1	52	1
1027.2194	1	10	n/a	n/a	1	52	2
1028.536	1	10	n/a	n/a	1	52	3
1029.636	1	10	n/a	n/a	1	52	4
1030.736	1	10	n/a	n/a	1	52	5
1032.0192	1	10	n/a	n/a	1	52	6
1033.2524	1	10	n/a	n/a	1	52	7
1034.4858	1	21	n/a	n/a	1	52	0
1035.5856	1	10	n/a	n/a	1	52	1
1036.8522	1	10	n/a	n/a	1	52	2
1038.0522	1	10	n/a	n/a	1	52	3
1039.1354	1	10	n/a	n/a	1	52	4
1040.4186	1	10	n/a	n/a	1	52	5
1041.5686	1	10	n/a	n/a	1	52	6
1042.8018	1	10	n/a	n/a	1	52	7
1044.0352	1	21	n/a	n/a	1	52	0
1045.2184	1	10	n/a	n/a	1	52	1
1046.4016	1	21	n/a	n/a	1	52	0
1047.485	1	10	n/a	n/a	1	52	1
1048.6348	1	10	n/a	n/a	1	52	2
1049.6474	1	82	n/a	n/a	1	0	0
1049.6904	1	82	n/a	n/a	1	0	0
1050.0834	1	82	n/a	n/a	1	0	0
1050.3104	1	82	n/a	n/a	1	0	0
1050.3884	1	82	n/a	n/a	1	0	0
1050.6474	1	82	n/a	n/a	1	0	0
1051.0514	1	82	n/a	n/a	1	0	0
1051.3634	1	82	n/a	n/a	1	0	0
1051.4114	1	82	n/a	n/a	1	0	0
1051.5554	1	82	n/a	n/a	1	0	0
1052.6846	1	10	n/a	n/a	1	52	1
1053.8346	1	21	n/a	n/a	1	52	0
1054.9678	1	10	n/a	n/a	1	52	1
1056.101	1	10	n/a	n/a	1	52	2
1057.2176	1	10	n/a	n/a	1	52	3
1058.3344	1	21	n/a	n/a	1	52	0
1059.501	1	10	n/a	n/a	1	52	1
1060.6008	1	10	n/a	n/a	1	52	2
1061.6342	1	10	n/a	n/a	1	52	3
1062.9506	1	10	n/a	n/a	1	52	4
1064.1672	1	10	n/a	n/a	1	52	5
1065.3838	1	21	n/a	n/a	1	52	0
1066.7004	1	10	n/a	n/a	1	52	1
1067.767	1	10	n/a	n/a	1	52	2
1069.067	1	10	n/a	n/a	1	52	3
1070.367	1	21	n/a	n/a	1	52	0
1071.4502	1	10	n/a	n/a	1	52	1
1072.5502	1	10	n/a	n/a	1	52	2
1073.7834	1	10	n/a	n/a	1	52	3
1074.8666	1	10	n/a	n/a	1	52	4
1075.8944	1	82	n/a	n/a	1	0	0
1075.9884	1	82	n/a	n/a	1	0	0
1076.0334	1	82	n/a	n/a	1	0	0
1076.1534	1	82	n/a	n/a	1	0	0
1076.5484	1	82	n/a	n/a	1	0	0
1076.8944	1	82	n/a	n/a	1	0	0
1077.3284	1	82	n/a	n/a	1	0	0
1077.5564	1	82	n/a	n/a	1	0	0
1077.6784	1	82	n/a	n/a	1	0	0
1077.7684	1	82	n/a	n/a	1	0	0
1079.0998	1	10	n/a	n/a	1	52	1
1080.333	1	10	n/a	n/a	1	52	2
1081.4662	1	10	n/a	n/a	1	52	3
1082.6162	1	10	n/a	n/a	1	52	4
1083.7162	1	10	n/a	n/a	1	52	5
1084.816	1	21	n/a	n/a	1	52	0
1085.8826	1	10	n/a	n/a	1	52	1
1087.1492	1	10	n/a	n/a	1	52	2
1088.2158	1	10	n/a	n/a	1	52	3
1089.3158	1	10	n/a	n/a	1	52	4
1090.3658	1	10	n/a	n/a	1	52	5
1091.6824	1	10	n/a	n/a	1	52	6
1092.9156	1	10	n/a	n/a	1	52	7
1094.1488	1	21	n/a	n/a	1	52	0
1095.3322	1	10	n/a	n/a	1	52	1
1096.5154	1	21	n/a	n/a	1	52	0
1097.7986	1	10	n/a	n/a	1	52	1
1098.8986	1	10	n/a	n/a	1	52	2
1100.0486	1	10	n/a	n/a	1	52	3
1101.1152	1	10	n/a	n/a	1	52	4
1102.1376	1	82	n/a	n/a	1	0	0
1102.3136	1	82	n/a	n/a	1	0	0
1102.6476	1	82	n/a	n/a	1	0	0
1102.8636	1	82	n/a	n/a	1	0	0
1102.9656	1	82	n/a	n/a	1	0	0
1103.1376	1	82	n/a	n/a	1	0	0
1103.3076	1	82	n/a	n/a	1	0	0
1103.5686	1	82	n/a	n/a	1	0	0
1103.7156	1	82	n/a	n/a	1	0	0
1104.0506	1	82	n/a	n/a	1	0	0
1105.2982	1	10	n/a	n/a	1	52	1
1106.3982	1	10	n/a	n/a	1	52	2
1107.548	1	10	n/a	n/a	1	52	3
1108.598	1	10	n/a	n/a	1	52	4
1109.7146	1	10	n/a	n/a	1	52	5
1110.7646	1	10	n/a	n/a	1	52	6
1111.8144	1	10	n/a	n/a	1	52	7
1112.8644	1	21	n/a	n/a	1	52	0
1114.0644	1	10	n/a	n/a	1	52	1
1115.181	1	10	n/a	n/a	1	52	2
1116.3976	1	10	n/a	n/a	1	52	3
1117.6142	1	21	n/a	n/a	1	52	0
1118.764	1	10	n/a	n/a	1	52	1
1119.8474	1	10	n/a	n/a	1	52	2
1121.0806	1	10	n/a	n/a	1	52	3
1122.3306	1	10	n/a	n/a	1	52	4
1123.5138	1	10	n/a	n/a	1	52	5
1124.697	1	21	n/a	n/a	1	52	0
1125.9304	1	10	n/a	n/a	1	52	1
1127.1636	1	21	n/a	n/a	1	52	0
1223.9812	1	82	n/a	n/a	1	0	0
1224.1322	1	82	n/a	n/a	1	0	0
1224.4572	1	82	n/a	n/a	1	0	0
1224.8342	1	82	n/a	n/a	1	0	0
1224.9462	1	82	n/a	n/a	1	0	0
1224.9812	1	82	n/a	n/a	1	0	0
1225.0882	1	82	n/a	n/a	1	0	0
1225.1612	1	82	n/a	n/a	1	0	0
1225.4722	1	82	n/a	n/a	1	0	0
1225.7392	1	82	n/a	n/a	1	0	0
1226.9586	1	10	n/a	n/a	1	52	1
1228.192	1	10	n/a	n/a	1	52	2
1229.5086	1	10	n/a	n/a	1	52	3
1230.8252	1	21	n/a	n/a	1	52	0
1231.9418	1	10	n/a	n/a	1	52	1
1233.2416	1	10	n/a	n/a	1	52	2
1234.5582	1	10	n/a	n/a	1	52	3
1235.8748	1	21	n/a	n/a	1	52	0
1237.058	1	10	n/a	n/a	1	52	1
1238.2414	1	21	n/a	n/a	1	52	0
1239.5412	1	10	n/a	n/a	1	52	1
1240.7746	1	10	n/a	n/a	1	52	2
1242.1078	1	10	n/a	n/a	1	52	3
1243.2576	1	10	n/a	n/a	1	52	4
1244.5242	1	10	n/a	n/a	1	52	5
1245.5576	1	10	n/a	n/a	1	52	6
1246.6076	1	10	n/a	n/a	1	52	7
1247.6574	1	21	n/a	n/a	1	52	0
1248.6908	1	10	n/a	n/a	1	52	1
1249.7906	1	10	n/a	n/a	1	52	2
1250.8042	1	82	n/a	n/a	1	0	0
1250.9522	1	82	n/a	n/a	1	0	0
1251.3782	1	82	n/a	n/a	1	0	0
1251.4092	1	82	n/a	n/a	1	0	0
1251.5842	1	82	n/a	n/a	1	0	0
1251.8042	1	82	n/a	n/a	1	0	0
1251.9672	1	82	n/a	n/a	1	0	0
1252.0842	1	82	n/a	n/a	1	0	0
1252.4822	1	82	n/a	n/a	1	0	0
1252.7692	1	82	n/a	n/a	1	0	0
1253.8904	1	10	n/a	n/a	1	52	1
1255.1736	1	10	n/a	n/a	1	52	2
1256.307	1	10	n/a	n/a	1	52	3
1257.5068	1	10	n/a	n/a	1	52	4
1258.6068	1	10	n/a	n/a	1	52	5
1259.8734	1	10	n/a	n/a	1	52	6
1261.0734	1	10	n/a	n/a	1	52	7
1262.2732	1	21	n/a	n/a	1	52	0
1263.5898	1	10	n/a	n/a	1	52	1
1264.7398	1	10	n/a	n/a	1	52	2
1265.9896	1	10	n/a	n/a	1	52	3
1267.2396	1	21	n/a	n/a	1	52	0
1268.3562	1	10	n/a	n/a	1	52	1
1269.3894	1	10	n/a	n/a	1	52	2
1270.6228	1	10	n/a	n/a	1	52	3
1271.8894	1	10	n/a	n/a	1	52	4
1273.056	1	10	n/a	n/a	1	52	5
1274.2226	1	21	n/a	n/a	1	52	0
1275.4558	1	10	n/a	n/a	1	52	1
1276.689	1	21	n/a	n/a	1	52	0
1277.4588	1	82	n/a	n/a	1	0	0
1277.7208	1	82	n/a	n/a	1	0	0
1277.7428	1	82	n/a	n/a	1	0	0
1277.8108	1	82	n/a	n/a	1	0	0
1277.9358	1	82	n/a	n/a	1	0	0
1278.4588	1	82	n/a	n/a	1	0	0
1278.7808	1	82	n/a	n/a	1	0	0
1278.8648	1	82	n/a	n/a	1	0	0
1278.9148	1	82	n/a	n/a	1	0	0
1279.0618	1	82	n/a	n/a	1	0	0
1280.5554	1	10	n/a	n/a	1	52	1
1281.7554	1	21	n/a	n/a	1	52	0
1282.9554	1	10	n/a	n/a	1	52	1
1284.2552	1	10	n/a	n/a	1	52	2
1285.5218	1	10	n/a	n/a	1	52	3
1286.6884	1	10	n/a	n/a	1	52	4
1287.955	1	10	n/a	n/a	1	52	5
1289.0216	1	10	n/a	n/a	1	52	6
1290.1882	1	10	n/a	n/a	1	52	7
1291.3548	1	21	n/a	n/a	1	52	0
1292.5214	1	10	n/a	n/a	1	52	1
1293.688	1	21	n/a	n/a	1	52	0
1294.738	1	10	n/a	n/a	1	52	1
1295.838	1	10	n/a	n/a	1	52	2
1296.8712	1	10	n/a	n/a	1	52	3
1297.9044	1	21	n/a	n/a	1	52	0
1299.221	1	10	n/a	n/a	1	52	1
1300.5376	1	21	n/a	n/a	1	52	0
1301.7376	1	10	n/a	n/a	1	52	1
1302.9876	1	10	n/a	n/a	1	52	2
1303.924	1	82	n/a	n/a	1	0	0
1304.004	1	82	n/a	n/a	1	0	0
1304.125	1	82	n/a	n/a	1	0	0
1304.335	1	82	n/a	n/a	1	0	0
1304.378	1	82	n/a	n/a	1	0	0
1304.924	1	82	n/a	n/a	1	0	0
1305.292	1	82	n/a	n/a	1	0	0
1305.362	1	82	n/a	n/a	1	0	0
1305.577	1	82	n/a	n/a	1	0	0
1305.679	1	82	n/a	n/a	1	0	0
1306.8706	1	10	n/a	n/a	1	52	1
1308.0872	1	10	n/a	n/a	1	52	2
1309.2538	1	10	n/a	n/a	1	52	3
1310.3204	1	10	n/a	n/a	1	52	4
1311.487	1	10	n/a	n/a	1	52	5
1312.6536	1	21	n/a	n/a	1	52	0
1313.8536	1	10	n/a	n/a	1	52	1
1315.0534	1	21	n/a	n/a	1	52	0
1316.1034	1	10	n/a	n/a	1	52	1
1317.3034	1	10	n/a	n/a	1	52	2
1318.52	1	10	n/a	n/a	1	52	3
1319.6698	1	10	n/a	n/a	1	52	4
1320.8364	1	10	n/a	n/a	1	52	5
1322.003	1	21	n/a	n/a	1	52	0
1323.2864	1	10	n/a	n/a	1	52	1
1324.3362	1	10	n/a	n/a	1	52	2
1325.3862	1	10	n/a	n/a	1	52	3
1326.4194	1	10	n/a	n/a	1	52	4
1327.486	1	10	n/a	n/a	1	52	5
1328.6194	1	10	n/a	n/a	1	52	6
1329.6878	1	82	n/a	n/a	1	0	0
1330.1178	1	82	n/a	n/a	1	0	0
1330.1888	1	82	n/a	n/a	1	0	0
1330.5208	1	82	n/a	n/a	1	0	0
1330.6258	1	82	n/a	n/a	1	0	0
1330.6878	1	82	n/a	n/a	1	0	0
1330.9408	1	82	n/a	n/a	1	0	0
1331.0018	1	82	n/a	n/a	1	0	0
1331.1188	1	82	n/a	n/a	1	0	0
1331.5228	1	82	n/a	n/a	1	0	0
1332.8358	1	10	n/a	n/a	1	52	1
1334.0856	1	21	n/a	n/a	1	52	0
1335.219	1	10	n/a	n/a	1	52	1
1336.2522	1	10	n/a	n/a	1	52	2
1337.3522	1	10	n/a	n/a	1	52	3
1338.5188	1	10	n/a	n/a	1	52	4
1339.752	1	10	n/a	n/a	1	52	5
1340.9852	1	21	n/a	n/a	1	52	0
1342.1852	1	10	n/a	n/a	1	52	1
1343.3852	1	21	n/a	n/a	1	52	0
1344.6184	1	10	n/a	n/a	1	52	1
1345.835	1	10	n/a	n/a	1	52	2
1347.135	1	10	n/a	n/a	1	52	3
1348.4348	1	21	n/a	n/a	1	52	0
1349.468	1	10	n/a	n/a	1	52	1
1350.5014	1	21	n/a	n/a	1	52	0
1351.6514	1	10	n/a	n/a	1	52	1
1352.8012	1	21	n/a	n/a	1	52	0
1353.9346	1	10	n/a	n/a	1	52	1
1355.201	1	10	n/a	n/a	1	52	2
1369.6176	1	82	n/a	n/a	1	0	0
1370.0196	1	82	n/a	n/a	1	0	0
1370.1206	1	82	n/a	n/a	1	0	0
1370.1946	1	82	n/a	n/a	1	0	0
1370.4896	1	82	n/a	n/a	1	0	0
1370.6176	1	82	n/a	n/a	1	0	0
1370.6866	1	82	n/a	n/a	1	0	0
1370.9546	1	82	n/a	n/a	1	0	0
1371.1626	1	82	n/a	n/a	1	0	0
1371.1976	1	82	n/a	n/a	1	0	0
1372.6168	1	10	n/a	n/a	1	50	1
1373.9334	1	10	n/a	n/a	1	50	2
1375.15	1	10	n/a	n/a	1	50	3
1376.4332	1	10	n/a	n/a	1	50	4
1377.5332	1	10	n/a	n/a	1	50	5
1378.733	1	10	n/a	n/a	1	50	6
1379.933	1	10	n/a	n/a	1	50	7
1381.1328	1	21	n/a	n/a	1	50	0
1382.3828	1	10	n/a	n/a	1	50	1
1383.6828	1	10	n/a	n/a	1	50	2
1384.8494	1	10	n/a	n/a	1	50	3
1386.066	1	10	n/a	n/a	1	50	4
1387.2826	1	10	n/a	n/a	1	50	5
1388.4992	1	10	n/a	n/a	1	50	6
1389.8158	1	10	n/a	n/a	1	50	7
1391.1324	1	21	n/a	n/a	1	50	0
1392.2822	1	10	n/a	n/a	1	50	1
1393.4156	1	10	n/a	n/a	1	50	2
1394.6488	1	10	n/a	n/a	1	50	3
1395.932	1	10	n/a	n/a	1	50	4
1396.7164	1	82	n/a	n/a	1	0	0
1397.0084	1	82	n/a	n/a	1	0	0
1397.1744	1	82	n/a	n/a	1	0	0
1397.2564	1	82	n/a	n/a	1	0	0
1397.3794	1	82	n/a	n/a	1	0	0
1397.7164	1	82	n/a	n/a	1	0	0
1398.0244	1	82	n/a	n/a	1	0	0
1398.1774	1	82	n/a	n/a	1	0	0
1398.2774	1	82	n/a	n/a	1	0	0
1398.4554	1	82	n/a	n/a	1	0	0
1399.8318	1	10	n/a	n/a	1	50	1
1400.965	1	10	n/a	n/a	1	50	2
1402.1984	1	10	n/a	n/a	1	50	3
1403.4316	1	21	n/a	n/a	1	50	0
1404.7316	1	10	n/a	n/a	1	50	1
1406.0314	1	21	n/a	n/a	1	50	0
1407.3314	1	10	n/a	n/a	1	50	1
1408.6312	1	21	n/a	n/a	1	50	0
1409.9146	1	10	n/a	n/a	1	50	1
1411.1978	1	10	n/a	n/a	1	50	2
1412.431	1	10	n/a	n/a	1	50	3
1413.7144	1	10	n/a	n/a	1	50	4
1414.7476	1	10	n/a	n/a	1	50	5
1415.8642	1	10	n/a	n/a	1	50	6
1416.8974	1	10	n/a	n/a	1	50	7
1417.9308	1	21	n/a	n/a	1	50	0
1419.1306	1	10	n/a	n/a	1	50	1
1420.314	1	10	n/a	n/a	1	50	2
1421.4806	1	10	n/a	n/a	1	50	3
1422.7138	1	10	n/a	n/a	1	50	4
1423.5664	1	82	n/a	n/a	1	0	0
1423.7244	1	82	n/a	n/a	1	0	0
1423.8254	1	82	n/a	n/a	1	0	0
1423.8654	1	82	n/a	n/a	1	0	0
1424.1724	1	82	n/a	n/a	1	0	0
1424.5664	1	82	n/a	n/a	1	0	0
1424.6334	1	82	n/a	n/a	1	0	0
1425.0564	1	82	n/a	n/a	1	0	0
1425.4014	1	82	n/a	n/a	1	0	0
1425.5064	1	82	n/a	n/a	1	0	0
1426.6636	1	10	n/a	n/a	1	50	1
1427.7468	1	10	n/a	n/a	1	50	2
1428.88	1	10	n/a	n/a	1	50	3
1429.93	1	10	n/a	n/a	1	50	4
1431.2466	1	10	n/a	n/a	1	50	5
1432.4798	1	10	n/a	n/a	1	50	6
1433.6964	1	10	n/a	n/a	1	50	7
1434.913	1	21	n/a	n/a	1	50	0
1436.1964	1	10	n/a	n/a	1	50	1
1437.4796	1	10	n/a	n/a	1	50	2
1438.7296	1	10	n/a	n/a	1	50	3
1439.9794	1	21	n/a	n/a	1	50	0
1441.0794	1	10	n/a	n/a	1	50	1
1442.296	1	10	n/a	n/a	1	50	2
1443.3792	1	10	n/a	n/a	1	50	3
1444.5958	1	10	n/a	n/a	1	50	4
1445.879	1	10	n/a	n/a	1	50	5
1446.929	1	10	n/a	n/a	1	50	6
1448.1622	1	10	n/a	n/a	1	50	7
1449.3956	1	21	n/a	n/a	1	50	0
1450.4292	1	82	n/a	n/a	1	0	0
1450.6922	1	82	n/a	n/a	1	0	0
1450.7752	1	82	n/a	n/a	1	0	0
1450.9582	1	82	n/a	n/a	1	0	0
1451.1852	1	82	n/a	n/a	1	0	0
1451.4292	1	82	n/a	n/a	1	0	0
1451.7112	1	82	n/a	n/a	1	0	0
1451.8202	1	82	n/a	n/a	1	0	0
1452.2302	1	82	n/a	n/a	1	0	0
1452.2842	1	82	n/a	n/a	1	0	0
1453.4954	1	10	n/a	n/a	1	50	1
1454.662	1	21	n/a	n/a	1	50	0
1455.9784	1	10	n/a	n/a	1	50	1
1457.295	1	21	n/a	n/a	1	50	0
1458.545	1	10	n/a	n/a	1	50	1
1459.595	1	10	n/a	n/a	1	50	2
1460.8782	1	10	n/a	n/a	1	50	3
1461.9948	1	10	n/a	n/a	1	50	4
1463.1614	1	10	n/a	n/a	1	50	5
1464.328	1	21	n/a	n/a	1	50	0
1465.478	1	10	n/a	n/a	1	50	1
1466.6278	1	21	n/a	n/a	1	50	0
1467.8278	1	10	n/a	n/a	1	50	1
1469.1278	1	10	n/a	n/a	1	50	2
1470.1776	1	10	n/a	n/a	1	50	3
1471.4942	1	10	n/a	n/a	1	50	4
1472.8274	1	10	n/a	n/a	1	50	5
1474.1608	1	21	n/a	n/a	1	50	0
1475.344	1	10	n/a	n/a	1	50	1
1476.594	1	10	n/a	n/a	1	50	2
1477.3314	1	82	n/a	n/a	1	0	0
1477.4224	1	82	n/a	n/a	1	0	0
1477.4904	1	82	n/a	n/a	1	0	0
1477.8334	1	82	n/a	n/a	1	0	0
1477.9564	1	82	n/a	n/a	1	0	0
1478.3314	1	82	n/a	n/a	1	0	0
1478.5094	1	82	n/a	n/a	1	0	0
1478.6474	1	82	n/a	n/a	1	0	0
1478.9144	1	82	n/a	n/a	1	0	0
1479.2964	1	82	n/a	n/a	1	0	0
1480.5104	1	10	n/a	n/a	1	50	1
1481.627	1	10	n/a	n/a	1	50	2
1482.7436	1	10	n/a	n/a	1	50	3
1483.8936	1	10	n/a	n/a	1	50	4
1484.9768	1	10	n/a	n/a	1	50	5
1486.06	1	21	n/a	n/a	1	50	0
1487.2266	1	10	n/a	n/a	1	50	1
1488.3766	1	10	n/a	n/a	1	50	2
1489.5932	1	10	n/a	n/a	1	50	3
1490.7432	1	10	n/a	n/a	1	50	4
1491.993	1	10	n/a	n/a	1	50	5
1493.243	1	21	n/a	n/a	1	50	0
1494.4428	1	10	n/a	n/a	1	50	1
1495.6428	1	10	n/a	n/a	1	50	2
1496.9428	1	10	n/a	n/a	1	50	3
1498.2426	1	21	n/a	n/a	1	50	0
1499.326	1	10	n/a	n/a	1	50	1
1500.5258	1	10	n/a	n/a	1	50	2
1501.6092	1	10	n/a	n/a	1	50	3
1502.8758	1	10	n/a	n/a	1	50	4
1534.1052	1	81	n/a	n/a	1	0	0
1534.3052	1	81	n/a	n/a	1	0	0
1534.5052	1	81	n/a	n/a	1	0	0
1534.7052	1	81	n/a	n/a	1	0	0
1534.9052	1	81	n/a	n/a	1	0	0
1535.1052	1	81	n/a	n/a	1	0	0
1535.3052	1	81	n/a	n/a	1	0	0
1535.5052	1	81	n/a	n/a	1	0	0
1535.7052	1	81	n/a	n/a	1	0	0
1535.9052	1	81	n/a	n/a	1	0	0
1537.207	1	10	n/a	n/a	1	51	1
1538.2404	1	10	n/a	n/a	1	51	2
1539.557	1	10	n/a	n/a	1	51	3
1540.8734	1	21	n/a	n/a	1	51	0
1542.0234	1	10	n/a	n/a	1	51	1
1543.0734	1	10	n/a	n/a	1	51	2
1544.2232	1	10	n/a	n/a	1	51	3
1545.3732	1	21	n/a	n/a	1	51	0
1546.6232	1	10	n/a	n/a	1	51	1
1547.8398	1	10	n/a	n/a	1	51	2
1548.9064	1	10	n/a	n/a	1	51	3
1550.023	1	10	n/a	n/a	1	51	4
1551.2228	1	10	n/a	n/a	1	51	5
1552.4228	1	21	n/a	n/a	1	51	0
1553.506	1	10	n/a	n/a	1	51	1
1554.7226	1	10	n/a	n/a	1	51	2
1555.9226	1	10	n/a	n/a	1	51	3
1557.1392	1	10	n/a	n/a	1	51	4
1558.3392	1	10	n/a	n/a	1	51	5
1559.4058	1	10	n/a	n/a	1	51	6
1560.4232	1	81	n/a	n/a	1	0	0
1560.6232	1	81	n/a	n/a	1	0	0
1560.8232	1	81	n/a	n/a	1	0	0
1561.0232	1	81	n/a	n/a	1	0	0
1561.2232	1	81	n/a	n/a	1	0	0
1561.4232	1	81	n/a	n/a	1	0	0
1561.6232	1	81	n/a	n/a	1	0	0
1561.8232	1	81	n/a	n/a	1	0	0
1562.0232	1	81	n/a	n/a	1	0	0
1562.2232	1	81	n/a	n/a	1	0	0
1563.4056	1	10	n/a	n/a	1	51	1
1564.4888	1	21	n/a	n/a	1	51	0
1565.8054	1	10	n/a	n/a	1	51	1
1566.8552	1	10	n/a	n/a	1	51	2
1568.0886	1	10	n/a	n/a	1	51	3
1569.3218	1	21	n/a	n/a	1	51	0
1570.3884	1	10	n/a	n/a	1	51	1
1571.455	1	21	n/a	n/a	1	51	0
1572.655	1	10	n/a	n/a	1	51	1
1573.9548	1	10	n/a	n/a	1	51	2
1574.9882	1	10	n/a	n/a	1	51	3
1576.3048	1	10	n/a	n/a	1	51	4
1577.5714	1	10	n/a	n/a	1	51	5
1578.838	1	21	n/a	n/a	1	51	0
1580.0712	1	10	n/a	n/a	1	51	1
1581.1044	1	10	n/a	n/a	1	51	2
1582.421	1	10	n/a	n/a	1	51	3
1583.6044	1	10	n/a	n/a	1	51	4
1584.6376	1	10	n/a	n/a	1	51	5
1585.6708	1	21	n/a	n/a	1	51	0
1586.7046	1	81	n/a	n/a	1	0	0
1586.9046	1	81	n/a	n/a	1	0	0
1587.1046	1	81	n/a	n/a	1	0	0
1587.3046	1	81	n/a	n/a	1	0	0
1587.5046	1	81	n/a	n/a	1	0	0
1587.7046	1	81	n/a	n/a	1	0	0
1587.9046	1	81	n/a	n/a	1	0	0
1588.1046	1	81	n/a	n/a	1	0	0
1588.3046	1	81	n/a	n/a	1	0	0
1588.5046	1	81	n/a	n/a	1	0	0
1589.8706	1	10	n/a	n/a	1	51	1
1591.1372	1	21	n/a	n/a	1	51	0
1592.3872	1	10	n/a	n/a	1	51	1
1593.6704	1	10	n/a	n/a	1	51	2
1594.837	1	10	n/a	n/a	1	51	3
1595.887	1	10	n/a	n/a	1	51	4
1597.1036	1	10	n/a	n/a	1	51	5
1598.3202	1	21	n/a	n/a	1	51	0
1599.4868	1	10	n/a	n/a	1	51	1
1600.6534	1	21	n/a	n/a	1	51	0
1601.7032	1	10	n/a	n/a	1	51	1
1602.9698	1	10	n/a	n/a	1	51	2
1604.1198	1	10	n/a	n/a	1	51	3
1605.2698	1	21	n/a	n/a	1	51	0
1606.4862	1	10	n/a	n/a	1	51	1
1607.7862	1	10	n/a	n/a	1	51	2
1609.0028	1	10	n/a	n/a	1	51	3
1610.2028	1	10	n/a	n/a	1	51	4
1611.2526	1	10	n/a	n/a	1	51	5
1612.486	1	10	n/a	n/a	1	51	6
1613.4004	1	81	n/a	n/a	1	0	0
1613.6004	1	81	n/a	n/a	1	0	0
1613.8004	1	81	n/a	n/a	1	0	0
1614.0004	1	81	n/a	n/a	1	0	0
1614.2004	1	81	n/a	n/a	1	0	0
1614.4004	1	81	n/a	n/a	1	0	0
1614.6004	1	81	n/a	n/a	1	0	0
1614.8004	1	81	n/a	n/a	1	0	0
1615.0004	1	81	n/a	n/a	1	0	0
1615.2004	1	81	n/a	n/a	1	0	0
1616.5358	1	10	n/a	n/a	1	51	1
1617.769	1	10	n/a	n/a	1	51	2
1618.8856	1	10	n/a	n/a	1	51	3
1620.1522	1	10	n/a	n/a	1	51	4
1621.2688	1	10	n/a	n/a	1	51	5
1622.3854	1	21	n/a	n/a	1	51	0
1623.4354	1	10	n/a	n/a	1	51	1
1624.6518	1	10	n/a	n/a	1	51	2
1625.8518	1	10	n/a	n/a	1	51	3
1627.085	1	10	n/a	n/a	1	51	4
1628.2516	1	10	n/a	n/a	1	51	5
1629.4182	1	21	n/a	n/a	1	51	0
1630.7348	1	10	n/a	n/a	1	51	1
1631.8014	1	10	n/a	n/a	1	51	2
1632.9348	1	10	n/a	n/a	1	51	3
1634.218	1	10	n/a	n/a	1	51	4
1635.3512	1	10	n/a	n/a	1	51	5
1636.4846	1	21	n/a	n/a	1	51	0
1637.7844	1	10	n/a	n/a	1	51	1
1639.001	1	10	n/a	n/a	1	51	2
1640.0974	1	81	n/a	n/a	1	0	0
1640.2974	1	81	n/a	n/a	1	0	0
1640.4974	1	81	n/a	n/a	1	0	0
1640.6974	1	81	n/a	n/a	1	0	0
1640.8974	1	81	n/a	n/a	1	0	0
1641.0974	1	81	n/a	n/a	1	0	0
1641.2974	1	81	n/a	n/a	1	0	0
1641.4974	1	81	n/a	n/a	1	0	0
1641.6974	1	81	n/a	n/a	1	0	0
1641.8974	1	81	n/a	n/a	1	0	0
1643.0674	1	10	n/a	n/a	1	51	1
1644.1174	1	10	n/a	n/a	1	51	2
1645.3174	1	10	n/a	n/a	1	51	3
1646.634	1	10	n/a	n/a	1	51	4
1647.9338	1	10	n/a	n/a	1	51	5
1649.2338	1	21	n/a	n/a	1	51	0
1650.467	1	10	n/a	n/a	1	51	1
1651.7004	1	21	n/a	n/a	1	51	0
1653.0168	1	10	n/a	n/a	1	51	1
1654.3334	1	21	n/a	n/a	1	51	0
1655.4668	1	10	n/a	n/a	1	51	1
1656.7166	1	10	n/a	n/a	1	51	2
1657.9832	1	10	n/a	n/a	1	51	3
1659.1166	1	10	n/a	n/a	1	51	4
1660.2664	1	10	n/a	n/a	1	51	5
1661.2998	1	10	n/a	n/a	1	51	6
1662.5496	1	10	n/a	n/a	1	51	7
1663.7996	1	21	n/a	n/a	1	51	0
1664.9162	1	10	n/a	n/a	1	51	1
1666.0162	1	10	n/a	n/a	1	51	2
1738.7732	1	82	n/a	n/a	1	0	0
1739.2132	1	82	n/a	n/a	1	0	0
1739.3722	1	82	n/a	n/a	1	0	0
1739.4622	1	82	n/a	n/a	1	0	0
1739.6902	1	82	n/a	n/a	1	0	0
1739.7734	1	82	n/a	n/a	1	0	0
1739.8434	1	82	n/a	n/a	1	0	0
1739.8814	1	82	n/a	n/a	1	0	0
1740.1014	1	82	n/a	n/a	1	0	0
1740.4264	1	82	n/a	n/a	1	0	0
1741.895	1	10	n/a	n/a	1	52	1
1743.1282	1	21	n/a	n/a	1	52	0
1744.4616	1	10	n/a	n/a	1	52	1
1745.5948	1	10	n/a	n/a	1	52	2
1746.728	1	10	n/a	n/a	1	52	3
1748.0446	1	10	n/a	n/a	1	52	4
1749.278	1	10	n/a	n/a	1	52	5
1750.5112	1	21	n/a	n/a	1	52	0
1751.6778	1	10	n/a	n/a	1	52	1
1752.8444	1	21	n/a	n/a	1	52	0
1754.0442	1	10	n/a	n/a	1	52	1
1755.2442	1	21	n/a	n/a	1	52	0
1756.4442	1	10	n/a	n/a	1	52	1
1757.6108	1	10	n/a	n/a	1	52	2
1758.8606	1	10	n/a	n/a	1	52	3
1760.0606	1	10	n/a	n/a	1	52	4
1761.1606	1	10	n/a	n/a	1	52	5
1762.3272	1	10	n/a	n/a	1	52	6
1763.6604	1	10	n/a	n/a	1	52	7
1764.9936	1	21	n/a	n/a	1	52	0
1766.0324	1	82	n/a	n/a	1	0	0
1766.3574	1	82	n/a	n/a	1	0	0
1766.5984	1	82	n/a	n/a	1	0	0
1766.6914	1	82	n/a	n/a	1	0	0
1766.8184	1	82	n/a	n/a	1	0	0
1767.0324	1	82	n/a	n/a	1	0	0
1767.2734	1	82	n/a	n/a	1	0	0
1767.4074	1	82	n/a	n/a	1	0	0
1767.8344	1	82	n/a	n/a	1	0	0
1767.8814	1	82	n/a	n/a	1	0	0
1769.11	1	10	n/a	n/a	1	52	1
1770.2766	1	10	n/a	n/a	1	52	2
1771.51	1	10	n/a	n/a	1	52	3
1772.5766	1	10	n/a	n/a	1	52	4
1773.8264	1	10	n/a	n/a	1	52	5
1774.9098	1	10	n/a	n/a	1	52	6
1775.9596	1	10	n/a	n/a	1	52	7
1777.0096	1	21	n/a	n/a	1	52	0
1778.2096	1	10	n/a	n/a	1	52	1
1779.4094	1	10	n/a	n/a	1	52	2
1780.526	1	10	n/a	n/a	1	52	3
1781.776	1	10	n/a	n/a	1	52	4
1782.9592	1	10	n/a	n/a	1	52	5
1784.1258	1	10	n/a	n/a	1	52	6
1785.3924	1	10	n/a	n/a	1	52	7
1786.659	1	21	n/a	n/a	1	52	0
1787.9756	1	10	n/a	n/a	1	52	1
1789.2256	1	10	n/a	n/a	1	52	2
1790.4754	1	10	n/a	n/a	1	52	3
1791.5088	1	10	n/a	n/a	1	52	4
1792.2662	1	82	n/a	n/a	1	0	0
1792.3512	1	82	n/a	n/a	1	0	0
1792.6482	1	82	n/a	n/a	1	0	0
1792.9242	1	82	n/a	n/a	1	0	0
1793.0872	1	82	n/a	n/a	1	0	0
1793.2662	1	82	n/a	n/a	1	0	0
1793.3382	1	82	n/a	n/a	1	0	0
1793.6692	1	82	n/a	n/a	1	0	0
1793.9202	1	82	n/a	n/a	1	0	0
1793.9432	1	82	n/a	n/a	1	0	0
1795.3752	1	10	n/a	n/a	1	52	1
1796.6418	1	10	n/a	n/a	1	52	2
1797.8084	1	10	n/a	n/a	1	52	3
1798.975	1	21	n/a	n/a	1	52	0
1800.2582	1	10	n/a	n/a	1	52	1
1801.4914	1	10	n/a	n/a	1	52	2
1802.5248	1	10	n/a	n/a	1	52	3
1803.558	1	21	n/a	n/a	1	52	0
1804.6746	1	10	n/a	n/a	1	52	1
1805.8912	1	10	n/a	n/a	1	52	2
1806.9578	1	10	n/a	n/a	1	52	3
1808.1578	1	10	n/a	n/a	1	52	4
1809.4576	1	10	n/a	n/a	1	52	5
1810.5076	1	10	n/a	n/a	1	52	6
1811.8076	1	10	n/a	n/a	1	52	7
1813.1074	1	21	n/a	n/a	1	52	0
1814.174	1	10	n/a	n/a	1	52	1
1815.3406	1	10	n/a	n/a	1	52	2
1816.4406	1	10	n/a	n/a	1	52	3
1817.7738	1	10	n/a	n/a	1	52	4
1818.5834	1	82	n/a	n/a	1	0	0
1818.7124	1	82	n/a	n/a	1	0	0
1819.1084	1	82	n/a	n/a	1	0	0
1819.3674	1	82	n/a	n/a	1	0	0
1819.4104	1	82	n/a	n/a	1	0	0
1819.5834	1	82	n/a	n/a	1	0	0
1819.7444	1	82	n/a	n/a	1	0	0
1819.8394	1	82	n/a	n/a	1	0	0
1820.2384	1	82	n/a	n/a	1	0	0
1820.3014	1	82	n/a	n/a	1	0	0
1821.5736	1	10	n/a	n/a	1	52	1
1822.6736	1	21	n/a	n/a	1	52	0
1823.8402	1	10	n/a	n/a	1	52	1
1825.0402	1	10	n/a	n/a	1	52	2
1826.1568	1	10	n/a	n/a	1	52	3
1827.3234	1	10	n/a	n/a	1	52	4
1828.4232	1	10	n/a	n/a	1	52	5
1829.6732	1	10	n/a	n/a	1	52	6
1830.9898	1	10	n/a	n/a	1	52	7
1832.3064	1	21	n/a	n/a	1	52	0
1833.3896	1	10	n/a	n/a	1	52	1
1834.4728	1	21	n/a	n/a	1	52	0
1835.7894	1	10	n/a	n/a	1	52	1
1837.0394	1	10	n/a	n/a	1	52	2
1838.3394	1	10	n/a	n/a	1	52	3
1839.456	1	10	n/a	n/a	1	52	4
1840.7558	1	10	n/a	n/a	1	52	5
1841.7892	1	10	n/a	n/a	1	52	6
1842.939	1	10	n/a	n/a	1	52	7
1844.089	1	21	n/a	n/a	1	52	0
1844.8078	1	82	n/a	n/a	1	0	0
1844.8388	1	82	n/a	n/a	1	0	0
1844.8948	1	82	n/a	n/a	1	0	0
1845.3098	1	82	n/a	n/a	1	0	0
1845.6358	1	82	n/a	n/a	1	0	0
1845.8078	1	82	n/a	n/a	1	0	0
1845.9188	1	82	n/a	n/a	1	0	0
1846.2448	1	82	n/a	n/a	1	0	0
1846.2868	1	82	n/a	n/a	1	0	0
1846.7108	1	82	n/a	n/a	1	0	0
1847.8888	1	10	n/a	n/a	1	52	1
1848.972	1	10	n/a	n/a	1	52	2
1850.2554	1	10	n/a	n/a	1	52	3
1851.5718	1	10	n/a	n/a	1	52	4
1852.7552	1	10	n/a	n/a	1	52	5
1853.9384	1	21	n/a	n/a	1	52	0
1855.105	1	10	n/a	n/a	1	52	1
1856.305	1	10	n/a	n/a	1	52	2
1857.3882	1	10	n/a	n/a	1	52	3
1858.4714	1	21	n/a	n/a	1	52	0
1859.538	1	10	n/a	n/a	1	52	1
1860.6048	1	21	n/a	n/a	1	52	0
1861.688	1	10	n/a	n/a	1	52	1
1862.7712	1	21	n/a	n/a	1	52	0
1863.8712	1	10	n/a	n/a	1	52	1
1864.9712	1	21	n/a	n/a	1	52	0
1866.2876	1	10	n/a	n/a	1	52	1
1867.6042	1	21	n/a	n/a	1	52	0
1868.6876	1	10	n/a	n/a	1	52	1
1869.9374	1	10	n/a	n/a	1	52	2
1883.14	1	81	n/a	n/a	1	0	0
1883.34	1	81	n/a	n/a	1	0	0
1883.54	1	81	n/a	n/a	1	0	0
1883.74	1	81	n/a	n/a	1	0	0
1883.94	1	81	n/a	n/a	1	0	0
1884.14	1	81	n/a	n/a	1	0	0
1884.34	1	81	n/a	n/a	1	0	0
1884.54	1	81	n/a	n/a	1	0	0
1884.74	1	81	n/a	n/a	1	0	0
1884.94	1	81	n/a	n/a	1	0	0
1886.0698	1	10	n/a	n/a	1	50	1
1887.1032	1	21	n/a	n/a	1	50	0
1888.203	1	10	n/a	n/a	1	50	1
1889.4196	1	10	n/a	n/a	1	50	2
1890.5196	1	10	n/a	n/a	1	50	3
1891.6528	1	10	n/a	n/a	1	50	4
1892.7862	1	10	n/a	n/a	1	50	5
1893.886	1	10	n/a	n/a	1	50	6
1894.936	1	10	n/a	n/a	1	50	7
1895.986	1	21	n/a	n/a	1	50	0
1897.0858	1	10	n/a	n/a	1	50	1
1898.2692	1	10	n/a	n/a	1	50	2
1899.3358	1	10	n/a	n/a	1	50	3
1900.4024	1	10	n/a	n/a	1	50	4
1901.619	1	10	n/a	n/a	1	50	5
1902.9522	1	10	n/a	n/a	1	50	6
1904.2688	1	10	n/a	n/a	1	50	7
1905.5854	1	21	n/a	n/a	1	50	0
1906.8854	1	10	n/a	n/a	1	50	1
1908.1852	1	21	n/a	n/a	1	50	0
1909.2728	1	81	n/a	n/a	1	0	0
1909.4728	1	81	n/a	n/a	1	0	0
1909.6728	1	81	n/a	n/a	1	0	0
1909.8728	1	81	n/a	n/a	1	0	0
1910.0728	1	81	n/a	n/a	1	0	0
1910.2736	1	81	n/a	n/a	1	0	0
1910.4736	1	81	n/a	n/a	1	0	0
1910.6736	1	81	n/a	n/a	1	0	0
1910.8736	1	81	n/a	n/a	1	0	0
1911.0736	1	81	n/a	n/a	1	0	0
1912.3516	1	10	n/a	n/a	1	50	1
1913.535	1	21	n/a	n/a	1	50	0
1914.6182	1	10	n/a	n/a	1	50	1
1915.7348	1	10	n/a	n/a	1	50	2
1916.7848	1	10	n/a	n/a	1	50	3
1917.918	1	10	n/a	n/a	1	50	4
1919.018	1	10	n/a	n/a	1	50	5
1920.1178	1	21	n/a	n/a	1	50	0
1921.3344	1	10	n/a	n/a	1	50	1
1922.601	1	10	n/a	n/a	1	50	2
1923.751	1	10	n/a	n/a	1	50	3
1924.901	1	21	n/a	n/a	1	50	0
1926.2008	1	10	n/a	n/a	1	50	1
1927.3008	1	10	n/a	n/a	1	50	2
1928.3674	1	10	n/a	n/a	1	50	3
1929.434	1	21	n/a	n/a	1	50	0
1930.5006	1	10	n/a	n/a	1	50	1
1931.6338	1	10	n/a	n/a	1	50	2
1932.7838	1	10	n/a	n/a	1	50	3
1933.9338	1	21	n/a	n/a	1	50	0
1934.9624	1	81	n/a	n/a	1	0	0
1935.1624	1	81	n/a	n/a	1	0	0
1935.3624	1	81	n/a	n/a	1	0	0
1935.5624	1	81	n/a	n/a	1	0	0
1935.7624	1	81	n/a	n/a	1	0	0
1935.9624	1	81	n/a	n/a	1	0	0
1936.1624	1	81	n/a	n/a	1	0	0
1936.3624	1	81	n/a	n/a	1	0	0
1936.5624	1	81	n/a	n/a	1	0	0
1936.7624	1	81	n/a	n/a	1	0	0
1938.1502	1	10	n/a	n/a	1	50	1
1939.2	1	10	n/a	n/a	1	50	2
1940.4166	1	10	n/a	n/a	1	50	3
1941.5166	1	10	n/a	n/a	1	50	4
1942.7166	1	10	n/a	n/a	1	50	5
1944.0332	1	10	n/a	n/a	1	50	6
1945.233	1	10	n/a	n/a	1	50	7
1946.433	1	21	n/a	n/a	1	50	0
1947.583	1	10	n/a	n/a	1	50	1
1948.7162	1	10	n/a	n/a	1	50	2
1949.8162	1	10	n/a	n/a	1	50	3
1950.916	1	10	n/a	n/a	1	50	4
1952.066	1	10	n/a	n/a	1	50	5
1953.0992	1	10	n/a	n/a	1	50	6
1954.2826	1	10	n/a	n/a	1	50	7
1955.4658	1	21	n/a	n/a	1	50	0
1956.6658	1	10	n/a	n/a	1	50	1
1957.899	1	10	n/a	n/a	1	50	2
1959.1656	1	10	n/a	n/a	1	50	3
1960.3822	1	10	n/a	n/a	1	50	4
1961.4096	1	81	n/a	n/a	1	0	0
1961.6096	1	81	n/a	n/a	1	0	0
1961.8096	1	81	n/a	n/a	1	0	0
1962.0096	1	81	n/a	n/a	1	0	0
1962.2096	1	81	n/a	n/a	1	0	0
1962.4096	1	81	n/a	n/a	1	0	0
1962.6096	1	81	n/a	n/a	1	0	0
1962.8096	1	81	n/a	n/a	1	0	0
1963.0096	1	81	n/a	n/a	1	0	0
1963.2096	1	81	n/a	n/a	1	0	0
1964.4986	1	10	n/a	n/a	1	50	1
1965.7986	1	10	n/a	n/a	1	50	2
1966.9652	1	10	n/a	n/a	1	50	3
1968.2818	1	10	n/a	n/a	1	50	4
1969.3316	1	10	n/a	n/a	1	50	5
1970.3816	1	21	n/a	n/a	1	50	0
1971.4482	1	10	n/a	n/a	1	50	1
1972.5814	1	10	n/a	n/a	1	50	2
1973.798	1	10	n/a	n/a	1	50	3
1975.0146	1	21	n/a	n/a	1	50	0
1976.198	1	10	n/a	n/a	1	50	1
1977.2812	1	10	n/a	n/a	1	50	2
1978.3478	1	10	n/a	n/a	1	50	3
1979.531	1	10	n/a	n/a	1	50	4
1980.781	1	10	n/a	n/a	1	50	5
1982.0308	1	21	n/a	n/a	1	50	0
1983.2642	1	10	n/a	n/a	1	50	1
1984.4974	1	21	n/a	n/a	1	50	0
1985.664	1	10	n/a	n/a	1	50	1
1986.8472	1	10	n/a	n/a	1	50	2
1987.7056	1	81	n/a	n/a	1	0	0
1987.9056	1	81	n/a	n/a	1	0	0
1988.1056	1	81	n/a	n/a	1	0	0
1988.3056	1	81	n/a	n/a	1	0	0
1988.5056	1	81	n/a	n/a	1	0	0
1988.7058	1	81	n/a	n/a	1	0	0
1988.9058	1	81	n/a	n/a	1	0	0
1989.1058	1	81	n/a	n/a	1	0	0
1989.3058	1	81	n/a	n/a	1	0	0
1989.5058	1	81	n/a	n/a	1	0	0
1990.8304	1	10	n/a	n/a	1	50	1
1992.0636	1	21	n/a	n/a	1	50	0
1993.147	1	10	n/a	n/a	1	50	1
1994.2302	1	21	n/a	n/a	1	50	0
1995.4302	1	10	n/a	n/a	1	50	1
1996.6634	1	10	n/a	n/a	1	50	2
1997.9632	1	10	n/a	n/a	1	50	3
1999.1132	1	10	n/a	n/a	1	50	4
2000.2632	1	10	n/a	n/a	1	50	5
2001.413	1	21	n/a	n/a	1	50	0
2002.6964	1	10	n/a	n/a	1	50	1
2003.763	1	10	n/a	n/a	1	50	2
2004.9128	1	10	n/a	n/a	1	50	3
2006.2294	1	10	n/a	n/a	1	50	4
2007.3794	1	10	n/a	n/a	1	50	5
2008.4794	1	10	n/a	n/a	1	50	6
2009.5626	1	10	n/a	n/a	1	50	7
2010.6458	1	21	n/a	n/a	1	50	0
2011.9458	1	10	n/a	n/a	1	50	1
2013.2624	1	10	n/a	n/a	1	50	2
2038.596	1	81	n/a	n/a	1	0	0
2038.796	1	81	n/a	n/a	1	0	0
2038.996	1	81	n/a	n/a	1	0	0
2039.196	1	81	n/a	n/a	1	0	0
2039.396	1	81	n/a	n/a	1	0	0
2039.596	1	81	n/a	n/a	1	0	0
2039.796	1	81	n/a	n/a	1	0	0
2039.996	1	81	n/a	n/a	1	0	0
2040.196	1	81	n/a	n/a	1	0	0
2040.396	1	81	n/a	n/a	1	0	0
2041.594	1	10	n/a	n/a	1	51	1
2042.8774	1	10	n/a	n/a	1	51	2
2044.1606	1	10	n/a	n/a	1	51	3
2045.3938	1	10	n/a	n/a	1	51	4
2046.4938	1	10	n/a	n/a	1	51	5
2047.5938	1	21	n/a	n/a	1	51	0
2048.8104	1	10	n/a	n/a	1	51	1
2050.0602	1	10	n/a	n/a	1	51	2
2051.1936	1	10	n/a	n/a	1	51	3
2052.3434	1	21	n/a	n/a	1	51	0
2053.5266	1	10	n/a	n/a	1	51	1
2054.66	1	10	n/a	n/a	1	51	2
2055.7266	1	10	n/a	n/a	1	51	3
2056.9098	1	10	n/a	n/a	1	51	4
2058.0264	1	10	n/a	n/a	1	51	5
2059.1098	1	10	n/a	n/a	1	51	6
2060.3762	1	10	n/a	n/a	1	51	7
2061.6428	1	21	n/a	n/a	1	51	0
2062.7762	1	10	n/a	n/a	1	51	1
2063.826	1	10	n/a	n/a	1	51	2
2064.6484	1	81	n/a	n/a	1	0	0
2064.8484	1	81	n/a	n/a	1	0	0
2065.0484	1	81	n/a	n/a	1	0	0
2065.2484	1	81	n/a	n/a	1	0	0
2065.4484	1	81	n/a	n/a	1	0	0
2065.6486	1	81	n/a	n/a	1	0	0
2065.8486	1	81	n/a	n/a	1	0	0
2066.0486	1	81	n/a	n/a	1	0	0
2066.2486	1	81	n/a	n/a	1	0	0
2066.4486	1	81	n/a	n/a	1	0	0
2067.7926	1	10	n/a	n/a	1	51	1
2069.0424	1	21	n/a	n/a	1	51	0
2070.1424	1	10	n/a	n/a	1	51	1
2071.409	1	10	n/a	n/a	1	51	2
2072.5756	1	10	n/a	n/a	1	51	3
2073.7422	1	21	n/a	n/a	1	51	0
2074.9422	1	10	n/a	n/a	1	51	1
2076.192	1	10	n/a	n/a	1	51	2
2077.292	1	10	n/a	n/a	1	51	3
2078.392	1	21	n/a	n/a	1	51	0
2079.6584	1	10	n/a	n/a	1	51	1
2080.7584	1	10	n/a	n/a	1	51	2
2081.925	1	10	n/a	n/a	1	51	3
2083.1082	1	10	n/a	n/a	1	51	4
2084.175	1	10	n/a	n/a	1	51	5
2085.3582	1	10	n/a	n/a	1	51	6
2086.4748	1	10	n/a	n/a	1	51	7
2087.5914	1	21	n/a	n/a	1	51	0
2088.6246	1	10	n/a	n/a	1	51	1
2089.8578	1	10	n/a	n/a	1	51	2
2090.6654	1	81	n/a	n/a	1	0	0
2090.8654	1	81	n/a	n/a	1	0	0
2091.0654	1	81	n/a	n/a	1	0	0
2091.2654	1	81	n/a	n/a	1	0	0
2091.4654	1	81	n/a	n/a	1	0	0
2091.6654	1	81	n/a	n/a	1	0	0
2091.8654	1	81	n/a	n/a	1	0	0
2092.0654	1	81	n/a	n/a	1	0	0
2092.2654	1	81	n/a	n/a	1	0	0
2092.4654	1	81	n/a	n/a	1	0	0
2093.641	1	10	n/a	n/a	1	51	1
2094.691	1	10	n/a	n/a	1	51	2
2095.9242	1	10	n/a	n/a	1	51	3
2097.1574	1	10	n/a	n/a	1	51	4
2098.424	1	10	n/a	n/a	1	51	5
2099.6906	1	21	n/a	n/a	1	51	0
2101.0072	1	10	n/a	n/a	1	51	1
2102.2572	1	10	n/a	n/a	1	51	2
2103.3572	1	10	n/a	n/a	1	51	3
2104.4238	1	10	n/a	n/a	1	51	4
2105.607	1	10	n/a	n/a	1	51	5
2106.8902	1	10	n/a	n/a	1	51	6
2107.9236	1	10	n/a	n/a	1	51	7
2108.9568	1	21	n/a	n/a	1	51	0
2110.2068	1	10	n/a	n/a	1	51	1
2111.39	1	10	n/a	n/a	1	51	2
2112.54	1	10	n/a	n/a	1	51	3
2113.8064	1	10	n/a	n/a	1	51	4
2114.973	1	10	n/a	n/a	1	51	5
2116.1396	1	21	n/a	n/a	1	51	0
2116.9404	1	81	n/a	n/a	1	0	0
2117.1404	1	81	n/a	n/a	1	0	0
2117.3404	1	81	n/a	n/a	1	0	0
2117.5404	1	81	n/a	n/a	1	0	0
2117.7404	1	81	n/a	n/a	1	0	0
2117.9404	1	81	n/a	n/a	1	0	0
2118.1404	1	81	n/a	n/a	1	0	0
2118.3404	1	81	n/a	n/a	1	0	0
2118.5404	1	81	n/a	n/a	1	0	0
2118.7404	1	81	n/a	n/a	1	0	0
2119.8728	1	10	n/a	n/a	1	51	1
2121.1894	1	10	n/a	n/a	1	51	2
2122.4894	1	10	n/a	n/a	1	51	3
2123.6726	1	10	n/a	n/a	1	51	4
2124.8392	1	10	n/a	n/a	1	51	5
2126.0058	1	21	n/a	n/a	1	51	0
2127.139	1	10	n/a	n/a	1	51	1
2128.389	1	10	n/a	n/a	1	51	2
2129.6056	1	10	n/a	n/a	1	51	3
2130.7388	1	10	n/a	n/a	1	51	4
2131.9222	1	10	n/a	n/a	1	51	5
2133.1054	1	21	n/a	n/a	1	51	0
2134.1886	1	10	n/a	n/a	1	51	1
2135.3552	1	10	n/a	n/a	1	51	2
2136.6552	1	10	n/a	n/a	1	51	3
2137.9718	1	10	n/a	n/a	1	51	4
2139.2884	1	10	n/a	n/a	1	51	5
2140.605	1	21	n/a	n/a	1	51	0
2141.8382	1	10	n/a	n/a	1	51	1
2143.0714	1	21	n/a	n/a	1	51	0
2143.9562	1	81	n/a	n/a	1	0	0
2144.1562	1	81	n/a	n/a	1	0	0
2144.3562	1	81	n/a	n/a	1	0	0
2144.5562	1	81	n/a	n/a	1	0	0
2144.7562	1	81	n/a	n/a	1	0	0
2144.9562	1	81	n/a	n/a	1	0	0
2145.1562	1	81	n/a	n/a	1	0	0
2145.3562	1	81	n/a	n/a	1	0	0
2145.5562	1	81	n/a	n/a	1	0	0
2145.7562	1	81	n/a	n/a	1	0	0
2147.1212	1	10	n/a	n/a	1	51	1
2148.4212	1	10	n/a	n/a	1	51	2
2149.571	1	10	n/a	n/a	1	51	3
2150.8044	1	10	n/a	n/a	1	51	4
2152.1042	1	10	n/a	n/a	1	51	5
2153.4208	1	10	n/a	n/a	1	51	6
2154.5042	1	10	n/a	n/a	1	51	7
2155.5874	1	21	n/a	n/a	1	51	0
2156.6706	1	10	n/a	n/a	1	51	1
2157.9206	1	10	n/a	n/a	1	51	2
2159.2038	1	10	n/a	n/a	1	51	3
2160.4704	1	10	n/a	n/a	1	51	4
2161.587	1	10	n/a	n/a	1	51	5
2162.7702	1	10	n/a	n/a	1	51	6
2163.9702	1	10	n/a	n/a	1	51	7
2165.1702	1	21	n/a	n/a	1	51	0
2166.27	1	10	n/a	n/a	1	51	1
2167.37	1	21	n/a	n/a	1	51	0
2168.5366	1	10	n/a	n/a	1	51	1
2169.8198	1	10	n/a	n/a	1	51	2
