onset	duration	value	response	rt	good	TMS	seq
100.4668	1	81	n/a	n/a	1	0	0
100.6668	1	81	n/a	n/a	1	0	0
100.8668	1	81	n/a	n/a	1	0	0
101.0668	1	81	n/a	n/a	1	0	0
101.2668	1	81	n/a	n/a	1	0	0
101.4668	1	81	n/a	n/a	1	0	0
101.6668	1	81	n/a	n/a	1	0	0
101.8668	1	81	n/a	n/a	1	0	0
102.0668	1	81	n/a	n/a	1	0	0
102.2668	1	81	n/a	n/a	1	0	0
103.7008	1	10	403.4	403.4	1	51	1
105.034	1	21	286.1	286.1	1	51	0
106.3006	1	10	283.5	283.5	1	51	1
107.534	1	10	330.2	330.2	1	51	2
108.5838	1	10	288.2	288.2	1	51	3
109.8172	1	10	302.9	302.9	1	51	4
111.0504	1	10	253.7	253.7	1	51	5
112.3502	1	10	281.6	281.6	1	51	6
113.6336	1	10	342.4	342.4	1	51	7
114.9168	1	21	-99	-99	1	51	0
116.0834	1	10	260.5	260.5	1	51	1
117.2166	1	10	327.2	327.2	1	51	2
118.4666	1	10	277.3	277.3	1	51	3
119.5832	1	10	328.6	328.6	1	51	4
120.7832	1	10	280.6	280.6	1	51	5
122.0998	1	10	276	276	1	51	6
123.3664	1	10	273.4	273.4	1	51	7
124.633	1	21	-99	-99	1	51	0
125.8828	1	10	236.8	236.8	1	51	1
127.016	1	10	287.5	287.5	1	51	2
128.0184	1	81	n/a	n/a	1	0	0
128.2184	1	81	n/a	n/a	1	0	0
128.4184	1	81	n/a	n/a	1	0	0
128.6184	1	81	n/a	n/a	1	0	0
128.8184	1	81	n/a	n/a	1	0	0
129.0186	1	81	n/a	n/a	1	0	0
129.2186	1	81	n/a	n/a	1	0	0
129.4186	1	81	n/a	n/a	1	0	0
129.6184	1	81	n/a	n/a	1	0	0
129.8184	1	81	n/a	n/a	1	0	0
131.0992	1	10	332.3	332.3	1	51	1
132.3324	1	10	283	283	1	51	2
133.3824	1	10	337.1	337.1	1	51	3
134.4156	1	10	375.8	375.8	1	51	4
135.6656	1	10	277.9	277.9	1	51	5
136.7156	1	10	331.9	331.9	1	51	6
137.8488	1	10	286.7	286.7	1	51	7
138.982	1	21	-99	-99	1	51	0
140.032	1	10	295.3	295.3	1	51	1
141.082	1	21	-99	-99	1	51	0
142.1986	1	10	336.8	336.8	1	51	1
143.3984	1	10	288.9	288.9	1	51	2
144.4484	1	10	294.8	294.8	1	51	3
145.4984	1	21	-99	-99	1	51	0
146.815	1	10	344.3	344.3	1	51	1
148.1148	1	10	260.3	260.3	1	51	2
149.2148	1	10	280.4	280.4	1	51	3
150.4314	1	10	263.8	263.8	1	51	4
151.6646	1	10	262.4	262.4	1	51	5
152.8478	1	10	279.2	279.2	1	51	6
153.9224	1	81	n/a	n/a	1	0	0
154.1224	1	81	n/a	n/a	1	0	0
154.3224	1	81	n/a	n/a	1	0	0
154.5224	1	81	n/a	n/a	1	0	0
154.7224	1	81	n/a	n/a	1	0	0
154.9224	1	81	n/a	n/a	1	0	0
155.1224	1	81	n/a	n/a	1	0	0
155.3224	1	81	n/a	n/a	1	0	0
155.5224	1	81	n/a	n/a	1	0	0
155.7224	1	81	n/a	n/a	1	0	0
157.031	1	10	287.9	287.9	1	51	1
158.0642	1	10	278.7	278.7	1	51	2
159.2308	1	10	248	248	1	51	3
160.4308	1	10	280.1	280.1	1	51	4
161.7474	1	10	275.5	275.5	1	51	5
163.064	1	21	-99	-99	1	51	0
164.2472	1	10	255.5	255.5	1	51	1
165.4304	1	21	-99	-99	1	51	0
166.5304	1	10	276.3	276.3	1	51	1
167.6136	1	10	297.1	297.1	1	51	2
168.8636	1	10	311.1	311.1	1	51	3
170.1136	1	21	-99	-99	1	51	0
171.3134	1	10	261.1	261.1	1	51	1
172.53	1	10	292.5	292.5	1	51	2
173.6134	1	10	281.3	281.3	1	51	3
174.88	1	10	262.6	262.6	1	51	4
176.1966	1	10	274	274	1	51	5
177.513	1	21	-99	-99	1	51	0
178.6796	1	10	238.8	238.8	1	51	1
179.963	1	10	395.5	395.5	1	51	2
180.7894	1	81	n/a	n/a	1	0	0
180.9894	1	81	n/a	n/a	1	0	0
181.1894	1	81	n/a	n/a	1	0	0
181.3894	1	81	n/a	n/a	1	0	0
181.5894	1	81	n/a	n/a	1	0	0
181.7894	1	81	n/a	n/a	1	0	0
181.9894	1	81	n/a	n/a	1	0	0
182.1894	1	81	n/a	n/a	1	0	0
182.3894	1	81	n/a	n/a	1	0	0
182.5894	1	81	n/a	n/a	1	0	0
183.846	1	10	336.3	336.3	1	51	1
185.0126	1	21	-99	-99	1	51	0
186.296	1	10	286.4	286.4	1	51	1
187.4958	1	10	286.5	286.5	1	51	2
188.6458	1	10	304.4	304.4	1	51	3
189.679	1	10	279.2	279.2	1	51	4
190.7956	1	10	282.5	282.5	1	51	5
191.9122	1	21	-99	-99	1	51	0
193.1288	1	10	285.3	285.3	1	51	1
194.2788	1	10	287.4	287.4	1	51	2
195.312	1	10	326	326	1	51	3
196.5286	1	10	261.4	261.4	1	51	4
197.7118	1	10	262.1	262.1	1	51	5
198.8952	1	21	-99	-99	1	51	0
200.1284	1	10	277.6	277.6	1	51	1
201.295	1	10	278.9	278.9	1	51	2
202.3782	1	10	283.6	283.6	1	51	3
203.5616	1	10	268.3	268.3	1	51	4
204.6448	1	10	257.1	257.1	1	51	5
205.728	1	21	277.8	277.8	1	51	0
206.6216	1	81	n/a	n/a	1	0	0
206.8216	1	81	n/a	n/a	1	0	0
207.0216	1	81	n/a	n/a	1	0	0
207.2216	1	81	n/a	n/a	1	0	0
207.4216	1	81	n/a	n/a	1	0	0
207.6216	1	81	n/a	n/a	1	0	0
207.8216	1	81	n/a	n/a	1	0	0
208.0216	1	81	n/a	n/a	1	0	0
208.2216	1	81	n/a	n/a	1	0	0
208.4216	1	81	n/a	n/a	1	0	0
209.6778	1	10	375.9	375.9	1	51	1
210.9612	1	10	292.6	292.6	1	51	2
212.161	1	10	292.7	292.7	1	51	3
213.3944	1	10	307.4	307.4	1	51	4
214.6442	1	10	369.4	369.4	1	51	5
215.8942	1	21	-99	-99	1	51	0
217.0774	1	10	288.2	288.2	1	51	1
218.2606	1	21	-99	-99	1	51	0
219.5106	1	10	239	239	1	51	1
220.7606	1	21	-99	-99	1	51	0
221.8938	1	10	271.7	271.7	1	51	1
223.027	1	21	-99	-99	1	51	0
224.277	1	10	256.5	256.5	1	51	1
225.527	1	10	286.4	286.4	1	51	2
226.8268	1	10	266.5	266.5	1	51	3
228.06	1	10	281.2	281.2	1	51	4
229.3434	1	10	326	326	1	51	5
230.6266	1	21	-99	-99	1	51	0
231.9432	1	10	318	318	1	51	1
233.2098	1	10	299.4	299.4	1	51	2
244.3956	1	81	n/a	n/a	1	0	0
244.5956	1	81	n/a	n/a	1	0	0
244.7956	1	81	n/a	n/a	1	0	0
244.9956	1	81	n/a	n/a	1	0	0
245.1956	1	81	n/a	n/a	1	0	0
245.3956	1	81	n/a	n/a	1	0	0
245.5956	1	81	n/a	n/a	1	0	0
245.7956	1	81	n/a	n/a	1	0	0
245.9956	1	81	n/a	n/a	1	0	0
246.1956	1	81	n/a	n/a	1	0	0
247.559	1	10	349.9	349.9	1	50	1
248.8256	1	21	-99	-99	1	50	0
249.9922	1	10	268.7	268.7	1	50	1
251.1588	1	10	334.1	334.1	1	50	2
252.242	1	10	354.8	354.8	1	50	3
253.4252	1	10	291.5	291.5	1	50	4
254.6252	1	10	275.5	275.5	1	50	5
255.8584	1	10	258.3	258.3	1	50	6
257.075	1	10	257.7	257.7	1	50	7
258.2916	1	21	-99	-99	1	50	0
259.6082	1	10	236.4	236.4	1	50	1
260.9248	1	21	-99	-99	1	50	0
262.2248	1	10	275.8	275.8	1	50	1
263.408	1	10	292.6	292.6	1	50	2
264.6246	1	10	451.9	451.9	1	50	3
265.8412	1	21	-99	-99	1	50	0
266.8912	1	10	297.3	297.3	1	50	1
268.0578	1	10	410.7	410.7	1	50	2
269.2576	1	10	282.8	282.8	1	50	3
270.4576	1	21	-99	-99	1	50	0
271.3902	1	81	n/a	n/a	1	0	0
271.5902	1	81	n/a	n/a	1	0	0
271.7902	1	81	n/a	n/a	1	0	0
271.9902	1	81	n/a	n/a	1	0	0
272.1902	1	81	n/a	n/a	1	0	0
272.3902	1	81	n/a	n/a	1	0	0
272.5902	1	81	n/a	n/a	1	0	0
272.7902	1	81	n/a	n/a	1	0	0
272.9902	1	81	n/a	n/a	1	0	0
273.1902	1	81	n/a	n/a	1	0	0
274.5406	1	10	455.6	455.6	1	50	1
275.7406	1	10	279.7	279.7	1	50	2
276.8738	1	10	282.4	282.4	1	50	3
278.1072	1	10	265	265	1	50	4
279.407	1	10	277.1	277.1	1	50	5
280.4404	1	10	315.8	315.8	1	50	6
281.4902	1	10	241.9	241.9	1	50	7
282.5402	1	21	-99	-99	1	50	0
283.7734	1	10	262.6	262.6	1	50	1
284.94	1	10	280	280	1	50	2
286.2566	1	10	323.4	323.4	1	50	3
287.5232	1	10	352.8	352.8	1	50	4
288.7398	1	10	304.2	304.2	1	50	5
289.9064	1	10	273.5	273.5	1	50	6
291.0396	1	10	292.2	292.2	1	50	7
292.173	1	21	294.9	294.9	1	50	0
293.4896	1	10	322.3	322.3	1	50	1
294.7228	1	10	305	305	1	50	2
295.9728	1	10	319	319	1	50	3
297.2226	1	21	-99	-99	1	50	0
298.0804	1	81	n/a	n/a	1	0	0
298.2804	1	81	n/a	n/a	1	0	0
298.4804	1	81	n/a	n/a	1	0	0
298.6804	1	81	n/a	n/a	1	0	0
298.8804	1	81	n/a	n/a	1	0	0
299.0804	1	81	n/a	n/a	1	0	0
299.2804	1	81	n/a	n/a	1	0	0
299.4804	1	81	n/a	n/a	1	0	0
299.6804	1	81	n/a	n/a	1	0	0
299.8804	1	81	n/a	n/a	1	0	0
301.289	1	10	330.6	330.6	1	50	1
302.4556	1	10	315.9	315.9	1	50	2
303.5222	1	10	353.3	353.3	1	50	3
304.6556	1	10	276	276	1	50	4
305.7388	1	10	264.8	264.8	1	50	5
306.9054	1	10	250.2	250.2	1	50	6
308.0054	1	10	302.1	302.1	1	50	7
309.1052	1	21	-99	-99	1	50	0
310.4218	1	10	253.6	253.6	1	50	1
311.5052	1	10	290.3	290.3	1	50	2
312.7384	1	10	289	289	1	50	3
313.9716	1	10	319.8	319.8	1	50	4
315.205	1	10	302.4	302.4	1	50	5
316.4382	1	21	-99	-99	1	50	0
317.6714	1	10	251.9	251.9	1	50	1
318.9048	1	21	-99	-99	1	50	0
320.0714	1	10	268	268	1	50	1
321.1546	1	10	528.6	528.6	1	50	2
322.4046	1	10	334.7	334.7	1	50	3
323.6544	1	21	-99	-99	1	50	0
324.556	1	81	n/a	n/a	1	0	0
324.756	1	81	n/a	n/a	1	0	0
324.956	1	81	n/a	n/a	1	0	0
325.156	1	81	n/a	n/a	1	0	0
325.356	1	81	n/a	n/a	1	0	0
325.556	1	81	n/a	n/a	1	0	0
325.756	1	81	n/a	n/a	1	0	0
325.956	1	81	n/a	n/a	1	0	0
326.156	1	81	n/a	n/a	1	0	0
326.356	1	81	n/a	n/a	1	0	0
327.6542	1	10	364.8	364.8	1	50	1
328.9542	1	10	328.9	328.9	1	50	2
329.9874	1	10	287.6	287.6	1	50	3
331.054	1	10	325	325	1	50	4
332.3706	1	10	288.4	288.4	1	50	5
333.5372	1	10	321.7	321.7	1	50	6
334.6872	1	10	291.8	291.8	1	50	7
335.837	1	21	-99	-99	1	50	0
337.0036	1	10	279.2	279.2	1	50	1
338.2368	1	10	374	374	1	50	2
339.3868	1	10	296	296	1	50	3
340.5368	1	21	-99	-99	1	50	0
341.8034	1	10	279.4	279.4	1	50	1
342.92	1	10	314.8	314.8	1	50	2
343.9532	1	10	273.5	273.5	1	50	3
345.0698	1	10	292.9	292.9	1	50	4
346.2364	1	10	294.3	294.3	1	50	5
347.403	1	21	-99	-99	1	50	0
348.6862	1	10	260.3	260.3	1	50	1
349.8696	1	10	373	373	1	50	2
350.819	1	81	n/a	n/a	1	0	0
351.019	1	81	n/a	n/a	1	0	0
351.219	1	81	n/a	n/a	1	0	0
351.419	1	81	n/a	n/a	1	0	0
351.619	1	81	n/a	n/a	1	0	0
351.819	1	81	n/a	n/a	1	0	0
352.019	1	81	n/a	n/a	1	0	0
352.219	1	81	n/a	n/a	1	0	0
352.419	1	81	n/a	n/a	1	0	0
352.619	1	81	n/a	n/a	1	0	0
353.8026	1	10	327.8	327.8	1	50	1
355.0526	1	10	277.9	277.9	1	50	2
356.2524	1	10	309.9	309.9	1	50	3
357.469	1	10	309.3	309.3	1	50	4
358.669	1	10	261.4	261.4	1	50	5
359.8856	1	10	276.7	276.7	1	50	6
361.0022	1	10	296.1	296.1	1	50	7
362.1188	1	21	-99	-99	1	50	0
363.4354	1	10	262.9	262.9	1	50	1
364.5186	1	10	299.6	299.6	1	50	2
365.6352	1	10	302.9	302.9	1	50	3
366.9518	1	10	266.3	266.3	1	50	4
368.2684	1	10	277.7	277.7	1	50	5
369.585	1	21	-99	-99	1	50	0
370.6184	1	10	279.8	279.8	1	50	1
371.7516	1	10	282.4	282.4	1	50	2
372.9682	1	10	249.8	249.8	1	50	3
374.2514	1	10	262.6	262.6	1	50	4
375.3514	1	10	266.6	266.6	1	50	5
376.4512	1	21	-99	-99	1	50	0
401.201	1	82	n/a	n/a	1	0	0
401.367	1	82	n/a	n/a	1	0	0
401.62	1	82	n/a	n/a	1	0	0
401.845	1	82	n/a	n/a	1	0	0
401.94	1	82	n/a	n/a	1	0	0
402.201	1	82	n/a	n/a	1	0	0
402.265	1	82	n/a	n/a	1	0	0
402.584	1	82	n/a	n/a	1	0	0
402.877	1	82	n/a	n/a	1	0	0
403.012	1	82	n/a	n/a	1	0	0
404.233	1	10	376.3	376.3	1	52	1
405.3996	1	10	313.7	313.7	1	52	2
406.6328	1	10	264.4	264.4	1	52	3
407.866	1	21	-99	-99	1	52	0
408.916	1	10	301.2	301.2	1	52	1
409.966	1	21	-99	-99	1	52	0
411.2492	1	10	255.9	255.9	1	52	1
412.5324	1	10	332.7	332.7	1	52	2
413.6658	1	10	319.4	319.4	1	52	3
414.7324	1	10	340.8	340.8	1	52	4
416.0322	1	10	320.7	320.7	1	52	5
417.1488	1	10	340.1	340.1	1	52	6
418.2988	1	10	342.2	342.2	1	52	7
419.4488	1	21	-99	-99	1	52	0
420.732	1	10	277	277	1	52	1
421.8986	1	10	310.4	310.4	1	52	2
422.9486	1	10	396.3	396.3	1	52	3
424.0652	1	10	319.7	319.7	1	52	4
425.2818	1	10	287.1	287.1	1	52	5
426.515	1	21	-99	-99	1	52	0
427.3504	1	82	n/a	n/a	1	0	0
427.3834	1	82	n/a	n/a	1	0	0
427.6984	1	82	n/a	n/a	1	0	0
427.9674	1	82	n/a	n/a	1	0	0
428.1344	1	82	n/a	n/a	1	0	0
428.3504	1	82	n/a	n/a	1	0	0
428.6504	1	82	n/a	n/a	1	0	0
428.7984	1	82	n/a	n/a	1	0	0
429.0384	1	82	n/a	n/a	1	0	0
429.1004	1	82	n/a	n/a	1	0	0
430.4648	1	10	320	320	1	52	1
431.7646	1	10	316	316	1	52	2
433.0812	1	10	279.4	279.4	1	52	3
434.3812	1	10	275.5	275.5	1	52	4
435.5478	1	10	276.8	276.8	1	52	5
436.7144	1	21	246.2	246.2	1	52	0
437.9976	1	10	274.9	274.9	1	52	1
439.0476	1	10	297	297	1	52	2
440.0808	1	10	271.7	271.7	1	52	3
441.2808	1	10	287.7	287.7	1	52	4
442.3974	1	10	323	323	1	52	5
443.514	1	21	-99	-99	1	52	0
444.7306	1	10	261.8	261.8	1	52	1
446.0472	1	10	305.3	305.3	1	52	2
447.2804	1	10	496	496	1	52	3
448.447	1	10	353.3	353.3	1	52	4
449.697	1	10	495.3	495.3	1	52	5
450.9468	1	21	-99	-99	1	52	0
452.0134	1	10	290.8	290.8	1	52	1
453.3134	1	10	318.9	318.9	1	52	2
454.215	1	82	n/a	n/a	1	0	0
454.279	1	82	n/a	n/a	1	0	0
454.561	1	82	n/a	n/a	1	0	0
454.591	1	82	n/a	n/a	1	0	0
455.016	1	82	n/a	n/a	1	0	0
455.215	1	82	n/a	n/a	1	0	0
455.505	1	82	n/a	n/a	1	0	0
455.91	1	82	n/a	n/a	1	0	0
455.993	1	82	n/a	n/a	1	0	0
456.101	1	82	n/a	n/a	1	0	0
457.3132	1	10	335	335	1	52	1
458.4298	1	10	338.4	338.4	1	52	2
459.6796	1	10	288.4	288.4	1	52	3
460.9296	1	21	-99	-99	1	52	0
462.0796	1	10	288.4	288.4	1	52	1
463.3962	1	10	331.8	331.8	1	52	2
464.6628	1	10	313.2	313.2	1	52	3
465.7126	1	10	479.3	479.3	1	52	4
466.9792	1	10	316.6	316.6	1	52	5
468.2458	1	21	-99	-99	1	52	0
469.3458	1	10	286.1	286.1	1	52	1
470.6456	1	10	314.1	314.1	1	52	2
471.7122	1	10	351.5	351.5	1	52	3
472.779	1	21	-99	-99	1	52	0
473.8788	1	10	264.9	264.9	1	52	1
474.9788	1	21	-99	-99	1	52	0
476.262	1	10	233.7	233.7	1	52	1
477.4286	1	10	395	395	1	52	2
478.5118	1	10	287.8	287.8	1	52	3
479.6452	1	10	258.4	258.4	1	52	4
480.5948	1	82	n/a	n/a	1	0	0
480.6178	1	82	n/a	n/a	1	0	0
480.9218	1	82	n/a	n/a	1	0	0
480.9768	1	82	n/a	n/a	1	0	0
481.1168	1	82	n/a	n/a	1	0	0
481.5948	1	82	n/a	n/a	1	0	0
481.7698	1	82	n/a	n/a	1	0	0
481.8898	1	82	n/a	n/a	1	0	0
482.1198	1	82	n/a	n/a	1	0	0
482.1728	1	82	n/a	n/a	1	0	0
483.795	1	10	364.6	364.6	1	52	1
484.9282	1	10	287.3	287.3	1	52	2
486.0114	1	10	244	244	1	52	3
487.0948	1	21	-99	-99	1	52	0
488.378	1	10	277.4	277.4	1	52	1
489.4112	1	10	284.1	284.1	1	52	2
490.7112	1	10	328.2	328.2	1	52	3
491.8278	1	10	299.5	299.5	1	52	4
492.9444	1	10	366.9	366.9	1	52	5
494.061	1	21	-99	-99	1	52	0
495.2276	1	10	275.7	275.7	1	52	1
496.2608	1	10	298.4	298.4	1	52	2
497.4774	1	10	281.8	281.8	1	52	3
498.694	1	21	-99	-99	1	52	0
499.744	1	10	271.1	271.1	1	52	1
501.0606	1	10	314.6	314.6	1	52	2
502.1272	1	10	287.9	287.9	1	52	3
503.1772	1	10	294	294	1	52	4
504.377	1	10	278	278	1	52	5
505.527	1	10	312	312	1	52	6
506.3834	1	82	n/a	n/a	1	0	0
506.6144	1	82	n/a	n/a	1	0	0
506.6614	1	82	n/a	n/a	1	0	0
506.9944	1	82	n/a	n/a	1	0	0
507.1124	1	82	n/a	n/a	1	0	0
507.3834	1	82	n/a	n/a	1	0	0
507.6844	1	82	n/a	n/a	1	0	0
507.7244	1	82	n/a	n/a	1	0	0
508.0924	1	82	n/a	n/a	1	0	0
508.3174	1	82	n/a	n/a	1	0	0
509.51	1	10	344.9	344.9	1	52	1
510.76	1	10	295	295	1	52	2
511.8432	1	10	315.6	315.6	1	52	3
512.9266	1	21	320.3	320.3	1	52	0
514.0432	1	10	291.7	291.7	1	52	1
515.343	1	10	287.8	287.8	1	52	2
516.393	1	10	341.8	341.8	1	52	3
517.443	1	21	-99	-99	1	52	0
518.5262	1	10	304.5	304.5	1	52	1
519.6428	1	10	307.9	307.9	1	52	2
520.7428	1	10	296	296	1	52	3
521.8426	1	21	-99	-99	1	52	0
522.9426	1	10	272.1	272.1	1	52	1
524.0426	1	21	276.1	276.1	1	52	0
525.0758	1	10	234.7	234.7	1	52	1
526.159	1	10	287.5	287.5	1	52	2
527.259	1	10	355.5	355.5	1	52	3
528.359	1	21	-99	-99	1	52	0
529.5088	1	10	281.6	281.6	1	52	1
530.7088	1	10	745.6	745.6	1	52	2
897.4594	1	81	n/a	n/a	1	0	0
897.6594	1	81	n/a	n/a	1	0	0
897.8594	1	81	n/a	n/a	1	0	0
898.0594	1	81	n/a	n/a	1	0	0
898.2594	1	81	n/a	n/a	1	0	0
898.4594	1	81	n/a	n/a	1	0	0
898.6594	1	81	n/a	n/a	1	0	0
898.8594	1	81	n/a	n/a	1	0	0
899.0594	1	81	n/a	n/a	1	0	0
899.2594	1	81	n/a	n/a	1	0	0
900.6202	1	10	361.8	361.8	1	51	1
901.6868	1	10	-99	-99	1	51	2
902.82	1	10	337.9	337.9	1	51	3
904.1032	1	10	318.6	318.6	1	51	4
905.3032	1	10	414.7	414.7	1	51	5
906.5032	1	21	-99	-99	1	51	0
907.7864	1	10	443.4	443.4	1	51	1
908.8196	1	10	530.1	530.1	1	51	2
910.0696	1	10	-99	-99	1	51	3
911.1362	1	10	325.5	325.5	1	51	4
912.4028	1	10	322.9	322.9	1	51	5
913.686	1	10	303.7	303.7	1	51	6
914.7694	1	10	308.4	308.4	1	51	7
915.8526	1	21	-99	-99	1	51	0
916.9858	1	10	299.7	299.7	1	51	1
918.1192	1	21	-99	-99	1	51	0
919.419	1	10	250.5	250.5	1	51	1
920.719	1	21	-99	-99	1	51	0
921.9022	1	10	343.2	343.2	1	51	1
923.1188	1	10	342.6	342.6	1	51	2
924.2322	1	81	n/a	n/a	1	0	0
924.4322	1	81	n/a	n/a	1	0	0
924.6322	1	81	n/a	n/a	1	0	0
924.8322	1	81	n/a	n/a	1	0	0
925.0322	1	81	n/a	n/a	1	0	0
925.2322	1	81	n/a	n/a	1	0	0
925.4322	1	81	n/a	n/a	1	0	0
925.6322	1	81	n/a	n/a	1	0	0
925.8322	1	81	n/a	n/a	1	0	0
926.0322	1	81	n/a	n/a	1	0	0
927.1852	1	10	324.2	324.2	1	51	1
928.3186	1	10	-99	-99	1	51	2
929.5352	1	10	358.2	358.2	1	51	3
930.735	1	10	326.3	326.3	1	51	4
931.9016	1	10	295.7	295.7	1	51	5
933.2016	1	10	275.7	275.7	1	51	6
934.3514	1	10	293.7	293.7	1	51	7
935.5014	1	21	-99	-99	1	51	0
936.5514	1	10	317.8	317.8	1	51	1
937.6012	1	21	-99	-99	1	51	0
938.7346	1	10	246.6	246.6	1	51	1
939.9678	1	10	293.3	293.3	1	51	2
941.1678	1	10	293.3	293.3	1	51	3
942.4676	1	10	305.3	305.3	1	51	4
943.601	1	10	308.1	308.1	1	51	5
944.8842	1	10	320.8	320.8	1	51	6
946.0508	1	10	-99	-99	1	51	7
947.2174	1	21	275.5	275.5	1	51	0
948.2674	1	10	281.5	281.5	1	51	1
949.3172	1	21	-99	-99	1	51	0
950.203	1	81	n/a	n/a	1	0	0
950.403	1	81	n/a	n/a	1	0	0
950.603	1	81	n/a	n/a	1	0	0
950.803	1	81	n/a	n/a	1	0	0
951.003	1	81	n/a	n/a	1	0	0
951.203	1	81	n/a	n/a	1	0	0
951.403	1	81	n/a	n/a	1	0	0
951.603	1	81	n/a	n/a	1	0	0
951.803	1	81	n/a	n/a	1	0	0
952.003	1	81	n/a	n/a	1	0	0
953.417	1	10	-99	-99	1	51	1
954.617	1	10	299.8	299.8	1	51	2
955.8336	1	10	-99	-99	1	51	3
957.0834	1	10	457.2	457.2	1	51	4
958.1834	1	10	365.3	365.3	1	51	5
959.2834	1	21	-99	-99	1	51	0
960.55	1	10	302.6	302.6	1	51	1
961.7998	1	10	300.7	300.7	1	51	2
963.0498	1	10	-99	-99	1	51	3
964.2164	1	10	284.2	284.2	1	51	4
965.433	1	10	-99	-99	1	51	5
966.6496	1	21	-99	-99	1	51	0
967.7494	1	10	286.9	286.9	1	51	1
969.066	1	10	378.3	378.3	1	51	2
970.3494	1	10	-99	-99	1	51	3
971.566	1	10	310.5	310.5	1	51	4
972.6992	1	10	-99	-99	1	51	5
973.8324	1	21	-99	-99	1	51	0
975.0824	1	10	281.9	281.9	1	51	1
976.2156	1	10	284.6	284.6	1	51	2
977.172	1	81	n/a	n/a	1	0	0
977.372	1	81	n/a	n/a	1	0	0
977.572	1	81	n/a	n/a	1	0	0
977.772	1	81	n/a	n/a	1	0	0
977.972	1	81	n/a	n/a	1	0	0
978.172	1	81	n/a	n/a	1	0	0
978.372	1	81	n/a	n/a	1	0	0
978.572	1	81	n/a	n/a	1	0	0
978.772	1	81	n/a	n/a	1	0	0
978.972	1	81	n/a	n/a	1	0	0
980.1654	1	10	334.7	334.7	1	51	1
981.4486	1	10	283.4	283.4	1	51	2
982.7652	1	10	-99	-99	1	51	3
983.8652	1	10	298.9	298.9	1	51	4
985.1152	1	10	312.9	312.9	1	51	5
986.3818	1	10	326.3	326.3	1	51	6
987.5484	1	10	311.7	311.7	1	51	7
988.715	1	21	-99	-99	1	51	0
989.9316	1	10	280.5	280.5	1	51	1
991.2482	1	10	291.8	291.8	1	51	2
992.3314	1	10	296.5	296.5	1	51	3
993.4146	1	21	285.2	285.2	1	51	0
994.6812	1	10	266.6	266.6	1	51	1
995.8978	1	10	314	314	1	51	2
997.2144	1	10	341.3	341.3	1	51	3
998.3644	1	10	359.4	359.4	1	51	4
999.531	1	10	376.8	376.8	1	51	5
1000.5808	1	10	270.8	270.8	1	51	6
1001.6808	1	10	258.9	258.9	1	51	7
1002.7808	1	21	262.9	262.9	1	51	0
1003.7892	1	81	n/a	n/a	1	0	0
1003.9892	1	81	n/a	n/a	1	0	0
1004.1892	1	81	n/a	n/a	1	0	0
1004.3892	1	81	n/a	n/a	1	0	0
1004.5892	1	81	n/a	n/a	1	0	0
1004.7892	1	81	n/a	n/a	1	0	0
1004.9892	1	81	n/a	n/a	1	0	0
1005.1892	1	81	n/a	n/a	1	0	0
1005.3892	1	81	n/a	n/a	1	0	0
1005.5892	1	81	n/a	n/a	1	0	0
1006.7472	1	10	360.4	360.4	1	51	1
1007.8972	1	10	282.4	282.4	1	51	2
1009.1638	1	10	311.8	311.8	1	51	3
1010.4302	1	10	293.1	293.1	1	51	4
1011.6968	1	10	306.5	306.5	1	51	5
1012.9634	1	21	-99	-99	1	51	0
1014.13	1	10	289.3	289.3	1	51	1
1015.2134	1	10	326	326	1	51	2
1016.5132	1	10	290	290	1	51	3
1017.7966	1	10	366.7	366.7	1	51	4
1018.9464	1	10	320.8	320.8	1	51	5
1020.1964	1	10	286.9	286.9	1	51	6
1021.3964	1	10	350.9	350.9	1	51	7
1022.5962	1	21	-99	-99	1	51	0
1023.6462	1	10	293	293	1	51	1
1024.6962	1	21	-99	-99	1	51	0
1025.996	1	10	295.1	295.1	1	51	1
1027.0626	1	10	364.5	364.5	1	51	2
1028.296	1	10	315.2	315.2	1	51	3
1029.5292	1	21	-99	-99	1	51	0
1044.2484	1	81	n/a	n/a	1	0	0
1044.4484	1	81	n/a	n/a	1	0	0
1044.6484	1	81	n/a	n/a	1	0	0
1044.8484	1	81	n/a	n/a	1	0	0
1045.0484	1	81	n/a	n/a	1	0	0
1045.2484	1	81	n/a	n/a	1	0	0
1045.4484	1	81	n/a	n/a	1	0	0
1045.6484	1	81	n/a	n/a	1	0	0
1045.8484	1	81	n/a	n/a	1	0	0
1046.0484	1	81	n/a	n/a	1	0	0
1047.2114	1	10	471.2	471.2	1	50	1
1048.278	1	21	-99	-99	1	50	0
1049.3114	1	10	259.2	259.2	1	50	1
1050.3946	1	10	312	312	1	50	2
1051.5778	1	10	312.7	312.7	1	50	3
1052.7612	1	10	297.4	297.4	1	50	4
1053.9444	1	10	266.1	266.1	1	50	5
1055.1276	1	21	-99	-99	1	50	0
1056.3276	1	10	282.8	282.8	1	50	1
1057.5108	1	10	347.6	347.6	1	50	2
1058.5442	1	10	306.3	306.3	1	50	3
1059.6274	1	10	295	295	1	50	4
1060.8606	1	10	325.6	325.6	1	50	5
1062.0272	1	10	311	311	1	50	6
1063.0772	1	10	285.1	285.1	1	50	7
1064.1272	1	21	-99	-99	1	50	0
1065.3104	1	10	323.9	323.9	1	50	1
1066.527	1	10	291.3	291.3	1	50	2
1067.7936	1	10	336.6	336.6	1	50	3
1069.0768	1	10	285.3	285.3	1	50	4
1070.0982	1	81	n/a	n/a	1	0	0
1070.2982	1	81	n/a	n/a	1	0	0
1070.4982	1	81	n/a	n/a	1	0	0
1070.6982	1	81	n/a	n/a	1	0	0
1070.8982	1	81	n/a	n/a	1	0	0
1071.0982	1	81	n/a	n/a	1	0	0
1071.2982	1	81	n/a	n/a	1	0	0
1071.4982	1	81	n/a	n/a	1	0	0
1071.6982	1	81	n/a	n/a	1	0	0
1071.8982	1	81	n/a	n/a	1	0	0
1073.0432	1	10	318.7	318.7	1	50	1
1074.0932	1	21	-99	-99	1	50	0
1075.1932	1	10	296.9	296.9	1	50	1
1076.243	1	10	286.9	286.9	1	50	2
1077.2764	1	10	437.6	437.6	1	50	3
1078.3096	1	21	-99	-99	1	50	0
1079.3928	1	10	257.1	257.1	1	50	1
1080.5928	1	10	273	273	1	50	2
1081.626	1	10	295.8	295.8	1	50	3
1082.8094	1	10	296.5	296.5	1	50	4
1084.026	1	10	263.9	263.9	1	50	5
1085.2426	1	21	279.3	279.3	1	50	0
1086.5258	1	10	259.9	259.9	1	50	1
1087.659	1	10	278.6	278.6	1	50	2
1088.9756	1	10	322	322	1	50	3
1090.2922	1	21	-99	-99	1	50	0
1091.6088	1	10	280.8	280.8	1	50	1
1092.9254	1	10	516.2	516.2	1	50	2
1094.1754	1	10	322.2	322.2	1	50	3
1095.492	1	10	285.6	285.6	1	50	4
1096.3694	1	81	n/a	n/a	1	0	0
1096.5694	1	81	n/a	n/a	1	0	0
1096.7694	1	81	n/a	n/a	1	0	0
1096.9694	1	81	n/a	n/a	1	0	0
1097.1694	1	81	n/a	n/a	1	0	0
1097.3694	1	81	n/a	n/a	1	0	0
1097.5694	1	81	n/a	n/a	1	0	0
1097.7694	1	81	n/a	n/a	1	0	0
1097.9694	1	81	n/a	n/a	1	0	0
1098.1694	1	81	n/a	n/a	1	0	0
1099.3084	1	10	293	293	1	50	1
1100.4582	1	10	327.1	327.1	1	50	2
1101.7582	1	10	291.2	291.2	1	50	3
1102.9414	1	10	323.9	323.9	1	50	4
1104.2248	1	10	336.6	336.6	1	50	5
1105.508	1	10	381.3	381.3	1	50	6
1106.558	1	10	323.3	323.3	1	50	7
1107.6078	1	21	-99	-99	1	50	0
1108.6744	1	10	222.8	222.8	1	50	1
1109.791	1	10	274.2	274.2	1	50	2
1110.8576	1	10	295.6	295.6	1	50	3
1111.9242	1	10	300.9	300.9	1	50	4
1113.1242	1	10	284.9	284.9	1	50	5
1114.3242	1	21	-99	-99	1	50	0
1115.574	1	10	283	283	1	50	1
1116.6906	1	10	286.4	286.4	1	50	2
1117.7572	1	10	307.7	307.7	1	50	3
1118.8238	1	21	-99	-99	1	50	0
1119.9904	1	10	218.5	218.5	1	50	1
1121.157	1	10	283.9	283.9	1	50	2
1122.0434	1	81	n/a	n/a	1	0	0
1122.2434	1	81	n/a	n/a	1	0	0
1122.4434	1	81	n/a	n/a	1	0	0
1122.6434	1	81	n/a	n/a	1	0	0
1122.8434	1	81	n/a	n/a	1	0	0
1123.0434	1	81	n/a	n/a	1	0	0
1123.2434	1	81	n/a	n/a	1	0	0
1123.4434	1	81	n/a	n/a	1	0	0
1123.6434	1	81	n/a	n/a	1	0	0
1123.8434	1	81	n/a	n/a	1	0	0
1125.0068	1	10	290	290	1	50	1
1126.14	1	10	324.7	324.7	1	50	2
1127.29	1	10	-99	-99	1	50	3
1128.5232	1	10	309.5	309.5	1	50	4
1129.6232	1	10	329.6	329.6	1	50	5
1130.7232	1	10	365.5	365.5	1	50	6
1131.7564	1	10	516.2	516.2	1	50	7
1132.7896	1	21	-99	-99	1	50	0
1134.073	1	10	279.7	279.7	1	50	1
1135.3562	1	21	-99	-99	1	50	0
1136.5562	1	10	228.5	228.5	1	50	1
1137.656	1	10	264.5	264.5	1	50	2
1138.7894	1	10	203.2	203.2	1	50	3
1139.9226	1	21	-99	-99	1	50	0
1141.1892	1	10	251.3	251.3	1	50	1
1142.4392	1	10	409.3	409.3	1	50	2
1143.5058	1	10	254.7	254.7	1	50	3
1144.6056	1	10	274.7	274.7	1	50	4
1145.9222	1	10	286.1	286.1	1	50	5
1147.1722	1	10	284.2	284.2	1	50	6
1148.1376	1	81	n/a	n/a	1	0	0
1148.3376	1	81	n/a	n/a	1	0	0
1148.5376	1	81	n/a	n/a	1	0	0
1148.7376	1	81	n/a	n/a	1	0	0
1148.9376	1	81	n/a	n/a	1	0	0
1149.1376	1	81	n/a	n/a	1	0	0
1149.3376	1	81	n/a	n/a	1	0	0
1149.5376	1	81	n/a	n/a	1	0	0
1149.7376	1	81	n/a	n/a	1	0	0
1149.9376	1	81	n/a	n/a	1	0	0
1151.1552	1	10	445	445	1	50	1
1152.3052	1	10	319	319	1	50	2
1153.4552	1	10	289.1	289.1	1	50	3
1154.6884	1	10	287.8	287.8	1	50	4
1155.7384	1	10	405.8	405.8	1	50	5
1156.8716	1	10	312.5	312.5	1	50	6
1158.1882	1	10	323.9	323.9	1	50	7
1159.5048	1	21	-99	-99	1	50	0
1160.5548	1	10	277.4	277.4	1	50	1
1161.838	1	10	402	402	1	50	2
1162.988	1	10	276	276	1	50	3
1164.2712	1	10	272.8	272.8	1	50	4
1165.3378	1	10	358.2	358.2	1	50	5
1166.4044	1	21	267.6	267.6	1	50	0
1167.6376	1	10	250.2	250.2	1	50	1
1168.9042	1	10	311.6	311.6	1	50	2
1170.1708	1	10	293	293	1	50	3
1171.4374	1	21	-99	-99	1	50	0
1172.654	1	10	257.8	257.8	1	50	1
1173.8706	1	21	-99	-99	1	50	0
1188.6292	1	82	n/a	n/a	1	0	0
1188.8612	1	82	n/a	n/a	1	0	0
1189.2062	1	82	n/a	n/a	1	0	0
1189.2382	1	82	n/a	n/a	1	0	0
1189.3342	1	82	n/a	n/a	1	0	0
1189.6292	1	82	n/a	n/a	1	0	0
1190.0172	1	82	n/a	n/a	1	0	0
1190.1912	1	82	n/a	n/a	1	0	0
1190.4172	1	82	n/a	n/a	1	0	0
1190.5602	1	82	n/a	n/a	1	0	0
1191.7528	1	10	358.5	358.5	1	52	1
1193.0362	1	10	291.2	291.2	1	52	2
1194.2694	1	10	289.9	289.9	1	52	3
1195.4694	1	10	369.9	369.9	1	52	4
1196.536	1	10	455.3	455.3	1	52	5
1197.6858	1	10	329.4	329.4	1	52	6
1198.7192	1	10	304	304	1	52	7
1199.7524	1	21	-99	-99	1	52	0
1200.9856	1	10	309.4	309.4	1	52	1
1202.2356	1	21	-99	-99	1	52	0
1203.2688	1	10	266.2	266.2	1	52	1
1204.3022	1	21	-99	-99	1	52	0
1205.552	1	10	335	335	1	52	1
1206.602	1	10	389	389	1	52	2
1207.7186	1	10	456.4	456.4	1	52	3
1208.8352	1	21	-99	-99	1	52	0
1209.9352	1	10	255.8	255.8	1	52	1
1211.035	1	21	-99	-99	1	52	0
1212.3516	1	10	335.2	335.2	1	52	1
1213.4016	1	10	421.2	421.2	1	52	2
1214.2602	1	82	n/a	n/a	1	0	0
1214.5112	1	82	n/a	n/a	1	0	0
1214.8952	1	82	n/a	n/a	1	0	0
1215.087	1	82	n/a	n/a	1	0	0
1215.148	1	82	n/a	n/a	1	0	0
1215.2602	1	82	n/a	n/a	1	0	0
1215.3372	1	82	n/a	n/a	1	0	0
1215.6482	1	82	n/a	n/a	1	0	0
1215.8672	1	82	n/a	n/a	1	0	0
1216.2242	1	82	n/a	n/a	1	0	0
1217.4346	1	10	372.1	372.1	1	52	1
1218.718	1	21	304.7	304.7	1	52	0
1219.8012	1	10	277.5	277.5	1	52	1
1220.8844	1	21	-99	-99	1	52	0
1222.0344	1	10	284.2	284.2	1	52	1
1223.2844	1	10	378.3	378.3	1	52	2
1224.5342	1	10	360.4	360.4	1	52	3
1225.7842	1	21	-99	-99	1	52	0
1226.9342	1	10	296.4	296.4	1	52	1
1228.084	1	10	394.5	394.5	1	52	2
1229.3672	1	10	311.2	311.2	1	52	3
1230.6006	1	10	325.9	325.9	1	52	4
1231.9172	1	10	273.2	273.2	1	52	5
1233.0504	1	10	276	276	1	52	6
1234.2336	1	10	308.7	308.7	1	52	7
1235.417	1	21	-99	-99	1	52	0
1236.6002	1	10	278.1	278.1	1	52	1
1237.6334	1	10	396.8	396.8	1	52	2
1238.8	1	10	398.2	398.2	1	52	3
1239.9666	1	21	-99	-99	1	52	0
1240.8164	1	82	n/a	n/a	1	0	0
1240.9554	1	82	n/a	n/a	1	0	0
1241.3364	1	82	n/a	n/a	1	0	0
1241.5284	1	82	n/a	n/a	1	0	0
1241.5674	1	82	n/a	n/a	1	0	0
1241.8164	1	82	n/a	n/a	1	0	0
1242.2024	1	82	n/a	n/a	1	0	0
1242.3814	1	82	n/a	n/a	1	0	0
1242.5334	1	82	n/a	n/a	1	0	0
1242.5944	1	82	n/a	n/a	1	0	0
1243.7998	1	10	278.4	278.4	1	52	1
1244.883	1	21	-99	-99	1	52	0
1246.183	1	10	295.1	295.1	1	52	1
1247.4828	1	21	-99	-99	1	52	0
1248.6494	1	10	260.6	260.6	1	52	1
1249.866	1	10	436	436	1	52	2
1251.166	1	10	255.9	255.9	1	52	3
1252.466	1	21	-99	-99	1	52	0
1253.7658	1	10	264.1	264.1	1	52	1
1254.9658	1	10	360.1	360.1	1	52	2
1256.0158	1	10	270.2	270.2	1	52	3
1257.1156	1	10	274.3	274.3	1	52	4
1258.2322	1	10	261.5	261.5	1	52	5
1259.5156	1	10	290.3	290.3	1	52	6
1260.8154	1	10	238.3	238.3	1	52	7
1262.1154	1	21	-99	-99	1	52	0
1263.3486	1	10	281	281	1	52	1
1264.5486	1	10	281.1	281.1	1	52	2
1265.6984	1	10	299.2	299.2	1	52	3
1266.915	1	10	250.6	250.6	1	52	4
1267.7046	1	82	n/a	n/a	1	0	0
1267.8336	1	82	n/a	n/a	1	0	0
1267.8576	1	82	n/a	n/a	1	0	0
1268.1466	1	82	n/a	n/a	1	0	0
1268.5516	1	82	n/a	n/a	1	0	0
1268.7046	1	82	n/a	n/a	1	0	0
1268.8826	1	82	n/a	n/a	1	0	0
1269.2766	1	82	n/a	n/a	1	0	0
1269.4166	1	82	n/a	n/a	1	0	0
1269.4456	1	82	n/a	n/a	1	0	0
1270.7482	1	10	289.3	289.3	1	52	1
1271.9148	1	21	-99	-99	1	52	0
1273.098	1	10	227.5	227.5	1	52	1
1274.4312	1	10	334.2	334.2	1	52	2
1275.6478	1	10	413.5	413.5	1	52	3
1276.8644	1	21	268.9	268.9	1	52	0
1277.9478	1	10	257.6	257.6	1	52	1
1278.981	1	10	312.3	312.3	1	52	2
1280.131	1	10	282.4	282.4	1	52	3
1281.2808	1	21	-99	-99	1	52	0
1282.5808	1	10	280.4	280.4	1	52	1
1283.7974	1	10	295.8	295.8	1	52	2
1284.9306	1	10	410.5	410.5	1	52	3
1286.064	1	10	429.3	429.3	1	52	4
1287.3138	1	10	283.3	283.3	1	52	5
1288.4304	1	10	270.6	270.6	1	52	6
1289.4638	1	10	325.3	325.3	1	52	7
1290.497	1	21	-99	-99	1	52	0
1291.7636	1	10	313.5	313.5	1	52	1
1292.9136	1	10	507.5	507.5	1	52	2
1293.742	1	82	n/a	n/a	1	0	0
1294.097	1	82	n/a	n/a	1	0	0
1294.353	1	82	n/a	n/a	1	0	0
1294.457	1	82	n/a	n/a	1	0	0
1294.486	1	82	n/a	n/a	1	0	0
1294.742	1	82	n/a	n/a	1	0	0
1294.803	1	82	n/a	n/a	1	0	0
1294.952	1	82	n/a	n/a	1	0	0
1295.201	1	82	n/a	n/a	1	0	0
1295.325	1	82	n/a	n/a	1	0	0
1296.6966	1	10	292.3	292.3	1	52	1
1297.7632	1	21	-99	-99	1	52	0
1298.9132	1	10	267.7	267.7	1	52	1
1300.063	1	21	-99	-99	1	52	0
1301.3796	1	10	377.1	377.1	1	52	1
1302.5462	1	10	346.5	346.5	1	52	2
1303.7962	1	10	280.6	280.6	1	52	3
1305.0462	1	21	262.6	262.6	1	52	0
1306.096	1	10	236.7	236.7	1	52	1
1307.1626	1	10	322	322	1	52	2
1308.3126	1	10	276	276	1	52	3
1309.4626	1	21	-99	-99	1	52	0
1310.4958	1	10	252.8	252.8	1	52	1
1311.629	1	10	335.5	335.5	1	52	2
1312.879	1	10	285.6	285.6	1	52	3
1314.0456	1	10	302.9	302.9	1	52	4
1315.2288	1	10	303.6	303.6	1	52	5
1316.3454	1	10	307	307	1	52	6
1317.5788	1	10	321.8	321.8	1	52	7
1318.812	1	21	-99	-99	1	52	0
1378.1902	1	81	n/a	n/a	1	0	0
1378.3902	1	81	n/a	n/a	1	0	0
1378.5902	1	81	n/a	n/a	1	0	0
1378.7902	1	81	n/a	n/a	1	0	0
1378.9902	1	81	n/a	n/a	1	0	0
1379.1902	1	81	n/a	n/a	1	0	0
1379.3902	1	81	n/a	n/a	1	0	0
1379.5902	1	81	n/a	n/a	1	0	0
1379.7902	1	81	n/a	n/a	1	0	0
1379.9902	1	81	n/a	n/a	1	0	0
1381.1404	1	10	387.6	387.6	1	51	1
1382.1902	1	21	-99	-99	1	51	0
1383.2736	1	10	302.3	302.3	1	51	1
1384.4402	1	10	367.7	367.7	1	51	2
1385.6068	1	10	305.1	305.1	1	51	3
1386.7734	1	21	-99	-99	1	51	0
1388.0232	1	10	320.5	320.5	1	51	1
1389.3398	1	10	331.9	331.9	1	51	2
1390.5232	1	10	316.6	316.6	1	51	3
1391.8064	1	10	313.3	313.3	1	51	4
1392.9064	1	10	445.4	445.4	1	51	5
1394.1562	1	10	299.4	299.4	1	51	6
1395.3562	1	10	283.4	283.4	1	51	7
1396.5562	1	21	-99	-99	1	51	0
1397.6728	1	10	318.9	318.9	1	51	1
1398.7892	1	21	-99	-99	1	51	0
1399.9726	1	10	275	275	1	51	1
1401.1724	1	10	291	291	1	51	2
1402.2058	1	10	313.7	313.7	1	51	3
1403.5056	1	10	293.7	293.7	1	51	4
1404.4782	1	81	n/a	n/a	1	0	0
1404.6782	1	81	n/a	n/a	1	0	0
1404.8782	1	81	n/a	n/a	1	0	0
1405.0782	1	81	n/a	n/a	1	0	0
1405.2782	1	81	n/a	n/a	1	0	0
1405.4782	1	81	n/a	n/a	1	0	0
1405.6782	1	81	n/a	n/a	1	0	0
1405.8782	1	81	n/a	n/a	1	0	0
1406.0782	1	81	n/a	n/a	1	0	0
1406.2782	1	81	n/a	n/a	1	0	0
1407.6388	1	10	464.6	464.6	1	51	1
1408.772	1	10	291.2	291.2	1	51	2
1409.8386	1	10	248.6	248.6	1	51	3
1410.8886	1	10	270.7	270.7	1	51	4
1412.0386	1	10	304.7	304.7	1	51	5
1413.1884	1	21	-99	-99	1	51	0
1414.3884	1	10	322.8	322.8	1	51	1
1415.6716	1	10	287.6	287.6	1	51	2
1416.9548	1	10	348.2	348.2	1	51	3
1418.2382	1	21	-99	-99	1	51	0
1419.5214	1	10	325.7	325.7	1	51	1
1420.688	1	10	279	279	1	51	2
1421.738	1	10	349	349	1	51	3
1422.8378	1	10	369.1	369.1	1	51	4
1424.0544	1	10	288.5	288.5	1	51	5
1425.271	1	21	-99	-99	1	51	0
1426.4876	1	10	303.3	303.3	1	51	1
1427.521	1	10	453.9	453.9	1	51	2
1428.6208	1	10	346	346	1	51	3
1429.9208	1	10	406	406	1	51	4
1430.9062	1	81	n/a	n/a	1	0	0
1431.1062	1	81	n/a	n/a	1	0	0
1431.3062	1	81	n/a	n/a	1	0	0
1431.5062	1	81	n/a	n/a	1	0	0
1431.7062	1	81	n/a	n/a	1	0	0
1431.9062	1	81	n/a	n/a	1	0	0
1432.1062	1	81	n/a	n/a	1	0	0
1432.3062	1	81	n/a	n/a	1	0	0
1432.5062	1	81	n/a	n/a	1	0	0
1432.7062	1	81	n/a	n/a	1	0	0
1433.8372	1	10	313.5	313.5	1	51	1
1434.8704	1	10	272.2	272.2	1	51	2
1435.9538	1	10	292.9	292.9	1	51	3
1437.037	1	21	-99	-99	1	51	0
1438.2536	1	10	265	265	1	51	1
1439.5036	1	10	327	327	1	51	2
1440.6534	1	10	409.1	409.1	1	51	3
1441.9368	1	10	357.8	357.8	1	51	4
1443.1366	1	10	357.9	357.9	1	51	5
1444.3366	1	21	-99	-99	1	51	0
1445.5866	1	10	259.9	259.9	1	51	1
1446.8364	1	21	-99	-99	1	51	0
1448.1196	1	10	254.7	254.7	1	51	1
1449.403	1	21	-99	-99	1	51	0
1450.6862	1	10	264.2	264.2	1	51	1
1451.9694	1	21	-99	-99	1	51	0
1453.086	1	10	312.2	312.2	1	51	1
1454.186	1	10	316.2	316.2	1	51	2
1455.386	1	10	332.3	332.3	1	51	3
1456.4526	1	10	321.7	321.7	1	51	4
1457.425	1	81	n/a	n/a	1	0	0
1457.625	1	81	n/a	n/a	1	0	0
1457.825	1	81	n/a	n/a	1	0	0
1458.025	1	81	n/a	n/a	1	0	0
1458.225	1	81	n/a	n/a	1	0	0
1458.425	1	81	n/a	n/a	1	0	0
1458.625	1	81	n/a	n/a	1	0	0
1458.825	1	81	n/a	n/a	1	0	0
1459.025	1	81	n/a	n/a	1	0	0
1459.225	1	81	n/a	n/a	1	0	0
1460.519	1	10	319.2	319.2	1	51	1
1461.7188	1	21	-99	-99	1	51	0
1463.0022	1	10	283.9	283.9	1	51	1
1464.2854	1	21	-99	-99	1	51	0
1465.3354	1	10	318.6	318.6	1	51	1
1466.4852	1	10	320.7	320.7	1	51	2
1467.6686	1	10	513.4	513.4	1	51	3
1468.8518	1	21	-99	-99	1	51	0
1470.035	1	10	226.9	226.9	1	51	1
1471.2184	1	10	387.5	387.5	1	51	2
1472.4182	1	10	291.6	291.6	1	51	3
1473.6182	1	21	-99	-99	1	51	0
1474.8514	1	10	290.4	290.4	1	51	1
1476.168	1	10	317.8	317.8	1	51	2
1477.4346	1	10	267.2	267.2	1	51	3
1478.6012	1	10	300.5	300.5	1	51	4
1479.9178	1	10	295.9	295.9	1	51	5
1481.0178	1	10	347.9	347.9	1	51	6
1482.301	1	10	312.7	312.7	1	51	7
1483.5842	1	21	-99	-99	1	51	0
1484.624	1	81	n/a	n/a	1	0	0
1484.824	1	81	n/a	n/a	1	0	0
1485.024	1	81	n/a	n/a	1	0	0
1485.224	1	81	n/a	n/a	1	0	0
1485.424	1	81	n/a	n/a	1	0	0
1485.624	1	81	n/a	n/a	1	0	0
1485.824	1	81	n/a	n/a	1	0	0
1486.024	1	81	n/a	n/a	1	0	0
1486.224	1	81	n/a	n/a	1	0	0
1486.424	1	81	n/a	n/a	1	0	0
1487.734	1	10	335.5	335.5	1	51	1
1488.834	1	10	531.6	531.6	1	51	2
1489.8672	1	10	426.2	426.2	1	51	3
1491.1838	1	10	293.6	293.6	1	51	4
1492.3504	1	10	295	295	1	51	5
1493.4336	1	10	299.7	299.7	1	51	6
1494.6336	1	10	283.8	283.8	1	51	7
1495.8336	1	21	-99	-99	1	51	0
1497.0834	1	10	281.8	281.8	1	51	1
1498.1668	1	10	398.5	398.5	1	51	2
1499.2166	1	10	308.6	308.6	1	51	3
1500.2666	1	10	282.6	282.6	1	51	4
1501.3998	1	10	269.4	269.4	1	51	5
1502.5332	1	21	-99	-99	1	51	0
1503.733	1	10	272	272	1	51	1
1504.9996	1	10	333.4	333.4	1	51	2
1506.133	1	10	304.2	304.2	1	51	3
1507.2828	1	10	290.2	290.2	1	51	4
1508.3994	1	10	325.6	325.6	1	51	5
1509.516	1	21	-99	-99	1	51	0
1554.5524	1	82	n/a	n/a	1	0	0
1554.7134	1	82	n/a	n/a	1	0	0
1555.0074	1	82	n/a	n/a	1	0	0
1555.4254	1	82	n/a	n/a	1	0	0
1555.5174	1	82	n/a	n/a	1	0	0
1555.5524	1	82	n/a	n/a	1	0	0
1555.8864	1	82	n/a	n/a	1	0	0
1556.0054	1	82	n/a	n/a	1	0	0
1556.0444	1	82	n/a	n/a	1	0	0
1556.4474	1	82	n/a	n/a	1	0	0
1557.5832	1	10	327.5	327.5	1	50	1
1558.8164	1	10	310.2	310.2	1	50	2
1560.083	1	10	275.5	275.5	1	50	3
1561.3496	1	21	-99	-99	1	50	0
1562.5496	1	10	257	257	1	50	1
1563.5994	1	10	327	327	1	50	2
1564.8828	1	10	291.7	291.7	1	50	3
1566.166	1	21	-99	-99	1	50	0
1567.216	1	10	294.4	294.4	1	50	1
1568.5326	1	10	305.8	305.8	1	50	2
1569.7492	1	10	481.4	481.4	1	50	3
1570.949	1	10	353.3	353.3	1	50	4
1572.1156	1	10	322.7	322.7	1	50	5
1573.3988	1	10	303.3	303.3	1	50	6
1574.5154	1	10	354.7	354.7	1	50	7
1575.632	1	21	-99	-99	1	50	0
1576.6654	1	10	332.8	332.8	1	50	1
1577.6986	1	10	339.5	339.5	1	50	2
1578.9318	1	10	322.2	322.2	1	50	3
1580.1318	1	10	338.2	338.2	1	50	4
1580.9884	1	82	n/a	n/a	1	0	0
1581.1364	1	82	n/a	n/a	1	0	0
1581.2544	1	82	n/a	n/a	1	0	0
1581.6004	1	82	n/a	n/a	1	0	0
1581.8794	1	82	n/a	n/a	1	0	0
1581.9884	1	82	n/a	n/a	1	0	0
1582.0604	1	82	n/a	n/a	1	0	0
1582.4494	1	82	n/a	n/a	1	0	0
1582.5804	1	82	n/a	n/a	1	0	0
1582.9004	1	82	n/a	n/a	1	0	0
1583.965	1	10	345.1	345.1	1	50	1
1585.1316	1	10	330.5	330.5	1	50	2
1586.3314	1	10	298.5	298.5	1	50	3
1587.3814	1	10	304.5	304.5	1	50	4
1588.5646	1	10	289.2	289.2	1	50	5
1589.748	1	21	-99	-99	1	50	0
1590.9978	1	10	272	272	1	50	1
1592.1144	1	10	307.3	307.3	1	50	2
1593.381	1	10	288.7	288.7	1	50	3
1594.5142	1	10	323.5	323.5	1	50	4
1595.6476	1	10	374.2	374.2	1	50	5
1596.9474	1	10	338.3	338.3	1	50	6
1598.164	1	10	289.6	289.6	1	50	7
1599.3806	1	21	-99	-99	1	50	0
1600.6472	1	10	334.4	334.4	1	50	1
1601.7472	1	10	322.4	322.4	1	50	2
1602.8472	1	10	342.5	342.5	1	50	3
1603.897	1	10	348.4	348.4	1	50	4
1605.047	1	10	286.5	286.5	1	50	5
1606.197	1	10	336.5	336.5	1	50	6
1607.0324	1	82	n/a	n/a	1	0	0
1607.4274	1	82	n/a	n/a	1	0	0
1607.4724	1	82	n/a	n/a	1	0	0
1607.5774	1	82	n/a	n/a	1	0	0
1607.9214	1	82	n/a	n/a	1	0	0
1608.0324	1	82	n/a	n/a	1	0	0
1608.2104	1	82	n/a	n/a	1	0	0
1608.2964	1	82	n/a	n/a	1	0	0
1608.6784	1	82	n/a	n/a	1	0	0
1608.9614	1	82	n/a	n/a	1	0	0
1610.0134	1	10	328.1	328.1	1	50	1
1611.0966	1	21	-99	-99	1	50	0
1612.33	1	10	267.4	267.4	1	50	1
1613.4132	1	10	448.2	448.2	1	50	2
1614.5132	1	10	324.2	324.2	1	50	3
1615.7296	1	10	307.6	307.6	1	50	4
1616.8796	1	10	309.6	309.6	1	50	5
1618.0296	1	21	-99	-99	1	50	0
1619.3294	1	10	291.7	291.7	1	50	1
1620.546	1	10	307.1	307.1	1	50	2
1621.646	1	10	311	311	1	50	3
1622.8292	1	10	279.8	279.8	1	50	4
1624.0458	1	10	295.2	295.2	1	50	5
1625.2624	1	21	278.6	278.6	1	50	0
1626.2958	1	10	285.3	285.3	1	50	1
1627.3456	1	10	291.3	291.3	1	50	2
1628.5622	1	10	274.7	274.7	1	50	3
1629.7288	1	10	436	436	1	50	4
1630.8622	1	10	390.8	390.8	1	50	5
1631.9954	1	21	-99	-99	1	50	0
1632.9422	1	82	n/a	n/a	1	0	0
1633.1082	1	82	n/a	n/a	1	0	0
1633.1632	1	82	n/a	n/a	1	0	0
1633.1912	1	82	n/a	n/a	1	0	0
1633.5852	1	82	n/a	n/a	1	0	0
1633.9422	1	82	n/a	n/a	1	0	0
1634.1832	1	82	n/a	n/a	1	0	0
1634.3012	1	82	n/a	n/a	1	0	0
1634.7262	1	82	n/a	n/a	1	0	0
1634.8812	1	82	n/a	n/a	1	0	0
1636.0952	1	10	309.6	309.6	1	50	1
1637.3618	1	21	-99	-99	1	50	0
1638.495	1	10	325.7	325.7	1	50	1
1639.6782	1	10	438.5	438.5	1	50	2
1640.9948	1	10	289.9	289.9	1	50	3
1642.2948	1	10	317.9	317.9	1	50	4
1643.6114	1	10	329.2	329.2	1	50	5
1644.928	1	21	-99	-99	1	50	0
1646.2112	1	10	305.4	305.4	1	50	1
1647.4778	1	10	350.8	350.8	1	50	2
1648.761	1	10	315.5	315.5	1	50	3
1650.0444	1	21	-99	-99	1	50	0
1651.1442	1	10	380.2	380.2	1	50	1
1652.2442	1	21	-99	-99	1	50	0
1653.4942	1	10	302.3	302.3	1	50	1
1654.744	1	10	284.3	284.3	1	50	2
1655.9106	1	10	541.7	541.7	1	50	3
1657.2272	1	10	425.1	425.1	1	50	4
1658.5272	1	10	325.2	325.2	1	50	5
1659.7438	1	10	308.5	308.5	1	50	6
1660.5702	1	82	n/a	n/a	1	0	0
1660.7112	1	82	n/a	n/a	1	0	0
1661.1302	1	82	n/a	n/a	1	0	0
1661.2142	1	82	n/a	n/a	1	0	0
1661.5322	1	82	n/a	n/a	1	0	0
1661.5702	1	82	n/a	n/a	1	0	0
1661.7062	1	82	n/a	n/a	1	0	0
1661.8812	1	82	n/a	n/a	1	0	0
1661.9752	1	82	n/a	n/a	1	0	0
1662.2572	1	82	n/a	n/a	1	0	0
1663.5602	1	10	348	348	1	50	1
1664.7934	1	10	330.7	330.7	1	50	2
1666.01	1	10	314.1	314.1	1	50	3
1667.2266	1	21	-99	-99	1	50	0
1668.3766	1	10	251.5	251.5	1	50	1
1669.5764	1	10	331.5	331.5	1	50	2
1670.6264	1	10	529.6	529.6	1	50	3
1671.6764	1	21	-99	-99	1	50	0
1672.9096	1	10	358.4	358.4	1	50	1
1674.0762	1	10	343.7	343.7	1	50	2
1675.2428	1	10	537.1	537.1	1	50	3
1676.4094	1	10	314.5	314.5	1	50	4
1677.4594	1	10	336.5	336.5	1	50	5
1678.726	1	10	269.9	269.9	1	50	6
1679.8092	1	10	322.5	322.5	1	50	7
1680.8924	1	21	-99	-99	1	50	0
1682.159	1	10	292.7	292.7	1	50	1
1683.4256	1	21	-99	-99	1	50	0
1684.659	1	10	272.8	272.8	1	50	1
1685.9588	1	10	300.9	300.9	1	50	2
1704.3656	1	82	n/a	n/a	1	0	0
1704.5146	1	82	n/a	n/a	1	0	0
1704.8686	1	82	n/a	n/a	1	0	0
1705.1206	1	82	n/a	n/a	1	0	0
1705.1786	1	82	n/a	n/a	1	0	0
1705.3656	1	82	n/a	n/a	1	0	0
1705.6416	1	82	n/a	n/a	1	0	0
1705.7586	1	82	n/a	n/a	1	0	0
1705.9406	1	82	n/a	n/a	1	0	0
1706.0256	1	82	n/a	n/a	1	0	0
1707.391	1	10	340.2	340.2	1	52	1
1708.6408	1	10	290.3	290.3	1	52	2
1709.7574	1	10	309.7	309.7	1	52	3
1710.824	1	10	283.1	283.1	1	52	4
1712.074	1	10	281.1	281.1	1	52	5
1713.3238	1	21	-99	-99	1	52	0
1714.6404	1	10	258.5	258.5	1	52	1
1715.7738	1	10	293.3	293.3	1	52	2
1716.9404	1	10	342.6	342.6	1	52	3
1718.0236	1	10	299.3	299.3	1	52	4
1719.1736	1	10	285.3	285.3	1	52	5
1720.2734	1	10	401.4	401.4	1	52	6
1721.34	1	10	310.8	310.8	1	52	7
1722.4066	1	21	236.2	236.2	1	52	0
1723.5232	1	10	239.6	239.6	1	52	1
1724.5732	1	10	245.5	245.5	1	52	2
1725.6732	1	10	313.6	313.6	1	52	3
1726.7398	1	10	303	303	1	52	4
1727.923	1	10	271.7	271.7	1	52	5
1729.1062	1	21	-99	-99	1	52	0
1730.019	1	82	n/a	n/a	1	0	0
1730.128	1	82	n/a	n/a	1	0	0
1730.15	1	82	n/a	n/a	1	0	0
1730.385	1	82	n/a	n/a	1	0	0
1730.824	1	82	n/a	n/a	1	0	0
1731.019	1	82	n/a	n/a	1	0	0
1731.078	1	82	n/a	n/a	1	0	0
1731.517	1	82	n/a	n/a	1	0	0
1731.662	1	82	n/a	n/a	1	0	0
1731.682	1	82	n/a	n/a	1	0	0
1733.1728	1	10	349.9	349.9	1	52	1
1734.2226	1	10	371.9	371.9	1	52	2
1735.356	1	10	374.6	374.6	1	52	3
1736.5226	1	10	360	360	1	52	4
1737.6392	1	10	331.3	331.3	1	52	5
1738.739	1	10	415.4	415.4	1	52	6
1740.0056	1	10	332.8	332.8	1	52	7
1741.2722	1	21	-99	-99	1	52	0
1742.3388	1	10	271.6	271.6	1	52	1
1743.5554	1	10	414.9	414.9	1	52	2
1744.772	1	10	302.3	302.3	1	52	3
1745.822	1	10	308.3	308.3	1	52	4
1746.8718	1	10	314.4	314.4	1	52	5
1747.9218	1	21	-99	-99	1	52	0
1749.005	1	10	245.2	245.2	1	52	1
1750.2384	1	10	291.8	291.8	1	52	2
1751.4716	1	10	258.5	258.5	1	52	3
1752.5548	1	10	439.2	439.2	1	52	4
1753.8548	1	10	259.3	259.3	1	52	5
1755.1548	1	21	-99	-99	1	52	0
1756.1234	1	82	n/a	n/a	1	0	0
1756.2644	1	82	n/a	n/a	1	0	0
1756.3164	1	82	n/a	n/a	1	0	0
1756.5614	1	82	n/a	n/a	1	0	0
1756.6804	1	82	n/a	n/a	1	0	0
1757.1234	1	82	n/a	n/a	1	0	0
1757.4724	1	82	n/a	n/a	1	0	0
1757.5754	1	82	n/a	n/a	1	0	0
1757.7664	1	82	n/a	n/a	1	0	0
1757.9114	1	82	n/a	n/a	1	0	0
1759.1044	1	10	305.5	305.5	1	52	1
1760.2544	1	10	419.6	419.6	1	52	2
1761.521	1	10	273	273	1	52	3
1762.7876	1	21	-99	-99	1	52	0
1763.8876	1	10	210.3	210.3	1	52	1
1765.0708	1	10	291	291	1	52	2
1766.204	1	10	373.8	373.8	1	52	3
1767.454	1	10	307.8	307.8	1	52	4
1768.754	1	10	303.8	303.8	1	52	5
1770.0038	1	10	317.9	317.9	1	52	6
1771.0704	1	10	291.3	291.3	1	52	7
1772.137	1	21	-99	-99	1	52	0
1773.187	1	10	270.7	270.7	1	52	1
1774.2536	1	10	340.1	340.1	1	52	2
1775.4702	1	10	323.4	323.4	1	52	3
1776.7202	1	10	273.4	273.4	1	52	4
1777.97	1	10	271.5	271.5	1	52	5
1779.22	1	21	-99	-99	1	52	0
1780.5532	1	10	264.3	264.3	1	52	1
1781.8032	1	10	262.3	262.3	1	52	2
1782.9136	1	82	n/a	n/a	1	0	0
1783.1916	1	82	n/a	n/a	1	0	0
1783.2626	1	82	n/a	n/a	1	0	0
1783.6076	1	82	n/a	n/a	1	0	0
1783.7616	1	82	n/a	n/a	1	0	0
1783.9136	1	82	n/a	n/a	1	0	0
1784.2776	1	82	n/a	n/a	1	0	0
1784.3136	1	82	n/a	n/a	1	0	0
1784.4386	1	82	n/a	n/a	1	0	0
1784.7196	1	82	n/a	n/a	1	0	0
1785.9696	1	10	319.7	319.7	1	52	1
1787.2362	1	10	317.2	317.2	1	52	2
1788.286	1	10	323.2	323.2	1	52	3
1789.336	1	21	-99	-99	1	52	0
1790.386	1	10	271.3	271.3	1	52	1
1791.486	1	10	307.4	307.4	1	52	2
1792.7192	1	10	306	306	1	52	3
1793.8858	1	10	291.4	291.4	1	52	4
1795.0524	1	10	276.8	276.8	1	52	5
1796.2856	1	10	275.5	275.5	1	52	6
1797.5856	1	10	271.6	271.6	1	52	7
1798.8854	1	21	-99	-99	1	52	0
1800.1188	1	10	58.4	58.4	1	52	1
1801.202	1	10	303	303	1	52	2
1802.3852	1	10	287.7	287.7	1	52	3
1803.5018	1	10	355.1	355.1	1	52	4
1804.6352	1	10	293.8	293.8	1	52	5
1805.7684	1	21	-99	-99	1	52	0
1807.035	1	10	245.9	245.9	1	52	1
1808.3182	1	10	290.6	290.6	1	52	2
1809.2338	1	82	n/a	n/a	1	0	0
1809.4058	1	82	n/a	n/a	1	0	0
1809.5178	1	82	n/a	n/a	1	0	0
1809.7798	1	82	n/a	n/a	1	0	0
1809.8218	1	82	n/a	n/a	1	0	0
1810.2338	1	82	n/a	n/a	1	0	0
1810.3198	1	82	n/a	n/a	1	0	0
1810.4398	1	82	n/a	n/a	1	0	0
1810.6138	1	82	n/a	n/a	1	0	0
1810.9328	1	82	n/a	n/a	1	0	0
1812.2846	1	10	324.1	324.1	1	52	1
1813.3846	1	10	520.1	520.1	1	52	2
1814.6678	1	10	340.8	340.8	1	52	3
1815.8512	1	10	341.6	341.6	1	52	4
1817.1678	1	10	353	353	1	52	5
1818.4842	1	21	-99	-99	1	52	0
1819.7008	1	10	283.7	283.7	1	52	1
1820.9174	1	21	-99	-99	1	52	0
1822.1508	1	10	297.8	297.8	1	52	1
1823.384	1	21	-99	-99	1	52	0
1824.434	1	10	286.5	286.5	1	52	1
1825.6506	1	10	253.9	253.9	1	52	2
1826.9672	1	10	297.3	297.3	1	52	3
1828.2838	1	21	-99	-99	1	52	0
1829.4836	1	10	228.7	228.7	1	52	1
1830.6836	1	21	-99	-99	1	52	0
1831.8668	1	10	245.4	245.4	1	52	1
1832.9834	1	10	344.8	344.8	1	52	2
1834.3	1	10	276.2	276.2	1	52	3
1835.4832	1	10	357	357	1	52	4
1914.9508	1	81	n/a	n/a	1	0	0
1915.1508	1	81	n/a	n/a	1	0	0
1915.3508	1	81	n/a	n/a	1	0	0
1915.5508	1	81	n/a	n/a	1	0	0
1915.7508	1	81	n/a	n/a	1	0	0
1915.9508	1	81	n/a	n/a	1	0	0
1916.1508	1	81	n/a	n/a	1	0	0
1916.3508	1	81	n/a	n/a	1	0	0
1916.5508	1	81	n/a	n/a	1	0	0
1916.7508	1	81	n/a	n/a	1	0	0
1918.1588	1	10	397.1	397.1	1	52	1
1919.2422	1	10	289.8	289.8	1	52	2
1920.3254	1	10	278.5	278.5	1	52	3
1921.4086	1	21	-99	-99	1	52	0
1922.6418	1	10	314	314	1	52	1
1923.7584	1	10	349.4	349.4	1	52	2
1924.9418	1	10	414	414	1	52	3
1925.9916	1	10	308.1	308.1	1	52	4
1927.0582	1	10	265.5	265.5	1	52	5
1928.3082	1	10	327.5	327.5	1	52	6
1929.4914	1	10	312.2	312.2	1	52	7
1930.6748	1	21	-99	-99	1	52	0
1931.958	1	10	245.6	245.6	1	52	1
1933.2412	1	21	-99	-99	1	52	0
1934.4246	1	10	307.1	307.1	1	52	1
1935.5078	1	10	391.8	391.8	1	52	2
1936.7744	1	10	277.1	277.1	1	52	3
1938.041	1	21	-99	-99	1	52	0
1939.191	1	10	292.6	292.6	1	52	1
1940.4576	1	10	322	322	1	52	2
1941.404	1	81	n/a	n/a	1	0	0
1941.604	1	81	n/a	n/a	1	0	0
1941.804	1	81	n/a	n/a	1	0	0
1942.004	1	81	n/a	n/a	1	0	0
1942.204	1	81	n/a	n/a	1	0	0
1942.404	1	81	n/a	n/a	1	0	0
1942.604	1	81	n/a	n/a	1	0	0
1942.804	1	81	n/a	n/a	1	0	0
1943.004	1	81	n/a	n/a	1	0	0
1943.204	1	81	n/a	n/a	1	0	0
1944.574	1	10	317.4	317.4	1	52	1
1945.8572	1	21	-99	-99	1	52	0
1947.0072	1	10	300.2	300.2	1	52	1
1948.157	1	21	286.3	286.3	1	52	0
1949.3902	1	10	284.9	284.9	1	52	1
1950.6236	1	21	-99	-99	1	52	0
1951.6902	1	10	321	321	1	52	1
1952.89	1	10	353.1	353.1	1	52	2
1954.19	1	10	301	301	1	52	3
1955.4732	1	10	313.8	313.8	1	52	4
1956.7232	1	10	359.8	359.8	1	52	5
1957.9732	1	21	-99	-99	1	52	0
1959.1398	1	10	295.3	295.3	1	52	1
1960.223	1	10	380	380	1	52	2
1961.473	1	10	314.1	314.1	1	52	3
1962.6396	1	10	347.4	347.4	1	52	4
1963.6894	1	10	305.4	305.4	1	52	5
1964.7394	1	21	-99	-99	1	52	0
1965.8894	1	10	345.6	345.6	1	52	1
1967.056	1	21	-99	-99	1	52	0
1968.0666	1	81	n/a	n/a	1	0	0
1968.2666	1	81	n/a	n/a	1	0	0
1968.4666	1	81	n/a	n/a	1	0	0
1968.6666	1	81	n/a	n/a	1	0	0
1968.8666	1	81	n/a	n/a	1	0	0
1969.0674	1	81	n/a	n/a	1	0	0
1969.2674	1	81	n/a	n/a	1	0	0
1969.4674	1	81	n/a	n/a	1	0	0
1969.6674	1	81	n/a	n/a	1	0	0
1969.8674	1	81	n/a	n/a	1	0	0
1971.089	1	10	377.7	377.7	1	52	1
1972.139	1	10	351.8	351.8	1	52	2
1973.1888	1	10	357.8	357.8	1	52	3
1974.4222	1	10	308.5	308.5	1	52	4
1975.7388	1	10	319.9	319.9	1	52	5
1976.9054	1	10	417.3	417.3	1	52	6
1977.9386	1	10	328	328	1	52	7
1978.9718	1	21	-99	-99	1	52	0
1980.2718	1	10	346.7	346.7	1	52	1
1981.5384	1	10	344.1	344.1	1	52	2
1982.755	1	10	311.5	311.5	1	52	3
1984.005	1	10	325.5	325.5	1	52	4
1985.1048	1	10	313.6	313.6	1	52	5
1986.2048	1	21	-99	-99	1	52	0
1987.4546	1	10	267.6	267.6	1	52	1
1988.538	1	10	304.3	304.3	1	52	2
1989.738	1	10	320.4	320.4	1	52	3
1990.9212	1	10	305.1	305.1	1	52	4
1992.0044	1	10	293.9	293.9	1	52	5
1993.2376	1	10	292.5	292.5	1	52	6
1994.082	1	81	n/a	n/a	1	0	0
1994.282	1	81	n/a	n/a	1	0	0
1994.482	1	81	n/a	n/a	1	0	0
1994.682	1	81	n/a	n/a	1	0	0
1994.882	1	81	n/a	n/a	1	0	0
1995.082	1	81	n/a	n/a	1	0	0
1995.282	1	81	n/a	n/a	1	0	0
1995.482	1	81	n/a	n/a	1	0	0
1995.682	1	81	n/a	n/a	1	0	0
1995.882	1	81	n/a	n/a	1	0	0
1997.1874	1	10	342.7	342.7	1	52	1
1998.3874	1	10	246.8	246.8	1	52	2
1999.5206	1	10	233.4	233.4	1	52	3
2000.6206	1	10	285.4	285.4	1	52	4
2001.8538	1	10	284.2	284.2	1	52	5
2003.1038	1	10	330.2	330.2	1	52	6
2004.2204	1	10	333.6	333.6	1	52	7
2005.337	1	21	-99	-99	1	52	0
2006.5868	1	10	303	303	1	52	1
2007.7868	1	10	335.1	335.1	1	52	2
2009.1034	1	10	266.5	266.5	1	52	3
2010.2366	1	10	285.2	285.2	1	52	4
2011.3032	1	10	306.6	306.6	1	52	5
2012.5532	1	10	304.5	304.5	1	52	6
2013.8532	1	10	300.6	300.6	1	52	7
2015.153	1	21	-99	-99	1	52	0
2016.2364	1	10	285.4	285.4	1	52	1
2017.3196	1	21	-99	-99	1	52	0
2018.3528	1	10	264.7	264.7	1	52	1
2019.5694	1	10	456.1	456.1	1	52	2
2020.453	1	81	n/a	n/a	1	0	0
2020.653	1	81	n/a	n/a	1	0	0
2020.853	1	81	n/a	n/a	1	0	0
2021.053	1	81	n/a	n/a	1	0	0
2021.253	1	81	n/a	n/a	1	0	0
2021.453	1	81	n/a	n/a	1	0	0
2021.653	1	81	n/a	n/a	1	0	0
2021.853	1	81	n/a	n/a	1	0	0
2022.053	1	81	n/a	n/a	1	0	0
2022.253	1	81	n/a	n/a	1	0	0
2023.6026	1	10	311	311	1	52	1
2024.7192	1	10	410.3	410.3	1	52	2
2025.969	1	10	344.4	344.4	1	52	3
2027.219	1	10	310.4	310.4	1	52	4
2028.3856	1	10	279.8	279.8	1	52	5
2029.5522	1	21	-99	-99	1	52	0
2030.6354	1	10	253.8	253.8	1	52	1
2031.802	1	10	335.2	335.2	1	52	2
2032.902	1	10	307.3	307.3	1	52	3
2034.0686	1	10	308.7	308.7	1	52	4
2035.2852	1	10	260.1	260.1	1	52	5
2036.4352	1	10	278.2	278.2	1	52	6
2037.685	1	10	324.1	324.1	1	52	7
2038.935	1	21	-99	-99	1	52	0
2040.0682	1	10	276.9	276.9	1	52	1
2041.4016	1	10	287.8	287.8	1	52	2
2042.718	1	10	299	299	1	52	3
2043.8346	1	10	366.3	366.3	1	52	4
2045.0846	1	10	284.4	284.4	1	52	5
2046.2346	1	10	302.5	302.5	1	52	6
2081.3186	1	82	n/a	n/a	1	0	0
2081.4306	1	82	n/a	n/a	1	0	0
2081.4596	1	82	n/a	n/a	1	0	0
2081.8346	1	82	n/a	n/a	1	0	0
2082.0786	1	82	n/a	n/a	1	0	0
2082.3186	1	82	n/a	n/a	1	0	0
2082.6086	1	82	n/a	n/a	1	0	0
2082.6786	1	82	n/a	n/a	1	0	0
2083.0036	1	82	n/a	n/a	1	0	0
2083.1086	1	82	n/a	n/a	1	0	0
2084.5322	1	10	307.9	307.9	1	50	1
2085.5822	1	10	313.9	313.9	1	50	2
2086.8322	1	10	280	280	1	50	3
2087.932	1	10	268	268	1	50	4
2089.2486	1	10	263.4	263.4	1	50	5
2090.382	1	10	282.1	282.1	1	50	6
2091.5652	1	10	282.8	282.8	1	50	7
2092.7484	1	21	-99	-99	1	50	0
2093.8316	1	10	272.3	272.3	1	50	1
2094.965	1	10	466.9	466.9	1	50	2
2096.0648	1	10	278.9	278.9	1	50	3
2097.1648	1	21	-99	-99	1	50	0
2098.1982	1	10	241.7	241.7	1	50	1
2099.3648	1	10	291.1	291.1	1	50	2
2100.4646	1	10	231.1	231.1	1	50	3
2101.5646	1	21	-99	-99	1	50	0
2102.7978	1	10	249.9	249.9	1	50	1
2104.031	1	21	248.6	248.6	1	50	0
2105.1144	1	10	189.3	189.3	1	50	1
2106.1476	1	10	276	276	1	50	2
2107.0032	1	82	n/a	n/a	1	0	0
2107.4132	1	82	n/a	n/a	1	0	0
2107.5862	1	82	n/a	n/a	1	0	0
2107.6302	1	82	n/a	n/a	1	0	0
2107.9472	1	82	n/a	n/a	1	0	0
2108.0032	1	82	n/a	n/a	1	0	0
2108.0662	1	82	n/a	n/a	1	0	0
2108.3362	1	82	n/a	n/a	1	0	0
2108.4252	1	82	n/a	n/a	1	0	0
2108.7962	1	82	n/a	n/a	1	0	0
2110.1974	1	10	306.1	306.1	1	50	1
2111.2806	1	10	294.9	294.9	1	50	2
2112.4806	1	10	342.9	342.9	1	50	3
2113.5806	1	10	378.9	378.9	1	50	4
2114.7138	1	10	365.6	365.6	1	50	5
2115.7638	1	10	371.7	371.7	1	50	6
2117.0636	1	10	495.7	495.7	1	50	7
2118.3636	1	21	-99	-99	1	50	0
2119.3968	1	10	290.4	290.4	1	50	1
2120.4302	1	21	-99	-99	1	50	0
2121.6468	1	10	296.6	296.6	1	50	1
2122.6966	1	10	270.6	270.6	1	50	2
2123.9466	1	10	268.7	268.7	1	50	3
2125.2632	1	10	280.1	280.1	1	50	4
2126.3298	1	10	365.4	365.4	1	50	5
2127.3964	1	21	-99	-99	1	50	0
2128.513	1	10	246.1	246.1	1	50	1
2129.6796	1	10	311.5	311.5	1	50	2
2130.7128	1	10	366.3	366.3	1	50	3
2131.7628	1	10	292.2	292.2	1	50	4
2132.5852	1	82	n/a	n/a	1	0	0
2132.6702	1	82	n/a	n/a	1	0	0
2132.7092	1	82	n/a	n/a	1	0	0
2132.9702	1	82	n/a	n/a	1	0	0
2133.1052	1	82	n/a	n/a	1	0	0
2133.5852	1	82	n/a	n/a	1	0	0
2133.7342	1	82	n/a	n/a	1	0	0
2133.9772	1	82	n/a	n/a	1	0	0
2134.1872	1	82	n/a	n/a	1	0	0
2134.4602	1	82	n/a	n/a	1	0	0
2135.5626	1	10	300.4	300.4	1	50	1
2136.6458	1	21	-99	-99	1	50	0
2137.929	1	10	269.8	269.8	1	50	1
2139.2124	1	21	-99	-99	1	50	0
2140.3122	1	10	222.6	222.6	1	50	1
2141.5456	1	10	269.3	269.3	1	50	2
2142.8622	1	10	-99	-99	1	50	3
2144.1786	1	21	244.1	244.1	1	50	0
2145.3786	1	10	260.1	260.1	1	50	1
2146.5118	1	10	294.8	294.8	1	50	2
2147.6618	1	10	328.9	328.9	1	50	3
2148.7284	1	10	334.2	334.2	1	50	4
2150.0116	1	10	299	299	1	50	5
2151.295	1	21	-99	-99	1	50	0
2152.4616	1	10	281	281	1	50	1
2153.6448	1	10	377.7	377.7	1	50	2
2154.8614	1	10	345.1	345.1	1	50	3
2156.1114	1	10	327.2	327.2	1	50	4
2157.1612	1	10	317.2	317.2	1	50	5
2158.2112	1	21	-99	-99	1	50	0
2158.981	1	82	n/a	n/a	1	0	0
2159.077	1	82	n/a	n/a	1	0	0
2159.232	1	82	n/a	n/a	1	0	0
2159.4228	1	82	n/a	n/a	1	0	0
2159.7538	1	82	n/a	n/a	1	0	0
2159.981	1	82	n/a	n/a	1	0	0
2160.29	1	82	n/a	n/a	1	0	0
2160.432	1	82	n/a	n/a	1	0	0
2160.818	1	82	n/a	n/a	1	0	0
2160.924	1	82	n/a	n/a	1	0	0
2161.9276	1	10	318.7	318.7	1	50	1
2162.9942	1	21	-99	-99	1	50	0
2164.0442	1	10	298.1	298.1	1	50	1
2165.0774	1	10	528.8	528.8	1	50	2
2166.3774	1	10	348.9	348.9	1	50	3
2167.6106	1	10	267.6	267.6	1	50	4
2168.8272	1	10	299	299	1	50	5
2170.0438	1	21	-99	-99	1	50	0
2171.277	1	10	281	281	1	50	1
2172.5104	1	21	-99	-99	1	50	0
2173.5602	1	10	445.8	445.8	1	50	1
2174.6102	1	21	-99	-99	1	50	0
2175.8434	1	10	210.5	210.5	1	50	1
2177.0268	1	10	387.2	387.2	1	50	2
2178.3434	1	10	302.6	302.6	1	50	3
2179.61	1	10	300	300	1	50	4
2180.8098	1	10	268.1	268.1	1	50	5
2182.0098	1	21	12.1	12.1	1	50	0
2183.3264	1	10	-99	-99	1	50	1
2184.5596	1	10	278.2	278.2	1	50	2
2185.3	1	82	n/a	n/a	1	0	0
2185.527	1	82	n/a	n/a	1	0	0
2185.884	1	82	n/a	n/a	1	0	0
2186.026	1	82	n/a	n/a	1	0	0
2186.08	1	82	n/a	n/a	1	0	0
2186.3	1	82	n/a	n/a	1	0	0
2186.718	1	82	n/a	n/a	1	0	0
2186.857	1	82	n/a	n/a	1	0	0
2186.877	1	82	n/a	n/a	1	0	0
2187.177	1	82	n/a	n/a	1	0	0
2188.5094	1	10	360.4	360.4	1	50	1
2189.826	1	21	-99	-99	1	50	0
2191.076	1	10	257.8	257.8	1	50	1
2192.3258	1	21	-99	-99	1	50	0
2193.559	1	10	286.6	286.6	1	50	1
2194.6924	1	10	401.3	401.3	1	50	2
2195.9756	1	10	397.9	397.9	1	50	3
2197.2256	1	10	332	332	1	50	4
2198.4922	1	10	329.4	329.4	1	50	5
2199.7588	1	21	-99	-99	1	50	0
2200.8254	1	10	316.2	316.2	1	50	1
2201.9752	1	10	382.1	382.1	1	50	2
2203.0086	1	10	516.8	516.8	1	50	3
2204.1752	1	10	486.2	486.2	1	50	4
2205.2418	1	10	331.6	331.6	1	50	5
2206.3084	1	21	-99	-99	1	50	0
2207.4082	1	10	261.1	261.1	1	50	1
2208.5082	1	21	-99	-99	1	50	0
2209.5914	1	10	269.8	269.8	1	50	1
2210.6748	1	21	-99	-99	1	50	0
2227.1656	1	82	n/a	n/a	1	0	0
2227.4856	1	82	n/a	n/a	1	0	0
2227.8666	1	82	n/a	n/a	1	0	0
2228.0456	1	82	n/a	n/a	1	0	0
2228.0696	1	82	n/a	n/a	1	0	0
2228.1656	1	82	n/a	n/a	1	0	0
2228.4736	1	82	n/a	n/a	1	0	0
2228.5266	1	82	n/a	n/a	1	0	0
2228.7256	1	82	n/a	n/a	1	0	0
2228.8476	1	82	n/a	n/a	1	0	0
2230.2236	1	10	357.2	357.2	1	51	1
2231.3568	1	10	311.9	311.9	1	51	2
2232.5068	1	10	266	266	1	51	3
2233.6566	1	21	-99	-99	1	51	0
2234.7732	1	10	319.4	319.4	1	51	1
2235.89	1	21	-99	-99	1	51	0
2237.1232	1	10	273.5	273.5	1	51	1
2238.3898	1	10	366.9	366.9	1	51	2
2239.4896	1	10	418.8	418.8	1	51	3
2240.5896	1	21	-99	-99	1	51	0
2241.7396	1	10	296.9	296.9	1	51	1
2243.0394	1	10	293	293	1	51	2
2244.3228	1	10	273.8	273.8	1	51	3
2245.606	1	21	-99	-99	1	51	0
2246.756	1	10	240.4	240.4	1	51	1
2247.8392	1	10	309.2	309.2	1	51	2
2248.9724	1	10	327.9	327.9	1	51	3
2250.1724	1	10	360	360	1	51	4
2251.3556	1	10	568.7	568.7	1	51	5
2252.539	1	21	-99	-99	1	51	0
2253.6196	1	82	n/a	n/a	1	0	0
2253.8796	1	82	n/a	n/a	1	0	0
2254.1716	1	82	n/a	n/a	1	0	0
2254.2566	1	82	n/a	n/a	1	0	0
2254.4896	1	82	n/a	n/a	1	0	0
2254.6196	1	82	n/a	n/a	1	0	0
2254.6776	1	82	n/a	n/a	1	0	0
2254.7776	1	82	n/a	n/a	1	0	0
2255.0016	1	82	n/a	n/a	1	0	0
2255.4266	1	82	n/a	n/a	1	0	0
2256.572	1	10	424.2	424.2	1	51	1
2257.722	1	10	282.3	282.3	1	51	2
2258.9052	1	10	283	283	1	51	3
2260.0884	1	21	-99	-99	1	51	0
2261.305	1	10	315	315	1	51	1
2262.5216	1	21	-99	-99	1	51	0
2263.655	1	10	269.1	269.1	1	51	1
2264.7048	1	10	307.1	307.1	1	51	2
2265.9882	1	10	271.8	271.8	1	51	3
2267.2714	1	21	-99	-99	1	51	0
2268.5212	1	10	266.6	266.6	1	51	1
2269.7712	1	21	-99	-99	1	51	0
2270.8044	1	10	319.4	319.4	1	51	1
2272.1044	1	10	315.4	315.4	1	51	2
2273.271	1	10	284.8	284.8	1	51	3
2274.4876	1	10	300.2	300.2	1	51	4
2275.6376	1	10	286.2	286.2	1	51	5
2276.7874	1	21	256.3	256.3	1	51	0
2278.004	1	10	287.6	287.6	1	51	1
2279.2206	1	21	-99	-99	1	51	0
2279.9494	1	82	n/a	n/a	1	0	0
2280.1764	1	82	n/a	n/a	1	0	0
2280.2574	1	82	n/a	n/a	1	0	0
2280.4354	1	82	n/a	n/a	1	0	0
2280.4904	1	82	n/a	n/a	1	0	0
2280.9494	1	82	n/a	n/a	1	0	0
2281.1844	1	82	n/a	n/a	1	0	0
2281.3514	1	82	n/a	n/a	1	0	0
2281.3814	1	82	n/a	n/a	1	0	0
2281.7604	1	82	n/a	n/a	1	0	0
2283.0538	1	10	405.8	405.8	1	51	1
2284.3204	1	10	339.1	339.1	1	51	2
2285.5536	1	10	337.9	337.9	1	51	3
2286.7702	1	10	369.3	369.3	1	51	4
2287.9202	1	10	339.3	339.3	1	51	5
2289.22	1	10	319.4	319.4	1	51	6
2290.3366	1	10	402.7	402.7	1	51	7
2291.4532	1	21	-99	-99	1	51	0
2292.5532	1	10	282.1	282.1	1	51	1
2293.8198	1	10	695.5	695.5	1	51	2
2294.8864	1	10	460.9	460.9	1	51	3
2295.953	1	21	-99	-99	1	51	0
2297.103	1	10	276.3	276.3	1	51	1
2298.2528	1	21	-99	-99	1	51	0
2299.5028	1	10	292.4	292.4	1	51	1
2300.7526	1	21	-99	-99	1	51	0
2301.9692	1	10	321.9	321.9	1	51	1
2303.1026	1	10	516.5	516.5	1	51	2
2304.1858	1	10	313.2	313.2	1	51	3
2305.269	1	21	-99	-99	1	51	0
2306.0828	1	82	n/a	n/a	1	0	0
2306.1078	1	82	n/a	n/a	1	0	0
2306.1978	1	82	n/a	n/a	1	0	0
2306.3668	1	82	n/a	n/a	1	0	0
2306.7168	1	82	n/a	n/a	1	0	0
2307.0828	1	82	n/a	n/a	1	0	0
2307.2268	1	82	n/a	n/a	1	0	0
2307.3138	1	82	n/a	n/a	1	0	0
2307.5988	1	82	n/a	n/a	1	0	0
2307.9718	1	82	n/a	n/a	1	0	0
2309.0688	1	10	310	310	1	51	1
2310.3354	1	10	275.4	275.4	1	51	2
2311.452	1	10	262.8	262.8	1	51	3
2312.7686	1	10	322.2	322.2	1	51	4
2314.0686	1	10	270.3	270.3	1	51	5
2315.3684	1	21	-99	-99	1	51	0
2316.4184	1	10	272.3	272.3	1	51	1
2317.6184	1	10	288.4	288.4	1	51	2
2318.785	1	10	289.8	289.8	1	51	3
2319.9182	1	10	276.5	276.5	1	51	4
2320.9682	1	10	282.6	282.6	1	51	5
2322.0182	1	21	-99	-99	1	51	0
2323.1514	1	10	275.3	275.3	1	51	1
2324.218	1	10	280.6	280.6	1	51	2
2325.2846	1	10	254	254	1	51	3
2326.3512	1	21	211.4	211.4	1	51	0
2327.5844	1	10	274.2	274.2	1	51	1
2328.8176	1	21	-99	-99	1	51	0
2330.001	1	10	273.5	273.5	1	51	1
2331.1842	1	21	-99	-99	1	51	0
2332.261	1	82	n/a	n/a	1	0	0
2332.415	1	82	n/a	n/a	1	0	0
2332.749	1	82	n/a	n/a	1	0	0
2332.876	1	82	n/a	n/a	1	0	0
2333.136	1	82	n/a	n/a	1	0	0
2333.261	1	82	n/a	n/a	1	0	0
2333.327	1	82	n/a	n/a	1	0	0
2333.717	1	82	n/a	n/a	1	0	0
2333.824	1	82	n/a	n/a	1	0	0
2334.122	1	82	n/a	n/a	1	0	0
2335.184	1	10	290.4	290.4	1	51	1
2336.3006	1	10	373.7	373.7	1	51	2
2337.6172	1	10	337.1	337.1	1	51	3
2338.7338	1	10	372.5	372.5	1	51	4
2339.7838	1	10	362.6	362.6	1	51	5
2340.9504	1	10	331.9	331.9	1	51	6
2342.1002	1	10	350	350	1	51	7
2343.2502	1	21	-99	-99	1	51	0
2344.55	1	10	252.1	252.1	1	51	1
2345.7166	1	10	317.5	317.5	1	51	2
2346.8	1	10	290.2	290.2	1	51	3
2347.9166	1	10	293.5	293.5	1	51	4
2349.0664	1	10	295.5	295.5	1	51	5
2350.1164	1	10	317.6	317.6	1	51	6
2351.333	1	10	269	269	1	51	7
2352.5496	1	21	252.3	252.3	1	51	0
2353.6662	1	10	287.7	287.7	1	51	1
2354.9828	1	10	299.1	299.1	1	51	2
2356.2328	1	10	393.2	393.2	1	51	3
2357.466	1	10	215.9	215.9	1	51	4
