onset	duration	value	response	rt	good	TMS	seq
54.9558	1	81	n/a	n/a	1	0	0
55.1558	1	81	n/a	n/a	1	0	0
55.3558	1	81	n/a	n/a	1	0	0
55.5558	1	81	n/a	n/a	1	0	0
55.7558	1	81	n/a	n/a	1	0	0
55.9558	1	81	n/a	n/a	1	0	0
56.1558	1	81	n/a	n/a	1	0	0
56.3558	1	81	n/a	n/a	1	0	0
56.5558	1	81	n/a	n/a	1	0	0
56.7558	1	81	n/a	n/a	1	0	0
57.9942	1	10	381.7	381.7	1	51	1
59.3108	1	10	361.1	361.1	1	51	2
60.3608	1	10	287.2	287.2	1	51	3
61.4108	1	21	293.2	293.2	1	51	0
62.4774	1	10	250.6	250.6	1	51	1
63.5774	1	10	286.6	286.6	1	51	2
64.8272	1	10	300.7	300.7	1	51	3
66.0772	1	10	330.7	330.7	1	51	4
67.1604	1	10	319.4	319.4	1	51	5
68.4104	1	10	285.4	285.4	1	51	6
69.4602	1	10	291.5	291.5	1	51	7
70.5102	1	21	-99	-99	1	51	0
71.5936	1	10	270.3	270.3	1	51	1
72.8934	1	10	330.3	330.3	1	51	2
74.11	1	10	281.7	281.7	1	51	3
75.2766	1	10	299.1	299.1	1	51	4
76.3266	1	10	305.1	305.1	1	51	5
77.3766	1	21	-99	-99	1	51	0
78.6264	1	10	261.1	261.1	1	51	1
79.893	1	10	274.5	274.5	1	51	2
80.7064	1	81	n/a	n/a	1	0	0
80.9064	1	81	n/a	n/a	1	0	0
81.1064	1	81	n/a	n/a	1	0	0
81.3064	1	81	n/a	n/a	1	0	0
81.5064	1	81	n/a	n/a	1	0	0
81.7066	1	81	n/a	n/a	1	0	0
81.9066	1	81	n/a	n/a	1	0	0
82.1066	1	81	n/a	n/a	1	0	0
82.3066	1	81	n/a	n/a	1	0	0
82.5064	1	81	n/a	n/a	1	0	0
83.6928	1	10	298.6	298.6	1	51	1
84.826	1	10	301.4	301.4	1	51	2
86.0094	1	10	286.1	286.1	1	51	3
87.176	1	10	303.5	303.5	1	51	4
88.4092	1	10	286.1	286.1	1	51	5
89.6424	1	21	-99	-99	1	51	0
90.709	1	10	258.3	258.3	1	51	1
91.7924	1	10	279	279	1	51	2
93.009	1	10	294.3	294.3	1	51	3
94.2588	1	10	292.4	292.4	1	51	4
95.3754	1	10	311.7	311.7	1	51	5
96.492	1	21	-99	-99	1	51	0
97.6754	1	10	235.9	235.9	1	51	1
98.842	1	10	269.2	269.2	1	51	2
100.0918	1	10	267.2	267.2	1	51	3
101.3418	1	21	-99	-99	1	51	0
102.375	1	10	256	256	1	51	1
103.4084	1	10	262.8	262.8	1	51	2
104.575	1	10	248.1	248.1	1	51	3
105.7416	1	21	-99	-99	1	51	0
106.4812	1	81	n/a	n/a	1	0	0
106.6812	1	81	n/a	n/a	1	0	0
106.8812	1	81	n/a	n/a	1	0	0
107.0812	1	81	n/a	n/a	1	0	0
107.2812	1	81	n/a	n/a	1	0	0
107.4812	1	81	n/a	n/a	1	0	0
107.6812	1	81	n/a	n/a	1	0	0
107.8812	1	81	n/a	n/a	1	0	0
108.0812	1	81	n/a	n/a	1	0	0
108.2812	1	81	n/a	n/a	1	0	0
109.4414	1	10	357.5	357.5	1	51	1
110.7246	1	10	290.3	290.3	1	51	2
111.7912	1	10	247.7	247.7	1	51	3
113.1078	1	10	291.1	291.1	1	51	4
114.2576	1	10	293	293	1	51	5
115.291	1	10	283.8	283.8	1	51	6
116.441	1	10	301.8	301.8	1	51	7
117.5908	1	21	-99	-99	1	51	0
118.7074	1	10	243.3	243.3	1	51	1
119.774	1	10	280.7	280.7	1	51	2
120.974	1	10	328.6	328.6	1	51	3
122.1906	1	10	296	296	1	51	4
123.3904	1	10	296.1	296.1	1	51	5
124.557	1	10	297.4	297.4	1	51	6
125.707	1	10	315.5	315.5	1	51	7
126.857	1	21	-99	-99	1	51	0
128.0068	1	10	287.6	287.6	1	51	1
129.0734	1	10	309	309	1	51	2
130.3568	1	10	225.7	225.7	1	51	3
131.64	1	21	-99	-99	1	51	0
132.5446	1	81	n/a	n/a	1	0	0
132.7446	1	81	n/a	n/a	1	0	0
132.9446	1	81	n/a	n/a	1	0	0
133.1446	1	81	n/a	n/a	1	0	0
133.3446	1	81	n/a	n/a	1	0	0
133.5446	1	81	n/a	n/a	1	0	0
133.7446	1	81	n/a	n/a	1	0	0
133.9446	1	81	n/a	n/a	1	0	0
134.1446	1	81	n/a	n/a	1	0	0
134.3446	1	81	n/a	n/a	1	0	0
135.5732	1	10	289.2	289.2	1	51	1
136.8064	1	10	287.9	287.9	1	51	2
138.0064	1	10	303.9	303.9	1	51	3
139.1896	1	10	256.7	256.7	1	51	4
140.4228	1	10	335.4	335.4	1	51	5
141.656	1	21	-99	-99	1	51	0
142.7894	1	10	240.8	240.8	1	51	1
144.056	1	10	286.2	286.2	1	51	2
145.2558	1	10	286.2	286.2	1	51	3
146.5724	1	10	297.5	297.5	1	51	4
147.6558	1	10	286.3	286.3	1	51	5
148.739	1	21	243	243	1	51	0
149.9056	1	10	228.4	228.4	1	51	1
151.1388	1	10	227.1	227.1	1	51	2
152.2222	1	10	231.8	231.8	1	51	3
153.5554	1	10	274.5	274.5	1	51	4
154.6554	1	10	278.6	278.6	1	51	5
155.7552	1	10	346.6	346.6	1	51	6
157.0218	1	10	344	344	1	51	7
158.2884	1	21	-99	-99	1	51	0
159.2632	1	81	n/a	n/a	1	0	0
159.4632	1	81	n/a	n/a	1	0	0
159.6632	1	81	n/a	n/a	1	0	0
159.8632	1	81	n/a	n/a	1	0	0
160.0632	1	81	n/a	n/a	1	0	0
160.2632	1	81	n/a	n/a	1	0	0
160.4632	1	81	n/a	n/a	1	0	0
160.6632	1	81	n/a	n/a	1	0	0
160.8632	1	81	n/a	n/a	1	0	0
161.0632	1	81	n/a	n/a	1	0	0
162.4216	1	10	336.1	336.1	1	51	1
163.5714	1	10	322.2	322.2	1	51	2
164.8214	1	10	272.2	272.2	1	51	3
165.888	1	10	261.6	261.6	1	51	4
166.9712	1	10	234.3	234.3	1	51	5
168.2378	1	10	263.7	263.7	1	51	6
169.3378	1	10	219.7	219.7	1	51	7
170.4378	1	21	-99	-99	1	51	0
171.7376	1	10	235.9	235.9	1	51	1
172.9542	1	10	427.3	427.3	1	51	2
174.1208	1	10	236.6	236.6	1	51	3
175.3208	1	10	316.6	316.6	1	51	4
176.3874	1	10	274	274	1	51	5
177.6206	1	10	304.7	304.7	1	51	6
178.804	1	10	257.4	257.4	1	51	7
179.9872	1	21	-99	-99	1	51	0
181.0872	1	10	182.2	182.2	1	51	1
182.187	1	21	202.2	202.2	1	51	0
183.5204	1	10	-99	-99	1	51	1
184.6036	1	10	233.6	233.6	1	51	2
194.9314	1	82	n/a	n/a	1	0	0
195.1644	1	82	n/a	n/a	1	0	0
195.4214	1	82	n/a	n/a	1	0	0
195.7794	1	82	n/a	n/a	1	0	0
195.8714	1	82	n/a	n/a	1	0	0
195.9314	1	82	n/a	n/a	1	0	0
196.0894	1	82	n/a	n/a	1	0	0
196.1494	1	82	n/a	n/a	1	0	0
196.4134	1	82	n/a	n/a	1	0	0
196.5434	1	82	n/a	n/a	1	0	0
197.9194	1	10	357.5	357.5	1	50	1
198.9528	1	10	268.2	268.2	1	50	2
200.236	1	10	264.8	264.8	1	50	3
201.5192	1	21	-99	-99	1	50	0
202.6858	1	10	230.9	230.9	1	50	1
203.9692	1	10	243.7	243.7	1	50	2
205.1024	1	10	278.4	278.4	1	50	3
206.2024	1	10	298.4	298.4	1	50	4
207.2522	1	10	272.4	272.4	1	50	5
208.5522	1	10	316.5	316.5	1	50	6
209.6354	1	10	417.2	417.2	1	50	7
210.7188	1	21	-99	-99	1	50	0
211.9686	1	10	243.9	243.9	1	50	1
213.1686	1	10	324	324	1	50	2
214.3686	1	10	276.1	276.1	1	50	3
215.5518	1	10	228.8	228.8	1	50	4
216.6518	1	10	248.7	248.7	1	50	5
217.735	1	10	253.5	253.5	1	50	6
218.785	1	10	387.5	387.5	1	50	7
219.8348	1	21	281.6	281.6	1	50	0
220.9164	1	82	n/a	n/a	1	0	0
221.0134	1	82	n/a	n/a	1	0	0
221.3254	1	82	n/a	n/a	1	0	0
221.4864	1	82	n/a	n/a	1	0	0
221.6234	1	82	n/a	n/a	1	0	0
221.9164	1	82	n/a	n/a	1	0	0
222.2614	1	82	n/a	n/a	1	0	0
222.4854	1	82	n/a	n/a	1	0	0
222.5184	1	82	n/a	n/a	1	0	0
222.6664	1	82	n/a	n/a	1	0	0
223.868	1	10	312.4	312.4	1	50	1
224.9678	1	10	268.4	268.4	1	50	2
226.0012	1	10	275.2	275.2	1	50	3
227.2844	1	10	287.8	287.8	1	50	4
228.401	1	10	291.2	291.2	1	50	5
229.501	1	10	311.2	311.2	1	50	6
230.5342	1	10	286	286	1	50	7
231.5676	1	21	-99	-99	1	50	0
232.6342	1	10	266	266	1	50	1
233.7674	1	10	332.7	332.7	1	50	2
234.834	1	10	258.1	258.1	1	50	3
236.134	1	10	270.2	270.2	1	50	4
237.3672	1	10	396.8	396.8	1	50	5
238.6838	1	10	232.2	232.2	1	50	6
239.8004	1	10	235.6	235.6	1	50	7
240.917	1	21	239	239	1	50	0
242.2336	1	10	218.4	218.4	1	50	1
243.3168	1	10	223	223	1	50	2
244.6	1	10	251.8	251.8	1	50	3
245.8834	1	21	-99	-99	1	50	0
246.611	1	82	n/a	n/a	1	0	0
246.636	1	82	n/a	n/a	1	0	0
246.814	1	82	n/a	n/a	1	0	0
247.14	1	82	n/a	n/a	1	0	0
247.195	1	82	n/a	n/a	1	0	0
247.611	1	82	n/a	n/a	1	0	0
247.642	1	82	n/a	n/a	1	0	0
248.034	1	82	n/a	n/a	1	0	0
248.342	1	82	n/a	n/a	1	0	0
248.467	1	82	n/a	n/a	1	0	0
249.5498	1	10	309.9	309.9	1	50	1
250.6998	1	10	248	248	1	50	2
251.9164	1	10	247.4	247.4	1	50	3
253.0662	1	10	249.4	249.4	1	50	4
254.3162	1	10	263.4	263.4	1	50	5
255.3994	1	10	300.2	300.2	1	50	6
256.466	1	10	321.6	321.6	1	50	7
257.5326	1	21	-99	-99	1	50	0
258.8492	1	10	226.3	226.3	1	50	1
260.1658	1	21	-99	-99	1	50	0
261.3324	1	10	255.1	255.1	1	50	1
262.649	1	10	266.5	266.5	1	50	2
263.899	1	10	248.4	248.4	1	50	3
265.1488	1	10	294.5	294.5	1	50	4
266.3988	1	10	292.6	292.6	1	50	5
267.6488	1	21	-99	-99	1	50	0
268.932	1	10	431.4	431.4	1	50	1
269.9652	1	10	230	230	1	50	2
271.1486	1	10	390.7	390.7	1	50	3
272.3652	1	10	246.1	246.1	1	50	4
273.2196	1	82	n/a	n/a	1	0	0
273.6396	1	82	n/a	n/a	1	0	0
273.7586	1	82	n/a	n/a	1	0	0
273.9956	1	82	n/a	n/a	1	0	0
274.0756	1	82	n/a	n/a	1	0	0
274.2196	1	82	n/a	n/a	1	0	0
274.4926	1	82	n/a	n/a	1	0	0
274.6556	1	82	n/a	n/a	1	0	0
274.7696	1	82	n/a	n/a	1	0	0
275.0636	1	82	n/a	n/a	1	0	0
276.2982	1	10	264.9	264.9	1	50	1
277.4148	1	10	252.3	252.3	1	50	2
278.6814	1	10	249.6	249.6	1	50	3
279.948	1	21	-99	-99	1	50	0
281.2312	1	10	19.7	19.7	1	50	1
282.3978	1	10	261.1	261.1	1	50	2
283.6478	1	10	291.2	291.2	1	50	3
284.781	1	10	261.9	261.9	1	50	4
285.981	1	10	245.9	245.9	1	50	5
287.1142	1	10	264.6	264.6	1	50	6
288.3642	1	10	246.7	246.7	1	50	7
289.6142	1	21	-99	-99	1	50	0
290.9308	1	10	240.1	240.1	1	50	1
291.9806	1	10	262.1	262.1	1	50	2
293.1472	1	10	231.5	231.5	1	50	3
294.3138	1	21	-99	-99	1	50	0
295.4138	1	10	269	269	1	50	1
296.497	1	10	273.6	273.6	1	50	2
297.747	1	10	239.7	239.7	1	50	3
298.8802	1	10	258.4	258.4	1	50	4
299.8688	1	82	n/a	n/a	1	0	0
299.9748	1	82	n/a	n/a	1	0	0
300.3528	1	82	n/a	n/a	1	0	0
300.5668	1	82	n/a	n/a	1	0	0
300.7118	1	82	n/a	n/a	1	0	0
300.8688	1	82	n/a	n/a	1	0	0
300.9448	1	82	n/a	n/a	1	0	0
301.1148	1	82	n/a	n/a	1	0	0
301.3888	1	82	n/a	n/a	1	0	0
301.8048	1	82	n/a	n/a	1	0	0
303.03	1	10	348.5	348.5	1	50	1
304.2132	1	10	269.3	269.3	1	50	2
305.4966	1	10	234	234	1	50	3
306.6798	1	10	266.6	266.6	1	50	4
307.8464	1	10	284	284	1	50	5
309.013	1	21	-99	-99	1	50	0
310.2296	1	10	220.8	220.8	1	50	1
311.3296	1	10	256.9	256.9	1	50	2
312.4962	1	10	210.2	210.2	1	50	3
313.6128	1	10	325.6	325.6	1	50	4
314.6794	1	10	267	267	1	50	5
315.7792	1	10	271	271	1	50	6
316.8126	1	10	261.8	261.8	1	50	7
317.8458	1	21	-99	-99	1	50	0
318.9624	1	10	239.8	239.8	1	50	1
320.1456	1	10	272.5	272.5	1	50	2
321.4456	1	10	316.6	316.6	1	50	3
322.4788	1	10	339.2	339.2	1	50	4
323.7622	1	10	287.9	287.9	1	50	5
325.0454	1	21	236.7	236.7	1	50	0
346.2892	1	82	n/a	n/a	1	0	0
346.6412	1	82	n/a	n/a	1	0	0
346.7072	1	82	n/a	n/a	1	0	0
346.8522	1	82	n/a	n/a	1	0	0
347.0812	1	82	n/a	n/a	1	0	0
347.2892	1	82	n/a	n/a	1	0	0
347.5752	1	82	n/a	n/a	1	0	0
347.7182	1	82	n/a	n/a	1	0	0
347.7502	1	82	n/a	n/a	1	0	0
348.1152	1	82	n/a	n/a	1	0	0
349.344	1	10	305.5	305.5	1	52	1
350.6438	1	10	269.6	269.6	1	52	2
351.8438	1	10	269.6	269.6	1	52	3
353.0438	1	21	269.7	269.7	1	52	0
354.1604	1	10	1.1	1.1	1	52	1
355.3602	1	10	257.1	257.1	1	52	2
356.5936	1	10	303.8	303.8	1	52	3
357.6768	1	10	404.5	404.5	1	52	4
358.8268	1	10	262.6	262.6	1	52	5
359.86	1	10	253.3	253.3	1	52	6
361.1932	1	10	296	296	1	52	7
362.5266	1	21	-99	-99	1	52	0
363.5598	1	10	265.4	265.4	1	52	1
364.8598	1	10	293.4	293.4	1	52	2
366.0764	1	10	276.8	276.8	1	52	3
367.293	1	21	-99	-99	1	52	0
368.3762	1	10	264.9	264.9	1	52	1
369.5928	1	10	328.3	328.3	1	52	2
370.8428	1	10	278.4	278.4	1	52	3
372.1594	1	10	289.7	289.7	1	52	4
373.1868	1	82	n/a	n/a	1	0	0
373.5498	1	82	n/a	n/a	1	0	0
373.6098	1	82	n/a	n/a	1	0	0
373.7918	1	82	n/a	n/a	1	0	0
373.8988	1	82	n/a	n/a	1	0	0
374.1868	1	82	n/a	n/a	1	0	0
374.4088	1	82	n/a	n/a	1	0	0
374.6858	1	82	n/a	n/a	1	0	0
374.7178	1	82	n/a	n/a	1	0	0
374.8098	1	82	n/a	n/a	1	0	0
376.309	1	10	363.8	363.8	1	52	1
377.4756	1	10	285.2	285.2	1	52	2
378.6756	1	10	269.3	269.3	1	52	3
379.9922	1	10	248.7	248.7	1	52	4
381.0754	1	10	301.3	301.3	1	52	5
382.342	1	10	298.7	298.7	1	52	6
383.4254	1	10	367.4	367.4	1	52	7
384.5086	1	21	276.2	276.2	1	52	0
385.7086	1	10	212.2	212.2	1	52	1
386.9084	1	21	-99	-99	1	52	0
388.1084	1	10	244.3	244.3	1	52	1
389.3084	1	21	276.3	276.3	1	52	0
390.5916	1	10	257.1	257.1	1	52	1
391.8248	1	10	319.7	319.7	1	52	2
392.9248	1	10	291.8	291.8	1	52	3
394.0246	1	21	247.8	247.8	1	52	0
395.258	1	10	454.6	454.6	1	52	1
396.2912	1	10	269.3	269.3	1	52	2
397.3578	1	10	226.6	226.6	1	52	3
398.4244	1	21	-99	-99	1	52	0
399.3372	1	82	n/a	n/a	1	0	0
399.4622	1	82	n/a	n/a	1	0	0
399.6102	1	82	n/a	n/a	1	0	0
399.6332	1	82	n/a	n/a	1	0	0
400.0702	1	82	n/a	n/a	1	0	0
400.3372	1	82	n/a	n/a	1	0	0
400.4722	1	82	n/a	n/a	1	0	0
400.7052	1	82	n/a	n/a	1	0	0
400.7562	1	82	n/a	n/a	1	0	0
401.1462	1	82	n/a	n/a	1	0	0
402.5242	1	10	356.1	356.1	1	52	1
403.5908	1	10	281.5	281.5	1	52	2
404.7408	1	10	267.5	267.5	1	52	3
406.024	1	10	280.3	280.3	1	52	4
407.124	1	10	284.3	284.3	1	52	5
408.2238	1	21	256.3	256.3	1	52	0
409.4072	1	10	241	241	1	52	1
410.6404	1	10	303.8	303.8	1	52	2
411.707	1	10	325.2	325.2	1	52	3
412.907	1	10	293.2	293.2	1	52	4
413.9568	1	10	315.2	315.2	1	52	5
415.1568	1	10	299.2	299.2	1	52	6
416.44	1	10	296	296	1	52	7
417.7234	1	21	-99	-99	1	52	0
419.0066	1	10	257.4	257.4	1	52	1
420.2898	1	21	-99	-99	1	52	0
421.5064	1	10	285.5	285.5	1	52	1
422.7064	1	10	205.6	205.6	1	52	2
423.8896	1	10	126.2	126.2	1	52	3
425.1728	1	10	282.9	282.9	1	52	4
426.1404	1	82	n/a	n/a	1	0	0
426.1904	1	82	n/a	n/a	1	0	0
426.2844	1	82	n/a	n/a	1	0	0
426.6154	1	82	n/a	n/a	1	0	0
426.8524	1	82	n/a	n/a	1	0	0
427.1404	1	82	n/a	n/a	1	0	0
427.2444	1	82	n/a	n/a	1	0	0
427.3134	1	82	n/a	n/a	1	0	0
427.5684	1	82	n/a	n/a	1	0	0
427.8464	1	82	n/a	n/a	1	0	0
429.1226	1	10	285.1	285.1	1	52	1
430.206	1	21	-99	-99	1	52	0
431.3392	1	10	276.5	276.5	1	52	1
432.4392	1	10	536.6	536.6	1	52	2
433.489	1	10	238.6	238.6	1	52	3
434.539	1	21	260.7	260.7	1	52	0
435.639	1	10	248.6	248.6	1	52	1
436.7388	1	21	332.7	332.7	1	52	0
438.0222	1	10	-99	-99	1	52	1
439.1054	1	10	254.2	254.2	1	52	2
440.1386	1	10	260.8	260.8	1	52	3
441.172	1	21	-99	-99	1	52	0
442.2552	1	10	272.2	272.2	1	52	1
443.2884	1	10	326.9	326.9	1	52	2
444.4884	1	10	279	279	1	52	3
445.7384	1	10	277	277	1	52	4
446.7882	1	10	299	299	1	52	5
447.8382	1	21	-99	-99	1	52	0
449.0214	1	10	273.8	273.8	1	52	1
450.2048	1	21	242.6	242.6	1	52	0
450.9912	1	82	n/a	n/a	1	0	0
451.3362	1	82	n/a	n/a	1	0	0
451.4082	1	82	n/a	n/a	1	0	0
451.6982	1	82	n/a	n/a	1	0	0
451.7952	1	82	n/a	n/a	1	0	0
451.9912	1	82	n/a	n/a	1	0	0
452.2692	1	82	n/a	n/a	1	0	0
452.5232	1	82	n/a	n/a	1	0	0
452.8362	1	82	n/a	n/a	1	0	0
452.9362	1	82	n/a	n/a	1	0	0
454.1378	1	10	357.3	357.3	1	52	1
455.1712	1	10	236.1	236.1	1	52	2
456.3544	1	10	284.7	284.7	1	52	3
457.5376	1	21	-99	-99	1	52	0
458.721	1	10	270.2	270.2	1	52	1
459.9876	1	10	347.6	347.6	1	52	2
461.0208	1	10	338.3	338.3	1	52	3
462.2874	1	10	271.6	271.6	1	52	4
463.404	1	10	387	387	1	52	5
464.5206	1	21	-99	-99	1	52	0
465.6038	1	10	235.1	235.1	1	52	1
466.9038	1	10	407.1	407.1	1	52	2
468.0036	1	10	283.1	283.1	1	52	3
469.137	1	10	269.9	269.9	1	52	4
470.3536	1	10	221.3	221.3	1	52	5
471.5702	1	21	-99	-99	1	52	0
472.6034	1	10	291.3	291.3	1	52	1
473.6534	1	10	281.4	281.4	1	52	2
474.8032	1	10	267.4	267.4	1	52	3
475.9366	1	10	254.1	254.1	1	52	4
549.4636	1	81	n/a	n/a	1	0	0
549.6636	1	81	n/a	n/a	1	0	0
549.8636	1	81	n/a	n/a	1	0	0
550.0636	1	81	n/a	n/a	1	0	0
550.2636	1	81	n/a	n/a	1	0	0
550.4636	1	81	n/a	n/a	1	0	0
550.6636	1	81	n/a	n/a	1	0	0
550.8636	1	81	n/a	n/a	1	0	0
551.0636	1	81	n/a	n/a	1	0	0
551.2636	1	81	n/a	n/a	1	0	0
552.6654	1	10	323.5	323.5	1	51	1
553.8154	1	10	245.6	245.6	1	51	2
555.0986	1	10	258.3	258.3	1	51	3
556.2652	1	10	275.7	275.7	1	51	4
557.3652	1	10	215.7	215.7	1	51	5
558.6318	1	10	245.1	245.1	1	51	6
559.815	1	10	261.8	261.8	1	51	7
560.9982	1	21	262.5	262.5	1	51	0
562.1316	1	10	217.3	217.3	1	51	1
563.4148	1	10	373.9	373.9	1	51	2
564.4814	1	10	283.3	283.3	1	51	3
565.548	1	21	-99	-99	1	51	0
566.598	1	10	262.7	262.7	1	51	1
567.6978	1	10	314.8	314.8	1	51	2
568.9644	1	10	296.1	296.1	1	51	3
570.231	1	21	-99	-99	1	51	0
571.3976	1	10	230.9	230.9	1	51	1
572.5476	1	10	361	361	1	51	2
573.6976	1	10	266.9	266.9	1	51	3
574.9808	1	10	263.7	263.7	1	51	4
576.0872	1	81	n/a	n/a	1	0	0
576.2872	1	81	n/a	n/a	1	0	0
576.4872	1	81	n/a	n/a	1	0	0
576.6872	1	81	n/a	n/a	1	0	0
576.8872	1	81	n/a	n/a	1	0	0
577.0872	1	81	n/a	n/a	1	0	0
577.2872	1	81	n/a	n/a	1	0	0
577.4872	1	81	n/a	n/a	1	0	0
577.6872	1	81	n/a	n/a	1	0	0
577.8872	1	81	n/a	n/a	1	0	0
579.1472	1	10	305.1	305.1	1	51	1
580.4138	1	10	254.5	254.5	1	51	2
581.647	1	10	253.3	253.3	1	51	3
582.8804	1	21	-99	-99	1	51	0
583.9136	1	10	274.7	274.7	1	51	1
585.0636	1	10	244.7	244.7	1	51	2
586.1302	1	10	218.1	218.1	1	51	3
587.2968	1	10	251.5	251.5	1	51	4
588.3966	1	10	239.5	239.5	1	51	5
589.4966	1	21	-99	-99	1	51	0
590.6798	1	10	196.2	196.2	1	51	1
591.9464	1	10	257.6	257.6	1	51	2
593.1464	1	10	273.7	273.7	1	51	3
594.3296	1	10	290.4	290.4	1	51	4
595.4462	1	10	277.7	277.7	1	51	5
596.5628	1	21	249.1	249.1	1	51	0
597.6294	1	10	222.5	222.5	1	51	1
598.9294	1	10	250.6	250.6	1	51	2
600.0794	1	10	300.5	300.5	1	51	3
601.2292	1	21	-99	-99	1	51	0
602.0018	1	81	n/a	n/a	1	0	0
602.2018	1	81	n/a	n/a	1	0	0
602.4018	1	81	n/a	n/a	1	0	0
602.6018	1	81	n/a	n/a	1	0	0
602.8018	1	81	n/a	n/a	1	0	0
603.002	1	81	n/a	n/a	1	0	0
603.202	1	81	n/a	n/a	1	0	0
603.402	1	81	n/a	n/a	1	0	0
603.602	1	81	n/a	n/a	1	0	0
603.802	1	81	n/a	n/a	1	0	0
605.179	1	10	256.7	256.7	1	51	1
606.279	1	10	260.8	260.8	1	51	2
607.5122	1	10	227.5	227.5	1	51	3
608.7454	1	21	258.3	258.3	1	51	0
610.062	1	10	29.7	29.7	1	51	1
611.2454	1	10	318.3	318.3	1	51	2
612.3952	1	10	288.3	288.3	1	51	3
613.4286	1	10	327.1	327.1	1	51	4
614.5118	1	10	267.8	267.8	1	51	5
615.595	1	21	-99	-99	1	51	0
616.8116	1	10	223.8	223.8	1	51	1
617.945	1	10	386.6	386.6	1	51	2
619.1116	1	10	260	260	1	51	3
620.2782	1	21	261.4	261.4	1	51	0
621.3114	1	10	252	252	1	51	1
622.4114	1	10	272	272	1	51	2
623.5112	1	10	276.1	276.1	1	51	3
624.6946	1	10	260.8	260.8	1	51	4
625.9612	1	10	258.2	258.2	1	51	5
627.2278	1	21	255.5	255.5	1	51	0
628.2242	1	81	n/a	n/a	1	0	0
628.4242	1	81	n/a	n/a	1	0	0
628.6242	1	81	n/a	n/a	1	0	0
628.8242	1	81	n/a	n/a	1	0	0
629.0242	1	81	n/a	n/a	1	0	0
629.2242	1	81	n/a	n/a	1	0	0
629.4242	1	81	n/a	n/a	1	0	0
629.6242	1	81	n/a	n/a	1	0	0
629.8242	1	81	n/a	n/a	1	0	0
630.0242	1	81	n/a	n/a	1	0	0
631.3942	1	10	393.1	393.1	1	51	1
632.4608	1	10	302.4	302.4	1	51	2
633.6106	1	10	256.4	256.4	1	51	3
634.744	1	10	259.2	259.2	1	51	4
635.8438	1	10	263.2	263.2	1	51	5
637.1604	1	10	290.6	290.6	1	51	6
638.2104	1	10	328.6	328.6	1	51	7
639.2604	1	21	-99	-99	1	51	0
640.3436	1	10	259.4	259.4	1	51	1
641.5768	1	10	338.1	338.1	1	51	2
642.6434	1	10	327.4	327.4	1	51	3
643.8934	1	10	261.5	261.5	1	51	4
645.1434	1	10	291.5	291.5	1	51	5
646.3932	1	21	-99	-99	1	51	0
647.6098	1	10	240.9	240.9	1	51	1
648.8764	1	10	270.3	270.3	1	51	2
649.9598	1	10	323	323	1	51	3
651.043	1	21	-99	-99	1	51	0
652.1596	1	10	235.2	235.2	1	51	1
653.2762	1	21	254.6	254.6	1	51	0
654.3936	1	81	n/a	n/a	1	0	0
654.5936	1	81	n/a	n/a	1	0	0
654.7936	1	81	n/a	n/a	1	0	0
654.9936	1	81	n/a	n/a	1	0	0
655.1936	1	81	n/a	n/a	1	0	0
655.3936	1	81	n/a	n/a	1	0	0
655.5936	1	81	n/a	n/a	1	0	0
655.7936	1	81	n/a	n/a	1	0	0
655.9936	1	81	n/a	n/a	1	0	0
656.1936	1	81	n/a	n/a	1	0	0
657.4592	1	10	327.4	327.4	1	51	1
658.5092	1	10	269.4	269.4	1	51	2
659.8258	1	10	248.7	248.7	1	51	3
660.909	1	10	285.4	285.4	1	51	4
662.159	1	10	299.5	299.5	1	51	5
663.409	1	21	-99	-99	1	51	0
664.6756	1	10	246.9	246.9	1	51	1
665.9422	1	21	-99	-99	1	51	0
667.1254	1	10	277	277	1	51	1
668.292	1	10	262.4	262.4	1	51	2
669.5086	1	10	277.7	277.7	1	51	3
670.8086	1	10	257.8	257.8	1	51	4
672.0084	1	10	273.8	273.8	1	51	5
673.075	1	10	327.2	327.2	1	51	6
674.325	1	10	261.3	261.3	1	51	7
675.5748	1	21	-99	-99	1	51	0
676.8582	1	10	240	240	1	51	1
678.108	1	10	254.1	254.1	1	51	2
679.4246	1	10	297.5	297.5	1	51	3
680.5746	1	10	331.5	331.5	1	51	4
691.0294	1	82	n/a	n/a	1	0	0
691.4644	1	82	n/a	n/a	1	0	0
691.5004	1	82	n/a	n/a	1	0	0
691.6504	1	82	n/a	n/a	1	0	0
691.7154	1	82	n/a	n/a	1	0	0
692.0294	1	82	n/a	n/a	1	0	0
692.1404	1	82	n/a	n/a	1	0	0
692.4084	1	82	n/a	n/a	1	0	0
692.7024	1	82	n/a	n/a	1	0	0
692.7334	1	82	n/a	n/a	1	0	0
694.0072	1	10	306.7	306.7	1	50	1
695.0904	1	21	-99	-99	1	50	0
696.1236	1	10	238	238	1	50	1
697.157	1	21	-99	-99	1	50	0
698.3902	1	10	243.5	243.5	1	50	1
699.6734	1	10	288.2	288.2	1	50	2
700.79	1	10	243.6	243.6	1	50	3
701.89	1	10	247.6	247.6	1	50	4
703.0066	1	10	314.9	314.9	1	50	5
704.2398	1	10	281.7	281.7	1	50	6
705.4898	1	10	263.7	263.7	1	50	7
706.7398	1	21	-99	-99	1	50	0
707.9564	1	10	277.1	277.1	1	50	1
709.223	1	10	274.5	274.5	1	50	2
710.5062	1	10	271.3	271.3	1	50	3
711.7394	1	10	269.9	269.9	1	50	4
712.856	1	10	273.3	273.3	1	50	5
714.0726	1	10	272.7	272.7	1	50	6
715.306	1	10	319.4	319.4	1	50	7
716.5392	1	21	-99	-99	1	50	0
717.5218	1	82	n/a	n/a	1	0	0
717.5928	1	82	n/a	n/a	1	0	0
717.7028	1	82	n/a	n/a	1	0	0
718.0388	1	82	n/a	n/a	1	0	0
718.0768	1	82	n/a	n/a	1	0	0
718.522	1	82	n/a	n/a	1	0	0
718.639	1	82	n/a	n/a	1	0	0
718.816	1	82	n/a	n/a	1	0	0
718.853	1	82	n/a	n/a	1	0	0
719.099	1	82	n/a	n/a	1	0	0
720.5556	1	10	381.6	381.6	1	50	1
721.7722	1	10	253	253	1	50	2
723.0222	1	10	283	283	1	50	3
724.072	1	10	289	289	1	50	4
725.172	1	10	261.1	261.1	1	50	5
726.272	1	21	-99	-99	1	50	0
727.3386	1	10	222.5	222.5	1	50	1
728.4552	1	10	273.8	273.8	1	50	2
729.655	1	10	257.9	257.9	1	50	3
730.8216	1	10	227.3	227.3	1	50	4
731.905	1	10	280	280	1	50	5
733.1382	1	10	294.7	294.7	1	50	6
734.1714	1	10	285.4	285.4	1	50	7
735.2048	1	21	-99	-99	1	50	0
736.3546	1	10	246.2	246.2	1	50	1
737.588	1	10	356.9	356.9	1	50	2
738.8378	1	10	258.9	258.9	1	50	3
740.0878	1	21	-99	-99	1	50	0
741.171	1	10	229.7	229.7	1	50	1
742.3544	1	10	246.4	246.4	1	50	2
743.1818	1	82	n/a	n/a	1	0	0
743.5338	1	82	n/a	n/a	1	0	0
743.6308	1	82	n/a	n/a	1	0	0
743.6688	1	82	n/a	n/a	1	0	0
744.0828	1	82	n/a	n/a	1	0	0
744.1818	1	82	n/a	n/a	1	0	0
744.4938	1	82	n/a	n/a	1	0	0
744.7508	1	82	n/a	n/a	1	0	0
744.7988	1	82	n/a	n/a	1	0	0
745.0228	1	82	n/a	n/a	1	0	0
746.1874	1	10	269.2	269.2	1	50	1
747.404	1	10	252.6	252.6	1	50	2
748.454	1	10	274.6	274.6	1	50	3
749.5372	1	10	263.3	263.3	1	50	4
750.8204	1	10	260	260	1	50	5
752.1038	1	21	256.7	256.7	1	50	0
753.1536	1	10	230.8	230.8	1	50	1
754.2036	1	21	-99	-99	1	50	0
755.2868	1	10	241.5	241.5	1	50	1
756.4534	1	10	274.9	274.9	1	50	2
757.5534	1	10	278.9	278.9	1	50	3
758.82	1	10	260.3	260.3	1	50	4
759.87	1	10	250.4	250.4	1	50	5
760.9198	1	21	-99	-99	1	50	0
762.0198	1	10	244.4	244.4	1	50	1
763.3198	1	10	256.5	256.5	1	50	2
764.4364	1	10	259.9	259.9	1	50	3
765.553	1	10	263.2	263.2	1	50	4
766.6028	1	10	269.2	269.2	1	50	5
767.8694	1	10	266.6	266.6	1	50	6
768.657	1	82	n/a	n/a	1	0	0
769.031	1	82	n/a	n/a	1	0	0
769.126	1	82	n/a	n/a	1	0	0
769.158	1	82	n/a	n/a	1	0	0
769.467	1	82	n/a	n/a	1	0	0
769.657	1	82	n/a	n/a	1	0	0
769.769	1	82	n/a	n/a	1	0	0
769.919	1	82	n/a	n/a	1	0	0
770.112	1	82	n/a	n/a	1	0	0
770.149	1	82	n/a	n/a	1	0	0
771.586	1	10	262.1	262.1	1	50	1
772.6858	1	10	282.1	282.1	1	50	2
773.7358	1	10	288.2	288.2	1	50	3
774.7858	1	21	246.2	246.2	1	50	0
775.9024	1	10	249.6	249.6	1	50	1
777.219	1	10	340.9	340.9	1	50	2
778.5022	1	10	305.7	305.7	1	50	3
779.5854	1	10	326.4	326.4	1	50	4
780.6854	1	10	330.5	330.5	1	50	5
781.7854	1	21	-99	-99	1	50	0
783.102	1	10	265.8	265.8	1	50	1
784.3186	1	10	313.2	313.2	1	50	2
785.5018	1	10	250	250	1	50	3
786.685	1	21	298.6	298.6	1	50	0
787.8684	1	10	235.3	235.3	1	50	1
789.185	1	10	374.7	374.7	1	50	2
790.3848	1	10	230.8	230.8	1	50	3
791.5848	1	21	-99	-99	1	50	0
792.8846	1	10	242.8	242.8	1	50	1
794.1846	1	21	254.9	254.9	1	50	0
795.186	1	82	n/a	n/a	1	0	0
795.44	1	82	n/a	n/a	1	0	0
795.663	1	82	n/a	n/a	1	0	0
795.705	1	82	n/a	n/a	1	0	0
795.788	1	82	n/a	n/a	1	0	0
796.186	1	82	n/a	n/a	1	0	0
796.363	1	82	n/a	n/a	1	0	0
796.443	1	82	n/a	n/a	1	0	0
796.681	1	82	n/a	n/a	1	0	0
796.789	1	82	n/a	n/a	1	0	0
798.351	1	10	328.4	328.4	1	50	1
799.6176	1	21	-99	-99	1	50	0
800.9342	1	10	257.2	257.2	1	50	1
802.1842	1	10	351.2	351.2	1	50	2
803.2508	1	10	292.5	292.5	1	50	3
804.3506	1	10	296.6	296.6	1	50	4
805.5506	1	10	296.7	296.7	1	50	5
806.8672	1	10	260.1	260.1	1	50	6
808.1672	1	10	304	304	1	50	7
809.467	1	21	-99	-99	1	50	0
810.617	1	10	270.2	270.2	1	50	1
811.767	1	21	-99	-99	1	50	0
812.9002	1	10	211	211	1	50	1
814.0168	1	10	230.3	230.3	1	50	2
815.25	1	10	277	277	1	50	3
816.4834	1	10	243.7	243.7	1	50	4
817.5332	1	10	233.8	233.8	1	50	5
818.6832	1	10	267.9	267.9	1	50	6
820.0164	1	10	278.5	278.5	1	50	7
821.3496	1	21	-99	-99	1	50	0
842.42	1	82	n/a	n/a	1	0	0
842.696	1	82	n/a	n/a	1	0	0
842.8	1	82	n/a	n/a	1	0	0
842.973	1	82	n/a	n/a	1	0	0
843.105	1	82	n/a	n/a	1	0	0
843.42	1	82	n/a	n/a	1	0	0
843.597	1	82	n/a	n/a	1	0	0
843.73	1	82	n/a	n/a	1	0	0
843.981	1	82	n/a	n/a	1	0	0
844.338	1	82	n/a	n/a	1	0	0
845.415	1	10	319.4	319.4	1	52	1
846.6816	1	10	252.8	252.8	1	52	2
847.9982	1	10	264.2	264.2	1	52	3
849.298	1	10	260.3	260.3	1	52	4
850.3314	1	10	299	299	1	52	5
851.4812	1	10	300.9	300.9	1	52	6
852.6312	1	10	255	255	1	52	7
853.7812	1	21	273.1	273.1	1	52	0
855.0144	1	10	223.8	223.8	1	52	1
856.2644	1	10	413.8	413.8	1	52	2
857.381	1	10	305.2	305.2	1	52	3
858.4642	1	10	277.9	277.9	1	52	4
859.6642	1	10	310	310	1	52	5
860.8974	1	10	276.7	276.7	1	52	6
862.214	1	10	368	368	1	52	7
863.5306	1	21	-99	-99	1	52	0
864.6304	1	10	255.5	255.5	1	52	1
865.747	1	10	338.9	338.9	1	52	2
867.047	1	10	286.8	286.8	1	52	3
868.347	1	21	-99	-99	1	52	0
869.2606	1	82	n/a	n/a	1	0	0
869.3666	1	82	n/a	n/a	1	0	0
869.6216	1	82	n/a	n/a	1	0	0
869.7926	1	82	n/a	n/a	1	0	0
870.2186	1	82	n/a	n/a	1	0	0
870.2606	1	82	n/a	n/a	1	0	0
870.6206	1	82	n/a	n/a	1	0	0
870.8596	1	82	n/a	n/a	1	0	0
871.1316	1	82	n/a	n/a	1	0	0
871.1626	1	82	n/a	n/a	1	0	0
872.3966	1	10	313	313	1	52	1
873.43	1	10	255.8	255.8	1	52	2
874.5466	1	10	291.1	291.1	1	52	3
875.7966	1	10	273.2	273.2	1	52	4
876.9298	1	10	275.9	275.9	1	52	5
878.063	1	21	-99	-99	1	52	0
879.113	1	10	236.6	236.6	1	52	1
880.163	1	21	-99	-99	1	52	0
881.3462	1	10	243.4	243.4	1	52	1
882.6128	1	10	272.8	272.8	1	52	2
883.8294	1	10	288.1	288.1	1	52	3
885.046	1	21	-99	-99	1	52	0
886.3458	1	10	187.6	187.6	1	52	1
887.5624	1	10	330.9	330.9	1	52	2
888.6958	1	10	237.6	237.6	1	52	3
889.829	1	21	272.4	272.4	1	52	0
890.9456	1	10	243.7	243.7	1	52	1
892.0622	1	21	-99	-99	1	52	0
893.2788	1	10	278.4	278.4	1	52	1
894.4788	1	10	278.5	278.5	1	52	2
895.3502	1	82	n/a	n/a	1	0	0
895.5892	1	82	n/a	n/a	1	0	0
895.7682	1	82	n/a	n/a	1	0	0
895.8712	1	82	n/a	n/a	1	0	0
896.1722	1	82	n/a	n/a	1	0	0
896.3502	1	82	n/a	n/a	1	0	0
896.5162	1	82	n/a	n/a	1	0	0
896.6432	1	82	n/a	n/a	1	0	0
896.8662	1	82	n/a	n/a	1	0	0
897.1732	1	82	n/a	n/a	1	0	0
898.4786	1	10	278.6	278.6	1	52	1
899.5952	1	10	298	298	1	52	2
900.9118	1	10	293.4	293.4	1	52	3
902.1282	1	10	308.8	308.8	1	52	4
903.3282	1	10	324.9	324.9	1	52	5
904.5282	1	21	-99	-99	1	52	0
905.678	1	10	278.9	278.9	1	52	1
906.828	1	21	-99	-99	1	52	0
907.9112	1	10	317.7	317.7	1	52	1
909.0278	1	10	321.1	321.1	1	52	2
910.1612	1	10	275.7	275.7	1	52	3
911.461	1	10	319.8	319.8	1	52	4
912.611	1	10	289.9	289.9	1	52	5
913.761	1	21	-99	-99	1	52	0
915.0776	1	10	239.2	239.2	1	52	1
916.3942	1	21	-99	-99	1	52	0
917.594	1	10	266.7	266.7	1	52	1
918.794	1	21	1226.8	1226.8	1	52	0
920.0272	1	10	-99	-99	1	52	1
921.2606	1	10	232.1	232.1	1	52	2
922.186	1	82	n/a	n/a	1	0	0
922.307	1	82	n/a	n/a	1	0	0
922.615	1	82	n/a	n/a	1	0	0
922.663	1	82	n/a	n/a	1	0	0
923.081	1	82	n/a	n/a	1	0	0
923.186	1	82	n/a	n/a	1	0	0
923.23	1	82	n/a	n/a	1	0	0
923.616	1	82	n/a	n/a	1	0	0
923.926	1	82	n/a	n/a	1	0	0
924.152	1	82	n/a	n/a	1	0	0
925.3436	1	10	277	277	1	52	1
926.3936	1	10	299	299	1	52	2
927.6768	1	10	295.7	295.7	1	52	3
928.9768	1	10	323.8	323.8	1	52	4
930.2266	1	10	305.9	305.9	1	52	5
931.4766	1	21	-99	-99	1	52	0
932.7266	1	10	269.9	269.9	1	52	1
933.8764	1	10	336	336	1	52	2
935.2096	1	10	266.7	266.7	1	52	3
936.493	1	10	279.3	279.3	1	52	4
937.6096	1	10	314.7	314.7	1	52	5
938.7262	1	21	-99	-99	1	52	0
939.9594	1	10	252.9	252.9	1	52	1
941.1926	1	21	-99	-99	1	52	0
942.4426	1	10	249.6	249.6	1	52	1
943.7092	1	10	295	295	1	52	2
944.8924	1	10	295.7	295.7	1	52	3
946.1424	1	10	293.8	293.8	1	52	4
947.2924	1	10	295.7	295.7	1	52	5
948.459	1	10	265.1	265.1	1	52	6
949.4574	1	82	n/a	n/a	1	0	0
949.5814	1	82	n/a	n/a	1	0	0
949.9374	1	82	n/a	n/a	1	0	0
950.1084	1	82	n/a	n/a	1	0	0
950.3454	1	82	n/a	n/a	1	0	0
950.4574	1	82	n/a	n/a	1	0	0
950.6104	1	82	n/a	n/a	1	0	0
950.8414	1	82	n/a	n/a	1	0	0
951.1094	1	82	n/a	n/a	1	0	0
951.1924	1	82	n/a	n/a	1	0	0
952.6086	1	10	355.3	355.3	1	52	1
953.7086	1	10	247.3	247.3	1	52	2
954.8586	1	10	281.4	281.4	1	52	3
956.0084	1	21	-99	-99	1	52	0
957.0418	1	10	242.2	242.2	1	52	1
958.175	1	10	292.8	292.8	1	52	2
959.3582	1	10	293.5	293.5	1	52	3
960.6248	1	10	322.9	322.9	1	52	4
961.8582	1	10	289.7	289.7	1	52	5
963.0914	1	21	256.3	256.3	1	52	0
964.1414	1	10	262.4	262.4	1	52	1
965.2412	1	10	442.4	442.4	1	52	2
966.5746	1	10	277.2	277.2	1	52	3
967.8912	1	10	272.6	272.6	1	52	4
968.9244	1	10	311.2	311.2	1	52	5
969.9576	1	10	285.9	285.9	1	52	6
971.2242	1	10	267.3	267.3	1	52	7
972.4908	1	21	-99	-99	1	52	0
973.774	1	10	229.3	229.3	1	52	1
974.8574	1	10	698.1	698.1	1	52	2
1036.2018	1	82	n/a	n/a	1	0	0
1036.5818	1	82	n/a	n/a	1	0	0
1036.9838	1	82	n/a	n/a	1	0	0
1037.0808	1	82	n/a	n/a	1	0	0
1037.1398	1	82	n/a	n/a	1	0	0
1037.2018	1	82	n/a	n/a	1	0	0
1037.5268	1	82	n/a	n/a	1	0	0
1037.6488	1	82	n/a	n/a	1	0	0
1037.8688	1	82	n/a	n/a	1	0	0
1037.9108	1	82	n/a	n/a	1	0	0
1039.3036	1	10	314.4	314.4	1	52	1
1040.4368	1	10	285.1	285.1	1	52	2
1041.6368	1	10	253.2	253.2	1	52	3
1042.67	1	10	291.8	291.8	1	52	4
1043.7034	1	10	266.5	266.5	1	52	5
1044.7366	1	21	1153.3	1153.3	1	52	0
1046.0532	1	10	-99	-99	1	52	1
1047.3698	1	21	248.1	248.1	1	52	0
1048.6864	1	10	243.4	243.4	1	52	1
1049.9696	1	10	464.1	464.1	1	52	2
1051.1696	1	10	304.2	304.2	1	52	3
1052.3694	1	21	-99	-99	1	52	0
1053.436	1	10	261.5	261.5	1	52	1
1054.5026	1	10	298.9	298.9	1	52	2
1055.636	1	10	269.7	269.7	1	52	3
1056.8026	1	10	319.1	319.1	1	52	4
1057.9192	1	10	274.5	274.5	1	52	5
1059.0358	1	21	-99	-99	1	52	0
1060.219	1	10	182.5	182.5	1	52	1
1061.4022	1	10	359.2	359.2	1	52	2
1062.4718	1	82	n/a	n/a	1	0	0
1062.8238	1	82	n/a	n/a	1	0	0
1062.9398	1	82	n/a	n/a	1	0	0
1063.0078	1	82	n/a	n/a	1	0	0
1063.1018	1	82	n/a	n/a	1	0	0
1063.4718	1	82	n/a	n/a	1	0	0
1063.5958	1	82	n/a	n/a	1	0	0
1063.8708	1	82	n/a	n/a	1	0	0
1064.1148	1	82	n/a	n/a	1	0	0
1064.1388	1	82	n/a	n/a	1	0	0
1065.6354	1	10	302	302	1	52	1
1066.902	1	21	-99	-99	1	52	0
1067.9352	1	10	290.1	290.1	1	52	1
1068.9852	1	10	296.2	296.2	1	52	2
1070.3018	1	10	227.5	227.5	1	52	3
1071.6184	1	21	-99	-99	1	52	0
1072.685	1	10	292.3	292.3	1	52	1
1073.7516	1	21	-99	-99	1	52	0
1074.7848	1	10	240.4	240.4	1	52	1
1075.8348	1	10	278.4	278.4	1	52	2
1076.868	1	10	317.1	317.1	1	52	3
1078.0846	1	10	236.5	236.5	1	52	4
1079.3846	1	10	280.5	280.5	1	52	5
1080.6512	1	10	277.9	277.9	1	52	6
1081.901	1	10	275.9	275.9	1	52	7
1083.151	1	21	-99	-99	1	52	0
1084.4676	1	10	253.4	253.4	1	52	1
1085.5342	1	10	274.8	274.8	1	52	2
1086.6508	1	10	246.1	246.1	1	52	3
1087.8508	1	10	262.2	262.2	1	52	4
1088.6552	1	82	n/a	n/a	1	0	0
1088.6912	1	82	n/a	n/a	1	0	0
1088.8012	1	82	n/a	n/a	1	0	0
1089.2152	1	82	n/a	n/a	1	0	0
1089.4862	1	82	n/a	n/a	1	0	0
1089.6552	1	82	n/a	n/a	1	0	0
1090.0412	1	82	n/a	n/a	1	0	0
1090.3122	1	82	n/a	n/a	1	0	0
1090.4892	1	82	n/a	n/a	1	0	0
1090.5992	1	82	n/a	n/a	1	0	0
1091.8838	1	10	293	293	1	52	1
1093.1504	1	10	306.4	306.4	1	52	2
1094.3836	1	10	289.1	289.1	1	52	3
1095.4836	1	10	277.1	277.1	1	52	4
1096.5668	1	10	313.8	313.8	1	52	5
1097.8834	1	10	229.2	229.2	1	52	6
1099.05	1	10	262.6	262.6	1	52	7
1100.2166	1	21	248	248	1	52	0
1101.4832	1	10	261.4	261.4	1	52	1
1102.6332	1	10	343.3	343.3	1	52	2
1103.8498	1	10	342.7	342.7	1	52	3
1105.083	1	10	309.5	309.5	1	52	4
1106.2496	1	10	310.9	310.9	1	52	5
1107.4496	1	10	294.9	294.9	1	52	6
1108.7162	1	10	404.2	404.2	1	52	7
1109.9828	1	21	-99	-99	1	52	0
1111.166	1	10	258.4	258.4	1	52	1
1112.3494	1	21	-99	-99	1	52	0
1113.416	1	10	280.4	280.4	1	52	1
1114.6158	1	10	264.5	264.5	1	52	2
1115.4844	1	82	n/a	n/a	1	0	0
1115.7074	1	82	n/a	n/a	1	0	0
1115.7494	1	82	n/a	n/a	1	0	0
1116.0634	1	82	n/a	n/a	1	0	0
1116.4174	1	82	n/a	n/a	1	0	0
1116.4844	1	82	n/a	n/a	1	0	0
1116.6054	1	82	n/a	n/a	1	0	0
1116.9774	1	82	n/a	n/a	1	0	0
1117.0034	1	82	n/a	n/a	1	0	0
1117.3184	1	82	n/a	n/a	1	0	0
1118.649	1	10	311.3	311.3	1	52	1
1119.9156	1	21	-99	-99	1	52	0
1121.1322	1	10	308.1	308.1	1	52	1
1122.3654	1	10	306.8	306.8	1	52	2
1123.4154	1	10	296.8	296.8	1	52	3
1124.4486	1	10	303.5	303.5	1	52	4
1125.5652	1	10	274.9	274.9	1	52	5
1126.6818	1	21	-99	-99	1	52	0
1127.9484	1	10	323.7	323.7	1	52	1
1129.215	1	10	289	289	1	52	2
1130.3482	1	10	275.7	275.7	1	52	3
1131.3816	1	10	298.4	298.4	1	52	4
1132.5648	1	10	363.2	363.2	1	52	5
1133.748	1	21	-99	-99	1	52	0
1134.9314	1	10	12.5	12.5	1	52	1
1136.1146	1	21	349.2	349.2	1	52	0
1137.2478	1	10	256	256	1	52	1
1138.4312	1	10	272.7	272.7	1	52	2
1139.531	1	10	340.7	340.7	1	52	3
1140.631	1	21	-99	-99	1	52	0
1141.4018	1	82	n/a	n/a	1	0	0
1141.4508	1	82	n/a	n/a	1	0	0
1141.5698	1	82	n/a	n/a	1	0	0
1141.5938	1	82	n/a	n/a	1	0	0
1141.9958	1	82	n/a	n/a	1	0	0
1142.4018	1	82	n/a	n/a	1	0	0
1142.5498	1	82	n/a	n/a	1	0	0
1142.8298	1	82	n/a	n/a	1	0	0
1142.9268	1	82	n/a	n/a	1	0	0
1143.3548	1	82	n/a	n/a	1	0	0
1144.5308	1	10	284.8	284.8	1	52	1
1145.814	1	10	313.6	313.6	1	52	2
1147.0306	1	10	297	297	1	52	3
1148.1972	1	10	266.4	266.4	1	52	4
1149.4804	1	10	263.1	263.1	1	52	5
1150.797	1	10	258.4	258.4	1	52	6
1151.9636	1	10	307.8	307.8	1	52	7
1153.1302	1	21	-99	-99	1	52	0
1154.2968	1	10	294.5	294.5	1	52	1
1155.3302	1	10	349.2	349.2	1	52	2
1156.58	1	10	283.3	283.3	1	52	3
1157.8966	1	10	278.7	278.7	1	52	4
1159.0466	1	10	344.8	344.8	1	52	5
1160.1966	1	21	-99	-99	1	52	0
1161.3964	1	10	282.8	282.8	1	52	1
1162.463	1	10	304.2	304.2	1	52	2
1163.7796	1	10	315.6	315.6	1	52	3
1165.0628	1	10	296.3	296.3	1	52	4
1166.3462	1	10	293	293	1	52	5
1167.6294	1	21	-99	-99	1	52	0
1177.5758	1	81	n/a	n/a	1	0	0
1177.7758	1	81	n/a	n/a	1	0	0
1177.9758	1	81	n/a	n/a	1	0	0
1178.1758	1	81	n/a	n/a	1	0	0
1178.3758	1	81	n/a	n/a	1	0	0
1178.5758	1	81	n/a	n/a	1	0	0
1178.7758	1	81	n/a	n/a	1	0	0
1178.9758	1	81	n/a	n/a	1	0	0
1179.1758	1	81	n/a	n/a	1	0	0
1179.3758	1	81	n/a	n/a	1	0	0
1180.7452	1	10	309.6	309.6	1	50	1
1182.0286	1	21	-99	-99	1	50	0
1183.1284	1	10	230.3	230.3	1	50	1
1184.4284	1	10	306.3	306.3	1	50	2
1185.7116	1	10	271.1	271.1	1	50	3
1186.895	1	10	271.8	271.8	1	50	4
1188.1782	1	10	300.4	300.4	1	50	5
1189.3448	1	10	269.8	269.8	1	50	6
1190.6614	1	10	265.2	265.2	1	50	7
1191.978	1	21	-99	-99	1	50	0
1193.0612	1	10	233.3	233.3	1	50	1
1194.1446	1	21	-99	-99	1	50	0
1195.1778	1	10	340.7	340.7	1	50	1
1196.2778	1	10	376.8	376.8	1	50	2
1197.3276	1	10	286.8	286.8	1	50	3
1198.6276	1	10	330.8	330.8	1	50	4
1199.9108	1	10	311.5	311.5	1	50	5
1201.1942	1	21	-99	-99	1	50	0
1202.2274	1	10	298.9	298.9	1	50	1
1203.4774	1	10	297	297	1	50	2
1204.5528	1	81	n/a	n/a	1	0	0
1204.7528	1	81	n/a	n/a	1	0	0
1204.9528	1	81	n/a	n/a	1	0	0
1205.1526	1	81	n/a	n/a	1	0	0
1205.3526	1	81	n/a	n/a	1	0	0
1205.5528	1	81	n/a	n/a	1	0	0
1205.7528	1	81	n/a	n/a	1	0	0
1205.9528	1	81	n/a	n/a	1	0	0
1206.1528	1	81	n/a	n/a	1	0	0
1206.3528	1	81	n/a	n/a	1	0	0
1207.577	1	10	309.2	309.2	1	50	1
1208.7104	1	21	-99	-99	1	50	0
1209.777	1	10	269.2	269.2	1	50	1
1210.8436	1	21	-99	-99	1	50	0
1211.9434	1	10	278.7	278.7	1	50	1
1213.01	1	10	268.1	268.1	1	50	2
1214.2934	1	10	296.7	296.7	1	50	3
1215.3766	1	10	333.4	333.4	1	50	4
1216.6598	1	10	298.2	298.2	1	50	5
1217.9432	1	21	-99	-99	1	50	0
1219.0764	1	10	265.5	265.5	1	50	1
1220.2096	1	10	284.3	284.3	1	50	2
1221.5096	1	10	264.3	264.3	1	50	3
1222.8262	1	10	307.7	307.7	1	50	4
1223.976	1	10	341.8	341.8	1	50	5
1225.076	1	10	313.8	313.8	1	50	6
1226.326	1	10	359.8	359.8	1	50	7
1227.5758	1	21	-99	-99	1	50	0
1228.6924	1	10	281.3	281.3	1	50	1
1229.7758	1	10	397.9	397.9	1	50	2
1230.6572	1	81	n/a	n/a	1	0	0
1230.8572	1	81	n/a	n/a	1	0	0
1231.0572	1	81	n/a	n/a	1	0	0
1231.2572	1	81	n/a	n/a	1	0	0
1231.4572	1	81	n/a	n/a	1	0	0
1231.6572	1	81	n/a	n/a	1	0	0
1231.8572	1	81	n/a	n/a	1	0	0
1232.0572	1	81	n/a	n/a	1	0	0
1232.2572	1	81	n/a	n/a	1	0	0
1232.4572	1	81	n/a	n/a	1	0	0
1233.5756	1	10	310.1	310.1	1	50	1
1234.7754	1	10	294.2	294.2	1	50	2
1235.8588	1	10	330.8	330.8	1	50	3
1237.0254	1	10	316.2	316.2	1	50	4
1238.3086	1	10	296.9	296.9	1	50	5
1239.5918	1	21	309.7	309.7	1	50	0
1240.7752	1	10	246.3	246.3	1	50	1
1242.0584	1	10	403.1	403.1	1	50	2
1243.225	1	10	356.5	356.5	1	50	3
1244.4916	1	10	417.9	417.9	1	50	4
1245.7248	1	10	320.5	320.5	1	50	5
1246.958	1	21	-99	-99	1	50	0
1248.0414	1	10	292	292	1	50	1
1249.1246	1	21	-99	-99	1	50	0
1250.3412	1	10	264.1	264.1	1	50	1
1251.6412	1	10	308	308	1	50	2
1252.8244	1	10	356.8	356.8	1	50	3
1254.091	1	10	370.2	370.2	1	50	4
1255.1242	1	10	360.9	360.9	1	50	5
1256.3908	1	10	406.2	406.2	1	50	6
1257.1202	1	81	n/a	n/a	1	0	0
1257.3202	1	81	n/a	n/a	1	0	0
1257.5202	1	81	n/a	n/a	1	0	0
1257.7202	1	81	n/a	n/a	1	0	0
1257.9202	1	81	n/a	n/a	1	0	0
1258.1202	1	81	n/a	n/a	1	0	0
1258.3202	1	81	n/a	n/a	1	0	0
1258.5202	1	81	n/a	n/a	1	0	0
1258.7202	1	81	n/a	n/a	1	0	0
1258.9202	1	81	n/a	n/a	1	0	0
1260.2574	1	10	267.8	267.8	1	50	1
1261.3906	1	10	302.5	302.5	1	50	2
1262.4906	1	10	274.4	274.4	1	50	3
1263.7572	1	10	287.8	287.8	1	50	4
1264.857	1	10	355.9	355.9	1	50	5
1265.957	1	21	-99	-99	1	50	0
1267.0402	1	10	220.6	220.6	1	50	1
1268.1236	1	21	-99	-99	1	50	0
1269.3402	1	10	224.7	224.7	1	50	1
1270.5568	1	10	272.1	272.1	1	50	2
1271.69	1	10	274.8	274.8	1	50	3
1272.8066	1	10	278.1	278.1	1	50	4
1273.9898	1	10	294.9	294.9	1	50	5
1275.173	1	21	-99	-99	1	50	0
1276.423	1	10	293.7	293.7	1	50	1
1277.5062	1	10	298.4	298.4	1	50	2
1278.8062	1	10	310.4	310.4	1	50	3
1279.8728	1	10	299.8	299.8	1	50	4
1281.1394	1	10	265.2	265.2	1	50	5
1282.1894	1	10	287.2	287.2	1	50	6
1283.0318	1	81	n/a	n/a	1	0	0
1283.2318	1	81	n/a	n/a	1	0	0
1283.4318	1	81	n/a	n/a	1	0	0
1283.6318	1	81	n/a	n/a	1	0	0
1283.8318	1	81	n/a	n/a	1	0	0
1284.0318	1	81	n/a	n/a	1	0	0
1284.2318	1	81	n/a	n/a	1	0	0
1284.4318	1	81	n/a	n/a	1	0	0
1284.6318	1	81	n/a	n/a	1	0	0
1284.8318	1	81	n/a	n/a	1	0	0
1286.1392	1	10	273.3	273.3	1	50	1
1287.3558	1	21	-99	-99	1	50	0
1288.6556	1	10	284.7	284.7	1	50	1
1289.789	1	10	335.4	335.4	1	50	2
1290.9722	1	10	320.2	320.2	1	50	3
1292.1554	1	21	-99	-99	1	50	0
1293.3886	1	10	303.6	303.6	1	50	1
1294.4386	1	10	325.6	325.6	1	50	2
1295.6552	1	10	277	277	1	50	3
1296.9718	1	10	256.4	256.4	1	50	4
1298.1218	1	10	322.5	322.5	1	50	5
1299.205	1	10	343.1	343.1	1	50	6
1300.4882	1	10	323.8	323.8	1	50	7
1301.7716	1	21	-99	-99	1	50	0
1302.8714	1	10	276.6	276.6	1	50	1
1304.188	1	10	463.9	463.9	1	50	2
1305.5214	1	10	298.7	298.7	1	50	3
1306.8546	1	21	-99	-99	1	50	0
1307.9712	1	10	264.8	264.8	1	50	1
1309.2544	1	10	693.4	693.4	1	50	2
1323.2484	1	81	n/a	n/a	1	0	0
1323.4484	1	81	n/a	n/a	1	0	0
1323.6484	1	81	n/a	n/a	1	0	0
1323.8484	1	81	n/a	n/a	1	0	0
1324.0484	1	81	n/a	n/a	1	0	0
1324.2484	1	81	n/a	n/a	1	0	0
1324.4484	1	81	n/a	n/a	1	0	0
1324.6484	1	81	n/a	n/a	1	0	0
1324.8484	1	81	n/a	n/a	1	0	0
1325.0484	1	81	n/a	n/a	1	0	0
1326.1702	1	10	289.4	289.4	1	51	1
1327.2034	1	21	-99	-99	1	51	0
1328.3034	1	10	172.2	172.2	1	51	1
1329.4032	1	21	-99	-99	1	51	0
1330.7198	1	10	91.7	91.7	1	51	1
1331.9864	1	10	280.9	280.9	1	51	2
1333.0364	1	10	255	255	1	51	3
1334.153	1	10	258.4	258.4	1	51	4
1335.2696	1	10	277.8	277.8	1	51	5
1336.3862	1	21	-99	-99	1	51	0
1337.5028	1	10	268.5	268.5	1	51	1
1338.536	1	10	275.2	275.2	1	51	2
1339.6526	1	10	246.6	246.6	1	51	3
1340.7692	1	21	-99	-99	1	51	0
1342.0526	1	10	246.6	246.6	1	51	1
1343.3358	1	21	-99	-99	1	51	0
1344.5856	1	10	241.4	241.4	1	51	1
1345.7356	1	10	291.5	291.5	1	51	2
1346.8022	1	10	280.9	280.9	1	51	3
1348.1354	1	10	291.5	291.5	1	51	4
1348.942	1	81	n/a	n/a	1	0	0
1349.142	1	81	n/a	n/a	1	0	0
1349.342	1	81	n/a	n/a	1	0	0
1349.542	1	81	n/a	n/a	1	0	0
1349.742	1	81	n/a	n/a	1	0	0
1349.942	1	81	n/a	n/a	1	0	0
1350.142	1	81	n/a	n/a	1	0	0
1350.342	1	81	n/a	n/a	1	0	0
1350.542	1	81	n/a	n/a	1	0	0
1350.742	1	81	n/a	n/a	1	0	0
1352.0686	1	10	342.4	342.4	1	51	1
1353.1852	1	10	313.7	313.7	1	51	2
1354.2352	1	10	319.8	319.8	1	51	3
1355.2684	1	10	294.5	294.5	1	51	4
1356.4684	1	10	246.6	246.6	1	51	5
1357.6682	1	21	-99	-99	1	51	0
1358.9016	1	10	245.3	245.3	1	51	1
1360.2014	1	10	433.3	433.3	1	51	2
1361.418	1	10	368.7	368.7	1	51	3
1362.6346	1	21	-99	-99	1	51	0
1363.718	1	10	308.8	308.8	1	51	1
1364.8178	1	10	328.8	328.8	1	51	2
1366.0012	1	10	313.6	313.6	1	51	3
1367.1844	1	10	314.3	314.3	1	51	4
1368.3676	1	10	347	347	1	51	5
1369.4176	1	10	289	289	1	51	6
1370.6842	1	10	286.4	286.4	1	51	7
1371.9508	1	21	-99	-99	1	51	0
1373.2174	1	10	217.2	217.2	1	51	1
1374.3172	1	10	381.1	381.1	1	51	2
1375.3998	1	81	n/a	n/a	1	0	0
1375.5998	1	81	n/a	n/a	1	0	0
1375.7998	1	81	n/a	n/a	1	0	0
1375.9998	1	81	n/a	n/a	1	0	0
1376.1998	1	81	n/a	n/a	1	0	0
1376.3998	1	81	n/a	n/a	1	0	0
1376.5998	1	81	n/a	n/a	1	0	0
1376.7998	1	81	n/a	n/a	1	0	0
1376.9998	1	81	n/a	n/a	1	0	0
1377.1998	1	81	n/a	n/a	1	0	0
1378.4838	1	10	310.7	310.7	1	51	1
1379.6836	1	21	-99	-99	1	51	0
1380.717	1	10	285.4	285.4	1	51	1
1381.8168	1	10	417.5	417.5	1	51	2
1382.9002	1	10	326.2	326.2	1	51	3
1383.9834	1	21	-99	-99	1	51	0
1385.0666	1	10	239.5	239.5	1	51	1
1386.2332	1	10	320.9	320.9	1	51	2
1387.5166	1	10	317.7	317.7	1	51	3
1388.7998	1	21	-99	-99	1	51	0
1389.8664	1	10	287.7	287.7	1	51	1
1390.933	1	21	-99	-99	1	51	0
1392.0162	1	10	249.8	249.8	1	51	1
1393.1162	1	21	-99	-99	1	51	0
1394.4162	1	10	249.9	249.9	1	51	1
1395.5994	1	10	298.6	298.6	1	51	2
1396.7326	1	10	317.3	317.3	1	51	3
1397.866	1	21	320	320	1	51	0
1399.0992	1	10	222.8	222.8	1	51	1
1400.3492	1	10	284.7	284.7	1	51	2
1401.3214	1	81	n/a	n/a	1	0	0
1401.5214	1	81	n/a	n/a	1	0	0
1401.7214	1	81	n/a	n/a	1	0	0
1401.9214	1	81	n/a	n/a	1	0	0
1402.1214	1	81	n/a	n/a	1	0	0
1402.3214	1	81	n/a	n/a	1	0	0
1402.5214	1	81	n/a	n/a	1	0	0
1402.7214	1	81	n/a	n/a	1	0	0
1402.9214	1	81	n/a	n/a	1	0	0
1403.1214	1	81	n/a	n/a	1	0	0
1404.4488	1	10	249	249	1	51	1
1405.6822	1	21	-99	-99	1	51	0
1406.9154	1	10	214.3	214.3	1	51	1
1408.082	1	10	391.7	391.7	1	51	2
1409.1486	1	10	333.1	333.1	1	51	3
1410.2152	1	10	290.5	290.5	1	51	4
1411.2984	1	10	295.1	295.1	1	51	5
1412.415	1	10	266.5	266.5	1	51	6
1413.5484	1	10	253.3	253.3	1	51	7
1414.6816	1	21	-99	-99	1	51	0
1415.8982	1	10	271.4	271.4	1	51	1
1417.0982	1	10	255.3	255.3	1	51	2
1418.2648	1	10	240.7	240.7	1	51	3
1419.5646	1	10	60.8	60.8	1	51	4
1420.7146	1	10	271	271	1	51	5
1421.8478	1	10	273.5	273.5	1	51	6
1423.1144	1	10	270.9	270.9	1	51	7
1424.381	1	21	-99	-99	1	51	0
1425.6142	1	10	267	267	1	51	1
1426.8308	1	10	410.4	410.4	1	51	2
1427.7476	1	81	n/a	n/a	1	0	0
1427.9476	1	81	n/a	n/a	1	0	0
1428.1476	1	81	n/a	n/a	1	0	0
1428.3476	1	81	n/a	n/a	1	0	0
1428.5476	1	81	n/a	n/a	1	0	0
1428.7476	1	81	n/a	n/a	1	0	0
1428.9476	1	81	n/a	n/a	1	0	0
1429.1476	1	81	n/a	n/a	1	0	0
1429.3476	1	81	n/a	n/a	1	0	0
1429.5476	1	81	n/a	n/a	1	0	0
1430.9474	1	10	341.9	341.9	1	51	1
1432.1472	1	10	262	262	1	51	2
1433.2638	1	10	329.3	329.3	1	51	3
1434.3804	1	21	1212.7	1212.7	1	51	0
1435.6136	1	10	-99	-99	1	51	1
1436.6804	1	10	368.8	368.8	1	51	2
1437.9802	1	10	412.8	412.8	1	51	3
1439.1802	1	10	300.8	300.8	1	51	4
1440.28	1	10	240.9	240.9	1	51	5
1441.38	1	21	260.9	260.9	1	51	0
1442.4632	1	10	249.7	249.7	1	51	1
1443.7466	1	10	326.3	326.3	1	51	2
1444.8132	1	10	331.7	331.7	1	51	3
1445.8798	1	21	-99	-99	1	51	0
1447.013	1	10	291.8	291.8	1	51	1
1448.0796	1	10	297.2	297.2	1	51	2
1449.2796	1	10	313.2	313.2	1	51	3
1450.5128	1	10	263.9	263.9	1	51	4
1451.6628	1	10	298	298	1	51	5
1452.946	1	10	310.7	310.7	1	51	6
1541.1076	1	81	n/a	n/a	1	0	0
1541.3076	1	81	n/a	n/a	1	0	0
1541.5076	1	81	n/a	n/a	1	0	0
1541.7076	1	81	n/a	n/a	1	0	0
1541.9076	1	81	n/a	n/a	1	0	0
1542.1076	1	81	n/a	n/a	1	0	0
1542.3076	1	81	n/a	n/a	1	0	0
1542.5076	1	81	n/a	n/a	1	0	0
1542.7076	1	81	n/a	n/a	1	0	0
1542.9076	1	81	n/a	n/a	1	0	0
1544.1574	1	10	329.3	329.3	1	51	1
1545.324	1	10	282.6	282.6	1	51	2
1546.6072	1	10	295.4	295.4	1	51	3
1547.8904	1	21	-99	-99	1	51	0
1548.957	1	10	249.5	249.5	1	51	1
1550.1404	1	10	250.1	250.1	1	51	2
1551.4402	1	10	278.2	278.2	1	51	3
1552.6068	1	10	279.6	279.6	1	51	4
1553.79	1	10	280.3	280.3	1	51	5
1554.9734	1	21	-99	-99	1	51	0
1556.0566	1	10	237.7	237.7	1	51	1
1557.3732	1	10	281.1	281.1	1	51	2
1558.6232	1	10	263.2	263.2	1	51	3
1559.7564	1	10	281.9	281.9	1	51	4
1560.8896	1	10	316.5	316.5	1	51	5
1562.023	1	10	271.3	271.3	1	51	6
1563.2062	1	10	288	288	1	51	7
1564.3894	1	21	-99	-99	1	51	0
1565.5228	1	10	275.5	275.5	1	51	1
1566.7226	1	10	275.4	275.4	1	51	2
1567.525	1	81	n/a	n/a	1	0	0
1567.725	1	81	n/a	n/a	1	0	0
1567.925	1	81	n/a	n/a	1	0	0
1568.125	1	81	n/a	n/a	1	0	0
1568.325	1	81	n/a	n/a	1	0	0
1568.525	1	81	n/a	n/a	1	0	0
1568.725	1	81	n/a	n/a	1	0	0
1568.925	1	81	n/a	n/a	1	0	0
1569.125	1	81	n/a	n/a	1	0	0
1569.325	1	81	n/a	n/a	1	0	0
1570.4558	1	10	350.3	350.3	1	51	1
1571.5058	1	10	276.2	276.2	1	51	2
1572.639	1	10	279	279	1	51	3
1573.7556	1	10	266.4	266.4	1	51	4
1574.8556	1	10	206.4	206.4	1	51	5
1576.1054	1	10	236.5	236.5	1	51	6
1577.2054	1	10	240.5	240.5	1	51	7
1578.3054	1	21	244.5	244.5	1	51	0
1579.5886	1	10	-99	-99	1	51	1
1580.8718	1	21	-99	-99	1	51	0
1582.1884	1	10	249.3	249.3	1	51	1
1583.4884	1	10	277.4	277.4	1	51	2
1584.605	1	10	344.8	344.8	1	51	3
1585.6716	1	10	270.2	270.2	1	51	4
1586.7382	1	10	227.5	227.5	1	51	5
1587.8048	1	21	216.8	216.8	1	51	0
1589.0214	1	10	296.2	296.2	1	51	1
1590.2546	1	10	295	295	1	51	2
1591.5546	1	10	307	307	1	51	3
1592.6212	1	10	328.3	328.3	1	51	4
1593.5196	1	81	n/a	n/a	1	0	0
1593.7196	1	81	n/a	n/a	1	0	0
1593.9196	1	81	n/a	n/a	1	0	0
1594.1196	1	81	n/a	n/a	1	0	0
1594.3196	1	81	n/a	n/a	1	0	0
1594.5196	1	81	n/a	n/a	1	0	0
1594.7196	1	81	n/a	n/a	1	0	0
1594.9196	1	81	n/a	n/a	1	0	0
1595.1196	1	81	n/a	n/a	1	0	0
1595.3196	1	81	n/a	n/a	1	0	0
1596.6876	1	10	309.9	309.9	1	51	1
1597.9708	1	21	-99	-99	1	51	0
1599.1874	1	10	241.9	241.9	1	51	1
1600.404	1	21	-99	-99	1	51	0
1601.4872	1	10	390.1	390.1	1	51	1
1602.6206	1	10	280.8	280.8	1	51	2
1603.6706	1	10	334.7	334.7	1	51	3
1604.7204	1	21	-99	-99	1	51	0
1605.7538	1	10	283.5	283.5	1	51	1
1607.087	1	10	294.3	294.3	1	51	2
1608.2036	1	10	313.7	313.7	1	51	3
1609.4534	1	10	263.6	263.6	1	51	4
1610.6534	1	10	263.7	263.7	1	51	5
1611.8534	1	21	279.8	279.8	1	51	0
1613.0032	1	10	233.8	233.8	1	51	1
1614.2698	1	10	279.1	279.1	1	51	2
1615.3698	1	10	299.2	299.2	1	51	3
1616.653	1	10	311.9	311.9	1	51	4
1617.7364	1	10	316.7	316.7	1	51	5
1618.7862	1	10	370.7	370.7	1	51	6
1619.7808	1	81	n/a	n/a	1	0	0
1619.9808	1	81	n/a	n/a	1	0	0
1620.1808	1	81	n/a	n/a	1	0	0
1620.3808	1	81	n/a	n/a	1	0	0
1620.5808	1	81	n/a	n/a	1	0	0
1620.7808	1	81	n/a	n/a	1	0	0
1620.9808	1	81	n/a	n/a	1	0	0
1621.1808	1	81	n/a	n/a	1	0	0
1621.3808	1	81	n/a	n/a	1	0	0
1621.5808	1	81	n/a	n/a	1	0	0
1622.786	1	10	338.8	338.8	1	51	1
1624.1026	1	10	318.2	318.2	1	51	2
1625.2026	1	10	306.2	306.2	1	51	3
1626.4192	1	10	353.6	353.6	1	51	4
1627.6524	1	10	304.3	304.3	1	51	5
1628.8856	1	21	-99	-99	1	51	0
1630.0522	1	10	272.4	272.4	1	51	1
1631.2356	1	21	-99	-99	1	51	0
1632.3022	1	10	278.5	278.5	1	51	1
1633.352	1	10	268.5	268.5	1	51	2
1634.5686	1	10	283.9	283.9	1	51	3
1635.7852	1	21	-99	-99	1	51	0
1637.0686	1	10	264	264	1	51	1
1638.2018	1	10	298.7	298.7	1	51	2
1639.3518	1	10	284.8	284.8	1	51	3
1640.5516	1	10	284.7	284.7	1	51	4
1641.8016	1	10	282.8	282.8	1	51	5
1643.0848	1	10	279.5	279.5	1	51	6
1644.3682	1	10	276.3	276.3	1	51	7
1645.6514	1	21	-99	-99	1	51	0
1646.437	1	81	n/a	n/a	1	0	0
1646.637	1	81	n/a	n/a	1	0	0
1646.837	1	81	n/a	n/a	1	0	0
1647.037	1	81	n/a	n/a	1	0	0
1647.237	1	81	n/a	n/a	1	0	0
1647.437	1	81	n/a	n/a	1	0	0
1647.637	1	81	n/a	n/a	1	0	0
1647.837	1	81	n/a	n/a	1	0	0
1648.037	1	81	n/a	n/a	1	0	0
1648.237	1	81	n/a	n/a	1	0	0
1649.3844	1	10	315.8	315.8	1	51	1
1650.5178	1	10	334.5	334.5	1	51	2
1651.651	1	10	369.1	369.1	1	51	3
1652.8176	1	10	258.5	258.5	1	51	4
1653.9508	1	10	277.3	277.3	1	51	5
1655.0842	1	21	-99	-99	1	51	0
1656.1508	1	10	253.4	253.4	1	51	1
1657.4506	1	10	345.4	345.4	1	51	2
1658.7006	1	10	263.4	263.4	1	51	3
1659.9838	1	10	308.2	308.2	1	51	4
1661.2672	1	10	272.9	272.9	1	51	5
1662.5338	1	10	254.2	254.2	1	51	6
1663.817	1	10	282.9	282.9	1	51	7
1665.1002	1	21	-99	-99	1	51	0
1666.2502	1	10	265.7	265.7	1	51	1
1667.3334	1	10	254.4	254.4	1	51	2
1668.4834	1	10	272.4	272.4	1	51	3
1669.5834	1	10	340.5	340.5	1	51	4
1670.8998	1	10	319.9	319.9	1	51	5
1672.1664	1	10	301.3	301.3	1	51	6
1683.5402	1	81	n/a	n/a	1	0	0
1683.7402	1	81	n/a	n/a	1	0	0
1683.9402	1	81	n/a	n/a	1	0	0
1684.1402	1	81	n/a	n/a	1	0	0
1684.3402	1	81	n/a	n/a	1	0	0
1684.5402	1	81	n/a	n/a	1	0	0
1684.7402	1	81	n/a	n/a	1	0	0
1684.9402	1	81	n/a	n/a	1	0	0
1685.1402	1	81	n/a	n/a	1	0	0
1685.3402	1	81	n/a	n/a	1	0	0
1686.549	1	10	366.4	366.4	1	50	1
1687.6656	1	21	-99	-99	1	50	0
1688.8822	1	10	1.1	1.1	1	50	1
1690.0988	1	21	-99	-99	1	50	0
1691.3488	1	10	222.6	222.6	1	50	1
1692.4486	1	10	290.7	290.7	1	50	2
1693.6986	1	10	272.6	272.6	1	50	3
1694.9484	1	21	-99	-99	1	50	0
1696.2484	1	10	266.8	266.8	1	50	1
1697.4316	1	10	267.5	267.5	1	50	2
1698.7316	1	10	311.6	311.6	1	50	3
1699.8816	1	10	249.6	249.6	1	50	4
1701.1482	1	10	262.9	262.9	1	50	5
1702.4148	1	21	-99	-99	1	50	0
1703.4814	1	10	249.7	249.7	1	50	1
1704.548	1	21	255.1	255.1	1	50	0
1705.7812	1	10	253.8	253.8	1	50	1
1706.9978	1	10	301.2	301.2	1	50	2
1708.0644	1	10	258.6	258.6	1	50	3
1709.331	1	10	335.9	335.9	1	50	4
1710.1434	1	81	n/a	n/a	1	0	0
1710.3434	1	81	n/a	n/a	1	0	0
1710.5434	1	81	n/a	n/a	1	0	0
1710.7434	1	81	n/a	n/a	1	0	0
1710.9434	1	81	n/a	n/a	1	0	0
1711.1434	1	81	n/a	n/a	1	0	0
1711.3434	1	81	n/a	n/a	1	0	0
1711.5434	1	81	n/a	n/a	1	0	0
1711.7434	1	81	n/a	n/a	1	0	0
1711.9434	1	81	n/a	n/a	1	0	0
1713.214	1	10	292.7	292.7	1	50	1
1714.3806	1	10	342.1	342.1	1	50	2
1715.464	1	10	362.8	362.8	1	50	3
1716.5472	1	21	-99	-99	1	50	0
1717.7972	1	10	221.6	221.6	1	50	1
1719.047	1	21	-99	-99	1	50	0
1720.097	1	10	289.7	289.7	1	50	1
1721.347	1	10	351.7	351.7	1	50	2
1722.6636	1	10	299.1	299.1	1	50	3
1723.7968	1	10	269.8	269.8	1	50	4
1725.03	1	10	284.5	284.5	1	50	5
1726.2634	1	21	283.2	283.2	1	50	0
1727.2966	1	10	257.9	257.9	1	50	1
1728.3298	1	21	-99	-99	1	50	0
1729.3798	1	10	270.7	270.7	1	50	1
1730.6464	1	10	268.1	268.1	1	50	2
1731.713	1	10	289.4	289.4	1	50	3
1732.9796	1	10	270.8	270.8	1	50	4
1734.1796	1	10	270.8	270.8	1	50	5
1735.3794	1	21	-99	-99	1	50	0
1736.1162	1	81	n/a	n/a	1	0	0
1736.3162	1	81	n/a	n/a	1	0	0
1736.5162	1	81	n/a	n/a	1	0	0
1736.7162	1	81	n/a	n/a	1	0	0
1736.9162	1	81	n/a	n/a	1	0	0
1737.1162	1	81	n/a	n/a	1	0	0
1737.3162	1	81	n/a	n/a	1	0	0
1737.5162	1	81	n/a	n/a	1	0	0
1737.7162	1	81	n/a	n/a	1	0	0
1737.9162	1	81	n/a	n/a	1	0	0
1739.1458	1	10	280.3	280.3	1	50	1
1740.2792	1	10	283.1	283.1	1	50	2
1741.3958	1	10	254.5	254.5	1	50	3
1742.6124	1	10	221.8	221.8	1	50	4
1743.8122	1	10	317.8	317.8	1	50	5
1745.0122	1	21	-99	-99	1	50	0
1746.2122	1	10	254	254	1	50	1
1747.4288	1	10	349.3	349.3	1	50	2
1748.6286	1	10	269.3	269.3	1	50	3
1749.8286	1	21	-99	-99	1	50	0
1750.9118	1	10	274.1	274.1	1	50	1
1751.9952	1	10	230.8	230.8	1	50	2
1753.1118	1	10	218.1	218.1	1	50	3
1754.2284	1	21	285.5	285.5	1	50	0
1755.2616	1	10	228.2	228.2	1	50	1
1756.2948	1	21	1211	1211	1	50	0
1757.5782	1	10	-99	-99	1	50	1
1758.7114	1	10	234.3	234.3	1	50	2
1759.7446	1	10	305.1	305.1	1	50	3
1761.0112	1	10	286.5	286.5	1	50	4
1761.7318	1	81	n/a	n/a	1	0	0
1761.9318	1	81	n/a	n/a	1	0	0
1762.1318	1	81	n/a	n/a	1	0	0
1762.3318	1	81	n/a	n/a	1	0	0
1762.5318	1	81	n/a	n/a	1	0	0
1762.7318	1	81	n/a	n/a	1	0	0
1762.9318	1	81	n/a	n/a	1	0	0
1763.1318	1	81	n/a	n/a	1	0	0
1763.3318	1	81	n/a	n/a	1	0	0
1763.5318	1	81	n/a	n/a	1	0	0
1764.9278	1	10	257.9	257.9	1	50	1
1766.011	1	10	294.6	294.6	1	50	2
1767.311	1	10	290.7	290.7	1	50	3
1768.6108	1	10	286.7	286.7	1	50	4
1769.7442	1	10	289.4	289.4	1	50	5
1770.8774	1	21	-99	-99	1	50	0
1772.044	1	10	245.5	245.5	1	50	1
1773.3272	1	10	338.3	338.3	1	50	2
1774.5604	1	10	256.9	256.9	1	50	3
1775.7938	1	21	-99	-99	1	50	0
1777.0436	1	10	189.7	189.7	1	50	1
1778.1936	1	10	383.8	383.8	1	50	2
1779.4768	1	10	252.4	252.4	1	50	3
1780.7268	1	10	266.5	266.5	1	50	4
1781.96	1	10	249.2	249.2	1	50	5
1783.1934	1	21	263.9	263.9	1	50	0
1784.36	1	10	233.3	233.3	1	50	1
1785.5266	1	21	-99	-99	1	50	0
1786.7432	1	10	282	282	1	50	1
1787.8098	1	10	303.4	303.4	1	50	2
1788.9132	1	81	n/a	n/a	1	0	0
1789.1132	1	81	n/a	n/a	1	0	0
1789.3132	1	81	n/a	n/a	1	0	0
1789.5132	1	81	n/a	n/a	1	0	0
1789.7132	1	81	n/a	n/a	1	0	0
1789.9132	1	81	n/a	n/a	1	0	0
1790.1132	1	81	n/a	n/a	1	0	0
1790.3132	1	81	n/a	n/a	1	0	0
1790.5132	1	81	n/a	n/a	1	0	0
1790.7132	1	81	n/a	n/a	1	0	0
1791.9262	1	10	298.9	298.9	1	50	1
1793.176	1	10	313	313	1	50	2
1794.226	1	10	287	287	1	50	3
1795.2592	1	10	309.6	309.6	1	50	4
1796.3758	1	10	281	281	1	50	5
1797.4924	1	21	-99	-99	1	50	0
1798.5258	1	10	227.2	227.2	1	50	1
1799.709	1	10	355.9	355.9	1	50	2
1801.0256	1	10	255.2	255.2	1	50	3
1802.3422	1	21	-99	-99	1	50	0
1803.3754	1	10	289.3	289.3	1	50	1
1804.4254	1	21	391.4	391.4	1	50	0
1805.5086	1	10	60.1	60.1	1	50	1
1806.592	1	21	-99	-99	1	50	0
1807.6752	1	10	261.5	261.5	1	50	1
1808.8418	1	10	262.9	262.9	1	50	2
1810.0084	1	10	296.3	296.3	1	50	3
1811.325	1	10	323.6	323.6	1	50	4
1812.375	1	10	377.6	377.6	1	50	5
1813.4082	1	10	304.3	304.3	1	50	6
1830.2724	1	82	n/a	n/a	1	0	0
1830.5924	1	82	n/a	n/a	1	0	0
1830.6594	1	82	n/a	n/a	1	0	0
1830.9454	1	82	n/a	n/a	1	0	0
1831.1004	1	82	n/a	n/a	1	0	0
1831.2724	1	82	n/a	n/a	1	0	0
1831.4304	1	82	n/a	n/a	1	0	0
1831.4654	1	82	n/a	n/a	1	0	0
1831.5434	1	82	n/a	n/a	1	0	0
1831.8064	1	82	n/a	n/a	1	0	0
1833.1904	1	10	425.7	425.7	1	52	1
1834.3736	1	10	266.4	266.4	1	52	2
1835.607	1	10	297.2	297.2	1	52	3
1836.7402	1	10	251.9	251.9	1	52	4
1837.7734	1	10	322.5	322.5	1	52	5
1839.0234	1	10	288.6	288.6	1	52	6
1840.1734	1	10	322.6	322.6	1	52	7
1841.3232	1	21	-99	-99	1	52	0
1842.5566	1	10	243.4	243.4	1	52	1
1843.7064	1	10	325.4	325.4	1	52	2
1844.7898	1	10	282.1	282.1	1	52	3
1845.8564	1	10	255.5	255.5	1	52	4
1847.1228	1	10	284.8	284.8	1	52	5
1848.3894	1	21	-99	-99	1	52	0
1849.4228	1	10	256.9	256.9	1	52	1
1850.7394	1	10	284.3	284.3	1	52	2
1851.8726	1	10	335.1	335.1	1	52	3
1853.1892	1	10	266.5	266.5	1	52	4
1854.4058	1	10	249.8	249.8	1	52	5
1855.6224	1	21	-99	-99	1	52	0
1856.6752	1	82	n/a	n/a	1	0	0
1856.7082	1	82	n/a	n/a	1	0	0
1857.1002	1	82	n/a	n/a	1	0	0
1857.4532	1	82	n/a	n/a	1	0	0
1857.5562	1	82	n/a	n/a	1	0	0
1857.6752	1	82	n/a	n/a	1	0	0
1857.9112	1	82	n/a	n/a	1	0	0
1857.9632	1	82	n/a	n/a	1	0	0
1858.1642	1	82	n/a	n/a	1	0	0
1858.2472	1	82	n/a	n/a	1	0	0
1859.6222	1	10	249.3	249.3	1	52	1
1860.922	1	10	437.4	437.4	1	52	2
1861.9554	1	10	300.1	300.1	1	52	3
1863.2552	1	10	280.2	280.2	1	52	4
1864.5718	1	10	275.5	275.5	1	52	5
1865.8384	1	10	240.9	240.9	1	52	6
1867.0718	1	10	255.6	255.6	1	52	7
1868.305	1	21	-99	-99	1	52	0
1869.6216	1	10	249.7	249.7	1	52	1
1870.7216	1	10	285.8	285.8	1	52	2
1871.9382	1	10	269.1	269.1	1	52	3
1873.1548	1	21	-99	-99	1	52	0
1874.4046	1	10	266.6	266.6	1	52	1
1875.6378	1	10	265.2	265.2	1	52	2
1876.7044	1	10	350.6	350.6	1	52	3
1877.7712	1	10	228	228	1	52	4
1879.0376	1	10	289.4	289.4	1	52	5
1880.3042	1	21	-99	-99	1	52	0
1881.6208	1	10	234.1	234.1	1	52	1
1882.6874	1	10	367.5	367.5	1	52	2
1883.769	1	82	n/a	n/a	1	0	0
1883.812	1	82	n/a	n/a	1	0	0
1884.212	1	82	n/a	n/a	1	0	0
1884.431	1	82	n/a	n/a	1	0	0
1884.693	1	82	n/a	n/a	1	0	0
1884.769	1	82	n/a	n/a	1	0	0
1885.032	1	82	n/a	n/a	1	0	0
1885.46	1	82	n/a	n/a	1	0	0
1885.525	1	82	n/a	n/a	1	0	0
1885.641	1	82	n/a	n/a	1	0	0
1886.7872	1	10	267.6	267.6	1	52	1
1887.9872	1	10	251.7	251.7	1	52	2
1889.0704	1	10	384.4	384.4	1	52	3
1890.137	1	10	245.8	245.8	1	52	4
1891.437	1	10	273.8	273.8	1	52	5
1892.7368	1	21	-99	-99	1	52	0
1893.8368	1	10	161.9	161.9	1	52	1
1894.9368	1	21	-99	-99	1	52	0
1896.02	1	10	234.7	234.7	1	52	1
1897.1366	1	10	254	254	1	52	2
1898.4032	1	10	251.4	251.4	1	52	3
1899.6532	1	10	281.5	281.5	1	52	4
1900.8198	1	10	330.9	330.9	1	52	5
1902.1364	1	10	310.2	310.2	1	52	6
1903.453	1	10	273.6	273.6	1	52	7
1904.7696	1	21	-99	-99	1	52	0
1905.8028	1	10	243.7	243.7	1	52	1
1906.8528	1	21	-99	-99	1	52	0
1908.0194	1	10	219.1	219.1	1	52	1
1909.186	1	21	204.5	204.5	1	52	0
1910.1174	1	82	n/a	n/a	1	0	0
1910.2554	1	82	n/a	n/a	1	0	0
1910.2814	1	82	n/a	n/a	1	0	0
1910.4704	1	82	n/a	n/a	1	0	0
1910.5284	1	82	n/a	n/a	1	0	0
1911.1174	1	82	n/a	n/a	1	0	0
1911.2244	1	82	n/a	n/a	1	0	0
1911.2644	1	82	n/a	n/a	1	0	0
1911.4714	1	82	n/a	n/a	1	0	0
1911.7994	1	82	n/a	n/a	1	0	0
1913.2024	1	10	331.9	331.9	1	52	1
1914.4022	1	21	284	284	1	52	0
1915.5188	1	10	255.4	255.4	1	52	1
1916.6354	1	21	-99	-99	1	52	0
1917.9354	1	10	270.8	270.8	1	52	1
1919.0354	1	10	258.8	258.8	1	52	2
1920.302	1	10	192.2	192.2	1	52	3
1921.4352	1	10	226.9	226.9	1	52	4
1922.7518	1	10	286.3	286.3	1	52	5
1923.8184	1	10	291.6	291.6	1	52	6
1925.035	1	10	291	291	1	52	7
1926.2516	1	21	-99	-99	1	52	0
1927.5016	1	10	96.5	96.5	1	52	1
1928.8182	1	10	395.8	395.8	1	52	2
1929.9848	1	10	221.2	221.2	1	52	3
1931.2014	1	10	268.6	268.6	1	52	4
1932.2346	1	10	323.3	323.3	1	52	5
1933.3178	1	10	312	312	1	52	6
1934.5344	1	10	311.3	311.3	1	52	7
1935.751	1	21	-99	-99	1	52	0
1936.8518	1	82	n/a	n/a	1	0	0
1936.8978	1	82	n/a	n/a	1	0	0
1937.1678	1	82	n/a	n/a	1	0	0
1937.6068	1	82	n/a	n/a	1	0	0
1937.7048	1	82	n/a	n/a	1	0	0
1937.8526	1	82	n/a	n/a	1	0	0
1937.9596	1	82	n/a	n/a	1	0	0
1938.0006	1	82	n/a	n/a	1	0	0
1938.1716	1	82	n/a	n/a	1	0	0
1938.5606	1	82	n/a	n/a	1	0	0
1939.8008	1	10	324.9	324.9	1	52	1
1940.8508	1	21	298.9	298.9	1	52	0
1942.084	1	10	89.7	89.7	1	52	1
1943.3172	1	21	-99	-99	1	52	0
1944.6338	1	10	323.7	323.7	1	52	1
1945.7172	1	10	424.4	424.4	1	52	2
1946.9004	1	10	265.2	265.2	1	52	3
1948.0836	1	21	-99	-99	1	52	0
1949.2836	1	10	250	250	1	52	1
1950.3168	1	10	352.6	352.6	1	52	2
1951.6002	1	10	301.3	301.3	1	52	3
1952.85	1	10	283.4	283.4	1	52	4
1953.95	1	10	319.4	319.4	1	52	5
1955.05	1	21	-99	-99	1	52	0
1956.1332	1	10	296.1	296.1	1	52	1
1957.2998	1	10	537.5	537.5	1	52	2
1958.583	1	10	294.3	294.3	1	52	3
1959.833	1	10	308.3	308.3	1	52	4
1960.9496	1	10	295.6	295.6	1	52	5
1962.0662	1	21	-99	-99	1	52	0
