onset	duration	value	response	rt	good	TMS	delta	fixed	seq
102.675	1	81	n/a	n/a	1	0	0	0	0
102.875	1	81	n/a	n/a	1	0	0	0	0
103.075	1	81	n/a	n/a	1	0	0	0	0
103.275	1	81	n/a	n/a	1	0	0	0	0
103.475	1	81	n/a	n/a	1	0	0	0	0
103.675	1	81	n/a	n/a	1	0	0	0	0
103.875	1	81	n/a	n/a	1	0	0	0	0
104.075	1	81	n/a	n/a	1	0	0	0	0
104.275	1	81	n/a	n/a	1	0	0	0	0
104.475	1	81	n/a	n/a	1	0	0	0	0
105.8708	1	10	n/a	n/a	1	51	0	0	1
107.0374	1	10	n/a	n/a	1	51	0	0	2
108.1706	1	10	n/a	n/a	1	51	0	0	3
109.4038	1	10	n/a	n/a	1	51	-0.1	0	4
110.5872	1	10	n/a	n/a	1	51	0.1	0	5
111.737	1	10	n/a	n/a	1	51	-0.1	0	6
112.8704	1	10	n/a	n/a	1	51	0.1	0	7
114.0036	1	21	n/a	n/a	1	51	-0.1	0	0
115.1702	1	10	n/a	n/a	1	51	-1.4552e-11	0	1
116.47	1	10	n/a	n/a	1	51	-0.1	0	2
117.5534	1	10	n/a	n/a	1	51	0.1	0	3
118.6866	1	10	n/a	n/a	1	51	1.4552e-11	0	4
119.7866	1	10	n/a	n/a	1	51	0	0	5
120.9032	1	10	n/a	n/a	1	51	-1.4552e-11	0	6
122.0864	1	10	n/a	n/a	1	51	0	0	7
123.2696	1	21	n/a	n/a	1	51	-0.1	0	0
124.4862	1	10	n/a	n/a	1	51	0	0	1
125.7862	1	10	n/a	n/a	1	51	0.1	0	2
126.8694	1	10	n/a	n/a	1	51	-0.1	0	3
128.1028	1	10	n/a	n/a	1	51	0.1	0	4
129.0254	1	81	n/a	n/a	1	0	-0.1	0	0
129.2254	1	81	n/a	n/a	1	0	0	0	0
129.4254	1	81	n/a	n/a	1	0	0	0	0
129.6254	1	81	n/a	n/a	1	0	0	0	0
129.8254	1	81	n/a	n/a	1	0	0	0	0
130.0254	1	81	n/a	n/a	1	0	0	0	0
130.2254	1	81	n/a	n/a	1	0	0	0	0
130.4254	1	81	n/a	n/a	1	0	0	0	0
130.6254	1	81	n/a	n/a	1	0	0	0	0
130.8254	1	81	n/a	n/a	1	0	0	0	0
132.0024	1	10	n/a	n/a	1	51	-0.1	0	1
133.0858	1	21	n/a	n/a	1	51	0.2	0	0
134.319	1	10	n/a	n/a	1	51	-0.1	0	1
135.6022	1	10	n/a	n/a	1	51	-0.1	0	2
136.6688	1	10	n/a	n/a	1	51	-2.9104e-11	0	3
137.7522	1	21	n/a	n/a	1	51	17.9	0	0
138.8688	1	10	n/a	n/a	1	51	-17.7	0	1
140.0354	1	10	n/a	n/a	1	51	2.9104e-11	0	2
141.102	1	10	n/a	n/a	1	51	0	0	3
142.2186	1	10	n/a	n/a	1	51	-0.1	0	4
143.4518	1	10	n/a	n/a	1	51	-2.9104e-11	0	5
144.6518	1	10	n/a	n/a	1	51	0	0	6
145.7016	1	10	n/a	n/a	1	51	-0.1	0	7
146.7516	1	21	n/a	n/a	1	51	0.1	0	0
148.0182	1	10	n/a	n/a	1	51	-2.9104e-11	0	1
149.2848	1	21	n/a	n/a	1	51	0	0	0
150.368	1	10	n/a	n/a	1	51	-0.1	0	1
151.4514	1	21	n/a	n/a	1	51	0.1	0	0
152.7512	1	10	n/a	n/a	1	51	-0.1	0	1
154.0678	1	10	n/a	n/a	1	51	-2.9104e-11	0	2
155.0386	1	81	n/a	n/a	1	0	0.1	0	0
155.2386	1	81	n/a	n/a	1	0	0	0	0
155.4386	1	81	n/a	n/a	1	0	0	0	0
155.6386	1	81	n/a	n/a	1	0	0	0	0
155.8386	1	81	n/a	n/a	1	0	0	0	0
156.0386	1	81	n/a	n/a	1	0	0	0	0
156.2386	1	81	n/a	n/a	1	0	0	0	0
156.4386	1	81	n/a	n/a	1	0	0	0	0
156.6386	1	81	n/a	n/a	1	0	0	0	0
156.8386	1	81	n/a	n/a	1	0	0	0	0
157.9676	1	10	n/a	n/a	1	51	-0.1	0	1
159.1176	1	10	n/a	n/a	1	51	0.1	0	2
160.2674	1	10	n/a	n/a	1	51	-0.2	0	3
161.4508	1	10	n/a	n/a	1	51	18	0	4
162.6674	1	10	n/a	n/a	1	51	-17.8	0	5
163.9172	1	21	n/a	n/a	1	51	-0.2	0	0
165.1172	1	10	n/a	n/a	1	51	0.1	0	1
166.3172	1	10	n/a	n/a	1	51	0.1	0	2
167.3504	1	10	n/a	n/a	1	51	-0.1	0	3
168.3836	1	21	n/a	n/a	1	51	-0.1	0	0
169.4836	1	10	n/a	n/a	1	51	0.1	0	1
170.5836	1	21	n/a	n/a	1	51	0.1	0	0
171.8668	1	10	n/a	n/a	1	51	-0.1	0	1
173.15	1	21	n/a	n/a	1	51	-0.1	0	0
174.2666	1	10	n/a	n/a	1	51	2.9104e-11	0	1
175.3332	1	10	n/a	n/a	1	51	0	0	2
176.4332	1	10	n/a	n/a	1	51	0.1	0	3
177.5664	1	10	n/a	n/a	1	51	-0.1	0	4
178.7498	1	10	n/a	n/a	1	51	0.1	0	5
179.8664	1	10	n/a	n/a	1	51	0	0	6
180.6868	1	81	n/a	n/a	1	0	0	0	0
180.8868	1	81	n/a	n/a	1	0	0	0	0
181.0868	1	81	n/a	n/a	1	0	0	0	0
181.2868	1	81	n/a	n/a	1	0	0	0	0
181.4868	1	81	n/a	n/a	1	0	0	0	0
181.6868	1	81	n/a	n/a	1	0	0	0	0
181.8868	1	81	n/a	n/a	1	0	0	0	0
182.0868	1	81	n/a	n/a	1	0	0	0	0
182.2868	1	81	n/a	n/a	1	0	0	0	0
182.4868	1	81	n/a	n/a	1	0	0	0	0
183.866	1	10	n/a	n/a	1	51	-0.1	0	1
184.9994	1	10	n/a	n/a	1	51	0.1	0	2
186.216	1	10	n/a	n/a	1	51	2.9104e-11	0	3
187.3492	1	10	n/a	n/a	1	51	-0.1	0	4
188.4324	1	10	n/a	n/a	1	51	-0.1	0	5
189.5158	1	21	n/a	n/a	1	51	0.2	0	0
190.8156	1	10	n/a	n/a	1	51	-0.2	0	1
192.1322	1	10	n/a	n/a	1	51	0	0	2
193.1656	1	10	n/a	n/a	1	51	0.2	0	3
194.4822	1	10	n/a	n/a	1	51	2.9104e-11	0	4
195.5488	1	10	n/a	n/a	1	51	-2.9104e-11	0	5
196.6154	1	21	n/a	n/a	1	51	0	0	0
197.8152	1	10	n/a	n/a	1	51	-0.2	0	1
198.9986	1	10	n/a	n/a	1	51	0.2	0	2
200.1152	1	10	n/a	n/a	1	51	2.9104e-11	0	3
201.3984	1	10	n/a	n/a	1	51	-0.1	0	4
202.715	1	10	n/a	n/a	1	51	-2.9104e-11	0	5
203.7648	1	10	n/a	n/a	1	51	-0.1	0	6
204.8648	1	10	n/a	n/a	1	51	0	0	7
205.9648	1	21	n/a	n/a	1	51	0.1	0	0
206.9344	1	81	n/a	n/a	1	0	-0.1	0	0
207.1344	1	81	n/a	n/a	1	0	0	0	0
207.3344	1	81	n/a	n/a	1	0	0	0	0
207.5344	1	81	n/a	n/a	1	0	0	0	0
207.7344	1	81	n/a	n/a	1	0	0	0	0
207.9344	1	81	n/a	n/a	1	0	0	0	0
208.1344	1	81	n/a	n/a	1	0	0	0	0
208.3344	1	81	n/a	n/a	1	0	0	0	0
208.5344	1	81	n/a	n/a	1	0	0	0	0
208.7344	1	81	n/a	n/a	1	0	0	0	0
209.8812	1	10	n/a	n/a	1	51	2.9104e-11	0	1
211.1144	1	10	n/a	n/a	1	51	-2.9104e-11	0	2
212.181	1	10	n/a	n/a	1	51	2.9104e-11	0	3
213.4976	1	10	n/a	n/a	1	51	0	0	4
214.7142	1	10	n/a	n/a	1	51	0	0	5
215.9308	1	21	n/a	n/a	1	51	0	0	0
217.1308	1	10	n/a	n/a	1	51	0	0	1
218.3306	1	21	n/a	n/a	1	51	-0.1	0	0
219.564	1	10	n/a	n/a	1	51	0.1	0	1
220.7972	1	10	n/a	n/a	1	51	0	0	2
222.0972	1	10	n/a	n/a	1	51	0	0	3
223.347	1	10	n/a	n/a	1	51	-0.1	0	4
224.647	1	10	n/a	n/a	1	51	0.1	0	5
225.9468	1	21	n/a	n/a	1	51	-0.2	0	0
227.1468	1	10	n/a	n/a	1	51	0.1	0	1
228.2134	1	10	n/a	n/a	1	51	2.9104e-11	0	2
229.2968	1	10	n/a	n/a	1	51	0.1	0	3
230.5132	1	10	n/a	n/a	1	51	-0.2	0	4
231.7632	1	10	n/a	n/a	1	51	0.1	0	5
233.0132	1	21	n/a	n/a	1	51	0.1	0	0
241.3028	1	82	n/a	n/a	1	0	-0.1	0	0
241.5408	1	82	n/a	n/a	1	0	0	0	0
241.8868	1	82	n/a	n/a	1	0	0	0	0
241.9848	1	82	n/a	n/a	1	0	0	0	0
242.1118	1	82	n/a	n/a	1	0	0	0	0
242.3028	1	82	n/a	n/a	1	0	0	0	0
242.5738	1	82	n/a	n/a	1	0	0	0	0
242.6228	1	82	n/a	n/a	1	0	0	0	0
242.7198	1	82	n/a	n/a	1	0	0	0	0
243.0288	1	82	n/a	n/a	1	0	0	0	0
244.3792	1	10	n/a	n/a	1	50	2.9104e-11	0	1
245.679	1	10	n/a	n/a	1	50	-0.1	0	2
246.9624	1	10	n/a	n/a	1	50	0.1	0	3
248.129	1	10	n/a	n/a	1	50	0	0	4
249.3456	1	10	n/a	n/a	1	50	2.9104e-11	0	5
250.4788	1	10	n/a	n/a	1	50	-2.9104e-11	0	6
251.7286	1	10	n/a	n/a	1	50	-0.2	0	7
252.9786	1	21	n/a	n/a	1	50	0.1	0	0
254.2618	1	10	n/a	n/a	1	50	-0.1	0	1
255.4452	1	10	n/a	n/a	1	50	0.2	0	2
256.7618	1	10	n/a	n/a	1	50	-2.9104e-11	0	3
257.9284	1	10	n/a	n/a	1	50	0	0	4
259.1782	1	10	n/a	n/a	1	50	-0.1	0	5
260.4282	1	21	n/a	n/a	1	50	0	0	0
261.6614	1	10	n/a	n/a	1	50	-2.9104e-11	0	1
262.9446	1	10	n/a	n/a	1	50	-0.1	0	2
264.228	1	10	n/a	n/a	1	50	0.1	0	3
265.5112	1	21	n/a	n/a	1	50	0	0	0
266.6944	1	10	n/a	n/a	1	50	-0.1	0	1
267.8778	1	21	n/a	n/a	1	50	0.1	0	0
268.9324	1	82	n/a	n/a	1	0	-0.1	0	0
268.9604	1	82	n/a	n/a	1	0	0	0	0
269.2064	1	82	n/a	n/a	1	0	0	0	0
269.6414	1	82	n/a	n/a	1	0	0	0	0
269.7834	1	82	n/a	n/a	1	0	0	0	0
269.9324	1	82	n/a	n/a	1	0	0	0	0
270.2844	1	82	n/a	n/a	1	0	0	0	0
270.5414	1	82	n/a	n/a	1	0	0	0	0
270.6104	1	82	n/a	n/a	1	0	0	0	0
270.7274	1	82	n/a	n/a	1	0	0	0	0
271.9442	1	10	n/a	n/a	1	50	0.1	0	1
273.0774	1	21	n/a	n/a	1	50	17.7	0	0
274.194	1	10	n/a	n/a	1	50	-17.8	0	1
275.294	1	10	n/a	n/a	1	50	0.1	0	2
276.4606	1	10	n/a	n/a	1	50	0	0	3
277.6604	1	10	n/a	n/a	1	50	-0.2	0	4
278.877	1	10	n/a	n/a	1	50	-5.8208e-11	0	5
280.0604	1	10	n/a	n/a	1	50	0.2	0	6
281.1102	1	10	n/a	n/a	1	50	-0.2	0	7
282.1602	1	21	n/a	n/a	1	50	0.1	0	0
283.3268	1	10	n/a	n/a	1	50	0	0	1
284.66	1	10	n/a	n/a	1	50	-0.1	0	2
285.96	1	10	n/a	n/a	1	50	0.1	0	3
287.0932	1	10	n/a	n/a	1	50	-0.1	0	4
288.1266	1	10	n/a	n/a	1	50	0.2	0	5
289.1598	1	21	n/a	n/a	1	50	-0.1	0	0
290.3098	1	10	n/a	n/a	1	50	0	0	1
291.593	1	10	n/a	n/a	1	50	17.7	0	2
292.8096	1	10	n/a	n/a	1	50	-17.7	0	3
293.9096	1	10	n/a	n/a	1	50	0	0	4
294.689	1	82	n/a	n/a	1	0	-0.1	0	0
295.094	1	82	n/a	n/a	1	0	0	0	0
295.245	1	82	n/a	n/a	1	0	0	0	0
295.514	1	82	n/a	n/a	1	0	0	0	0
295.631	1	82	n/a	n/a	1	0	0	0	0
295.689	1	82	n/a	n/a	1	0	0	0	0
295.971	1	82	n/a	n/a	1	0	0	0	0
296.388	1	82	n/a	n/a	1	0	0	0	0
296.457	1	82	n/a	n/a	1	0	0	0	0
296.501	1	82	n/a	n/a	1	0	0	0	0
297.6426	1	10	n/a	n/a	1	50	0	0	1
298.7092	1	21	n/a	n/a	1	50	5.8208e-11	0	0
299.9092	1	10	n/a	n/a	1	50	0.1	0	1
301.1258	1	10	n/a	n/a	1	50	0	0	2
302.409	1	10	n/a	n/a	1	50	-0.1	0	3
303.5422	1	10	n/a	n/a	1	50	-0.1	0	4
304.6588	1	10	n/a	n/a	1	50	0	0	5
305.8422	1	10	n/a	n/a	1	50	0.2	0	6
306.992	1	10	n/a	n/a	1	50	-0.2	0	7
308.142	1	21	n/a	n/a	1	50	0.1	0	0
309.2086	1	10	n/a	n/a	1	50	0	0	1
310.2586	1	10	n/a	n/a	1	50	0.1	0	2
311.5752	1	10	n/a	n/a	1	50	5.8208e-11	0	3
312.8918	1	21	n/a	n/a	1	50	0	0	0
314.0084	1	10	n/a	n/a	1	50	0	0	1
315.1416	1	10	n/a	n/a	1	50	-0.1	0	2
316.4248	1	10	n/a	n/a	1	50	-0.1	0	3
317.6748	1	10	n/a	n/a	1	50	0.1	0	4
318.8746	1	10	n/a	n/a	1	50	-0.1	0	5
320.0746	1	21	n/a	n/a	1	50	0	0	0
321.0124	1	82	n/a	n/a	1	0	0.1	0	0
321.1184	1	82	n/a	n/a	1	0	0	0	0
321.1644	1	82	n/a	n/a	1	0	0	0	0
321.5064	1	82	n/a	n/a	1	0	0	0	0
321.5294	1	82	n/a	n/a	1	0	0	0	0
322.0124	1	82	n/a	n/a	1	0	0	0	0
322.0984	1	82	n/a	n/a	1	0	0	0	0
322.4914	1	82	n/a	n/a	1	0	0	0	0
322.5544	1	82	n/a	n/a	1	0	0	0	0
322.8224	1	82	n/a	n/a	1	0	0	0	0
324.0744	1	10	n/a	n/a	1	50	0	0	1
325.3576	1	10	n/a	n/a	1	50	-0.1	0	2
326.5576	1	10	n/a	n/a	1	50	0.1	0	3
327.7408	1	10	n/a	n/a	1	50	-0.1	0	4
328.9408	1	10	n/a	n/a	1	50	0.1	0	5
329.974	1	10	n/a	n/a	1	50	-0.1	0	6
331.024	1	10	n/a	n/a	1	50	0	0	7
332.074	1	21	n/a	n/a	1	50	0.1	0	0
333.2072	1	10	n/a	n/a	1	50	-0.1	0	1
334.3404	1	21	n/a	n/a	1	50	0	0	0
335.3738	1	10	n/a	n/a	1	50	0.1	0	1
336.407	1	21	n/a	n/a	1	50	-0.1	0	0
337.5402	1	10	n/a	n/a	1	50	-0.1	0	1
338.6736	1	21	n/a	n/a	1	50	0.2	0	0
339.7234	1	10	n/a	n/a	1	50	-0.2	0	1
340.7734	1	21	n/a	n/a	1	50	0.1	0	0
341.99	1	10	n/a	n/a	1	50	0	0	1
343.1732	1	10	n/a	n/a	1	50	-0.1	0	2
344.4398	1	10	n/a	n/a	1	50	0.1	0	3
345.7064	1	21	n/a	n/a	1	50	-0.1	0	0
346.6212	1	82	n/a	n/a	1	0	0.1	0	0
346.8452	1	82	n/a	n/a	1	0	0	0	0
346.9792	1	82	n/a	n/a	1	0	0	0	0
347.3532	1	82	n/a	n/a	1	0	0	0	0
347.4502	1	82	n/a	n/a	1	0	0	0	0
347.6212	1	82	n/a	n/a	1	0	0	0	0
347.9362	1	82	n/a	n/a	1	0	0	0	0
348.2822	1	82	n/a	n/a	1	0	0	0	0
348.4012	1	82	n/a	n/a	1	0	0	0	0
348.4492	1	82	n/a	n/a	1	0	0	0	0
349.8062	1	10	n/a	n/a	1	50	-0.1	0	1
350.9894	1	10	n/a	n/a	1	50	0	0	2
352.0728	1	10	n/a	n/a	1	50	0.1	0	3
353.156	1	21	n/a	n/a	1	50	-0.1	0	0
354.2726	1	10	n/a	n/a	1	50	-5.8208e-11	0	1
355.4726	1	10	n/a	n/a	1	50	0.1	0	2
356.7724	1	10	n/a	n/a	1	50	-0.1	0	3
358.0724	1	21	n/a	n/a	1	50	0	0	0
359.3222	1	10	n/a	n/a	1	50	-0.1	0	1
360.3888	1	10	n/a	n/a	1	50	0	0	2
361.7054	1	10	n/a	n/a	1	50	5.8208e-11	0	3
363.022	1	21	n/a	n/a	1	50	-5.8208e-11	0	0
364.1054	1	10	n/a	n/a	1	50	0.1	0	1
365.2386	1	10	n/a	n/a	1	50	-5.8208e-11	0	2
366.5552	1	10	n/a	n/a	1	50	5.8208e-11	0	3
367.8718	1	10	n/a	n/a	1	50	-5.8208e-11	0	4
369.0884	1	10	n/a	n/a	1	50	5.8208e-11	0	5
370.3716	1	10	n/a	n/a	1	50	-0.1	0	6
371.4882	1	10	n/a	n/a	1	50	0	0	7
372.6048	1	21	n/a	n/a	1	50	0	0	0
385.0266	1	82	n/a	n/a	1	0	0.1	0	0
385.0896	1	82	n/a	n/a	1	0	0	0	0
385.1896	1	82	n/a	n/a	1	0	0	0	0
385.3126	1	82	n/a	n/a	1	0	0	0	0
385.6926	1	82	n/a	n/a	1	0	0	0	0
386.0266	1	82	n/a	n/a	1	0	-0.1	0	0
386.0936	1	82	n/a	n/a	1	0	0	0	0
386.4766	1	82	n/a	n/a	1	0	0	0	0
386.6506	1	82	n/a	n/a	1	0	0	0	0
386.7946	1	82	n/a	n/a	1	0	0	0	0
388.1872	1	10	n/a	n/a	1	52	-0.1	0	1
389.4538	1	21	n/a	n/a	1	52	0	0	0
390.637	1	10	n/a	n/a	1	52	0	0	1
391.8204	1	21	n/a	n/a	1	52	0.1	0	0
393.1202	1	10	n/a	n/a	1	52	-0.1	0	1
394.4202	1	21	n/a	n/a	1	52	0	0	0
395.6534	1	10	n/a	n/a	1	52	0	0	1
396.97	1	10	n/a	n/a	1	52	0	0	2
398.22	1	10	n/a	n/a	1	52	0.1	0	3
399.5198	1	10	n/a	n/a	1	52	-0.2	0	4
400.6198	1	10	n/a	n/a	1	52	0.1	0	5
401.753	1	10	n/a	n/a	1	52	-0.1	0	6
402.8364	1	10	n/a	n/a	1	52	0.1	0	7
403.9196	1	21	n/a	n/a	1	52	-5.8208e-11	0	0
405.0196	1	10	n/a	n/a	1	52	0	0	1
406.2694	1	10	n/a	n/a	1	52	-0.1	0	2
407.336	1	10	n/a	n/a	1	52	-5.8208e-11	0	3
408.586	1	10	n/a	n/a	1	52	0.1	0	4
409.6692	1	10	n/a	n/a	1	52	17.7	0	5
410.7026	1	21	n/a	n/a	1	52	-17.7	0	0
411.6242	1	82	n/a	n/a	1	0	-0.1	0	0
411.7072	1	82	n/a	n/a	1	0	0	0	0
411.8672	1	82	n/a	n/a	1	0	0	0	0
412.1282	1	82	n/a	n/a	1	0	0	0	0
412.4302	1	82	n/a	n/a	1	0	0	0	0
412.6242	1	82	n/a	n/a	1	0	0	0	0
412.8662	1	82	n/a	n/a	1	0	0	0	0
412.9852	1	82	n/a	n/a	1	0	0	0	0
413.0512	1	82	n/a	n/a	1	0	0	0	0
413.4852	1	82	n/a	n/a	1	0	-5.8208e-11	0	0
414.569	1	10	n/a	n/a	1	52	0.1	0	1
415.619	1	21	n/a	n/a	1	52	0	0	0
416.7522	1	10	n/a	n/a	1	52	-0.1	0	1
418.0188	1	10	n/a	n/a	1	52	0	0	2
419.1354	1	10	n/a	n/a	1	52	5.8208e-11	0	3
420.2354	1	10	n/a	n/a	1	52	0.1	0	4
421.402	1	10	n/a	n/a	1	52	0	0	5
422.4852	1	10	n/a	n/a	1	52	-0.1	0	6
423.6018	1	10	n/a	n/a	1	52	0	0	7
424.7184	1	21	n/a	n/a	1	52	5.8208e-11	0	0
425.785	1	10	n/a	n/a	1	52	-5.8208e-11	0	1
427.1016	1	10	n/a	n/a	1	52	0	0	2
428.3016	1	10	n/a	n/a	1	52	0.1	0	3
429.5514	1	10	n/a	n/a	1	52	-0.1	0	4
430.8846	1	10	n/a	n/a	1	52	17.7	0	5
432.168	1	21	n/a	n/a	1	52	-17.7	0	0
433.3178	1	10	n/a	n/a	1	52	-0.1	0	1
434.3844	1	10	n/a	n/a	1	52	0	0	2
435.451	1	10	n/a	n/a	1	52	1.1	0	3
436.5176	1	10	n/a	n/a	1	52	-1.1	0	4
437.2654	1	82	n/a	n/a	1	0	5.8208e-11	0	0
437.5204	1	82	n/a	n/a	1	0	0	0	0
437.6594	1	82	n/a	n/a	1	0	0	0	0
437.7604	1	82	n/a	n/a	1	0	0	0	0
438.1544	1	82	n/a	n/a	1	0	0	0	0
438.2654	1	82	n/a	n/a	1	0	0	0	0
438.4334	1	82	n/a	n/a	1	0	0	0	0
438.4804	1	82	n/a	n/a	1	0	0	0	0
438.6744	1	82	n/a	n/a	1	0	0	0	0
438.9064	1	82	n/a	n/a	1	0	0	0	0
440.3008	1	10	n/a	n/a	1	52	0	0	1
441.4508	1	21	n/a	n/a	1	52	0.1	0	0
442.584	1	10	n/a	n/a	1	52	-0.1	0	1
443.734	1	10	n/a	n/a	1	52	0.1	0	2
444.8672	1	10	n/a	n/a	1	52	-0.1	0	3
445.9838	1	10	n/a	n/a	1	52	0	0	4
447.2838	1	10	n/a	n/a	1	52	0.1	0	5
448.3504	1	10	n/a	n/a	1	52	5.8208e-11	0	6
449.467	1	10	n/a	n/a	1	52	-5.8208e-11	0	7
450.5836	1	21	n/a	n/a	1	52	0	0	0
451.8668	1	10	n/a	n/a	1	52	-0.1	0	1
452.9668	1	10	n/a	n/a	1	52	0.1	0	2
454.0666	1	10	n/a	n/a	1	52	-0.2	0	3
455.1666	1	21	n/a	n/a	1	52	0.1	0	0
456.4832	1	10	n/a	n/a	1	52	5.8208e-11	0	1
457.5664	1	10	n/a	n/a	1	52	-0.1	0	2
458.7498	1	10	n/a	n/a	1	52	0.2	0	3
459.9996	1	10	n/a	n/a	1	52	-0.2	0	4
461.2496	1	10	n/a	n/a	1	52	0.1	0	5
462.4994	1	21	n/a	n/a	1	52	-0.1	0	0
463.5582	1	82	n/a	n/a	1	0	0	0	0
463.5882	1	82	n/a	n/a	1	0	0	0	0
463.6812	1	82	n/a	n/a	1	0	0	0	0
464.0162	1	82	n/a	n/a	1	0	0	0	0
464.1382	1	82	n/a	n/a	1	0	0	0	0
464.5582	1	82	n/a	n/a	1	0	0	0	0
464.8092	1	82	n/a	n/a	1	0	0	0	0
465.1142	1	82	n/a	n/a	1	0	0	0	0
465.2662	1	82	n/a	n/a	1	0	0	0	0
465.3882	1	82	n/a	n/a	1	0	0	0	0
466.6658	1	10	n/a	n/a	1	52	-0.1	0	1
467.9824	1	10	n/a	n/a	1	52	0.1	0	2
469.1824	1	10	n/a	n/a	1	52	0	0	3
470.4324	1	10	n/a	n/a	1	52	0.1	0	4
471.4822	1	10	n/a	n/a	1	52	-0.2	0	5
472.7988	1	10	n/a	n/a	1	52	0.1	0	6
473.9654	1	10	n/a	n/a	1	52	-0.1	0	7
475.132	1	21	n/a	n/a	1	52	0	0	0
476.182	1	10	n/a	n/a	1	52	0.1	0	1
477.232	1	21	n/a	n/a	1	52	0.1	0	0
478.5318	1	10	n/a	n/a	1	52	-0.2	0	1
479.8152	1	21	n/a	n/a	1	52	0.2	0	0
481.015	1	10	n/a	n/a	1	52	-0.2	0	1
482.0816	1	10	n/a	n/a	1	52	0	0	2
483.3148	1	10	n/a	n/a	1	52	0	0	3
484.5982	1	10	n/a	n/a	1	52	0.1	0	4
485.7814	1	10	n/a	n/a	1	52	-0.1	0	5
486.8646	1	10	n/a	n/a	1	52	0	0	6
487.9812	1	10	n/a	n/a	1	52	0	0	7
489.0978	1	21	n/a	n/a	1	52	0	0	0
490.1466	1	82	n/a	n/a	1	0	0	0	0
490.2806	1	82	n/a	n/a	1	0	0	0	0
490.6436	1	82	n/a	n/a	1	0	0	0	0
490.8386	1	82	n/a	n/a	1	0	0	0	0
491.1156	1	82	n/a	n/a	1	0	0	0	0
491.1466	1	82	n/a	n/a	1	0	0	0	0
491.3886	1	82	n/a	n/a	1	0	0	0	0
491.5546	1	82	n/a	n/a	1	0	0	0	0
491.6446	1	82	n/a	n/a	1	0	0	0	0
492.0356	1	82	n/a	n/a	1	0	0	0	0
493.1644	1	10	n/a	n/a	1	52	0.1	0	1
494.4976	1	10	n/a	n/a	1	52	-5.8208e-11	0	2
495.5476	1	10	n/a	n/a	1	52	0	0	3
496.5974	1	21	n/a	n/a	1	52	-0.1	0	0
497.9306	1	10	n/a	n/a	1	52	-0.1	0	1
499.0472	1	10	n/a	n/a	1	52	5.8208e-11	0	2
500.2638	1	10	n/a	n/a	1	52	-5.8208e-11	0	3
501.5972	1	10	n/a	n/a	1	52	0.2	0	4
502.697	1	10	n/a	n/a	1	52	-0.2	0	5
503.797	1	21	n/a	n/a	1	52	0.1	0	0
504.8302	1	10	n/a	n/a	1	52	-0.1	0	1
505.8636	1	21	n/a	n/a	1	52	0.1	0	0
506.9468	1	10	n/a	n/a	1	52	-0.1	0	1
508.1968	1	10	n/a	n/a	1	52	0.1	0	2
509.43	1	10	n/a	n/a	1	52	-0.1	0	3
510.6632	1	21	n/a	n/a	1	52	0	0	0
511.9466	1	10	n/a	n/a	1	52	0.1	0	1
513.0298	1	10	n/a	n/a	1	52	-0.1	0	2
514.063	1	10	n/a	n/a	1	52	5.8208e-11	0	3
515.2796	1	10	n/a	n/a	1	52	-5.8208e-11	0	4
604.5364	1	82	n/a	n/a	1	0	0	0	0
604.5654	1	82	n/a	n/a	1	0	0	0	0
604.9694	1	82	n/a	n/a	1	0	0	0	0
605.1174	1	82	n/a	n/a	1	0	0	0	0
605.4894	1	82	n/a	n/a	1	0	0	0	0
605.5364	1	82	n/a	n/a	1	0	-0.1	0	0
605.5574	1	82	n/a	n/a	1	0	0	0	0
605.8704	1	82	n/a	n/a	1	0	0	0	0
605.9904	1	82	n/a	n/a	1	0	0	0	0
606.3404	1	82	n/a	n/a	1	0	0	0	0
607.6314	1	10	n/a	n/a	1	52	0	0	1
608.6814	1	10	n/a	n/a	1	52	0.1	0	2
609.7646	1	10	n/a	n/a	1	52	-0.1	0	3
610.8646	1	10	n/a	n/a	1	52	0.1	0	4
611.9478	1	10	n/a	n/a	1	52	-0.1	0	5
613.081	1	10	n/a	n/a	1	52	-0.1	0	6
614.1144	1	10	n/a	n/a	1	52	0.2	0	7
615.1476	1	21	n/a	n/a	1	52	-0.1	0	0
616.4142	1	10	n/a	n/a	1	52	0	0	1
617.5974	1	10	n/a	n/a	1	52	-0.1	0	2
618.814	1	10	n/a	n/a	1	52	0	0	3
620.0306	1	21	n/a	n/a	1	52	0	0	0
621.264	1	10	n/a	n/a	1	52	0.2	0	1
622.4972	1	21	n/a	n/a	1	52	-0.1	0	0
623.747	1	10	n/a	n/a	1	52	-0.1	0	1
624.997	1	21	n/a	n/a	1	52	0	0	0
626.147	1	10	n/a	n/a	1	52	0.1	0	1
627.2302	1	10	n/a	n/a	1	52	-0.1	0	2
628.4468	1	10	n/a	n/a	1	52	1.1642e-10	0	3
629.6634	1	21	n/a	n/a	1	52	0	0	0
630.5362	1	82	n/a	n/a	1	0	0.1	0	0
630.7802	1	82	n/a	n/a	1	0	0	0	0
630.8802	1	82	n/a	n/a	1	0	0	0	0
631.1492	1	82	n/a	n/a	1	0	0	0	0
631.2182	1	82	n/a	n/a	1	0	0	0	0
631.5362	1	82	n/a	n/a	1	0	0	0	0
631.6992	1	82	n/a	n/a	1	0	0	0	0
631.7622	1	82	n/a	n/a	1	0	0	0	0
632.1442	1	82	n/a	n/a	1	0	0	0	0
632.2672	1	82	n/a	n/a	1	0	0	0	0
633.6464	1	10	n/a	n/a	1	52	-0.2	0	1
634.963	1	10	n/a	n/a	1	52	0	0	2
636.0296	1	10	n/a	n/a	1	52	-1.1642e-10	0	3
637.0962	1	21	n/a	n/a	1	52	0	0	0
638.1296	1	10	n/a	n/a	1	52	0.2	0	1
639.3462	1	10	n/a	n/a	1	52	-0.1	0	2
640.546	1	10	n/a	n/a	1	52	-0.1	0	3
641.746	1	21	n/a	n/a	1	52	0.1	0	0
643.046	1	10	n/a	n/a	1	52	0	0	1
644.3292	1	10	n/a	n/a	1	52	-1.1642e-10	0	2
645.5458	1	10	n/a	n/a	1	52	1.1642e-10	0	3
646.6958	1	10	n/a	n/a	1	52	0	0	4
647.7456	1	10	n/a	n/a	1	52	-0.1	0	5
648.9456	1	10	n/a	n/a	1	52	0	0	6
650.0788	1	10	n/a	n/a	1	52	1.1642e-10	0	7
651.2122	1	21	n/a	n/a	1	52	0.1	0	0
652.3288	1	10	n/a	n/a	1	52	1.1642e-10	0	1
653.3786	1	10	n/a	n/a	1	52	-0.1	0	2
654.6452	1	10	n/a	n/a	1	52	0	0	3
655.8952	1	10	n/a	n/a	1	52	0	0	4
656.9236	1	82	n/a	n/a	1	0	-0.1	0	0
656.9826	1	82	n/a	n/a	1	0	0	0	0
657.0846	1	82	n/a	n/a	1	0	0	0	0
657.1126	1	82	n/a	n/a	1	0	0	0	0
657.5306	1	82	n/a	n/a	1	0	0	0	0
657.9236	1	82	n/a	n/a	1	0	0	0	0
658.1876	1	82	n/a	n/a	1	0	0	0	0
658.3646	1	82	n/a	n/a	1	0	0	0	0
658.5826	1	82	n/a	n/a	1	0	0	0	0
658.7296	1	82	n/a	n/a	1	0	0	0	0
659.9116	1	10	n/a	n/a	1	52	0.1	0	1
661.0282	1	10	n/a	n/a	1	52	0	0	2
662.1448	1	10	n/a	n/a	1	52	1.1642e-10	0	3
663.2614	1	21	n/a	n/a	1	52	0	0	0
664.5614	1	10	n/a	n/a	1	52	0	0	1
665.8612	1	21	n/a	n/a	1	52	-0.1	0	0
667.1446	1	10	n/a	n/a	1	52	0.2	0	1
668.3944	1	10	n/a	n/a	1	52	-0.2	0	2
669.611	1	10	n/a	n/a	1	52	-1.1642e-10	0	3
670.711	1	10	n/a	n/a	1	52	0.1	0	4
671.9776	1	10	n/a	n/a	1	52	-1.1642e-10	0	5
673.0608	1	10	n/a	n/a	1	52	-0.1	0	6
674.1608	1	10	n/a	n/a	1	52	0.1	0	7
675.2606	1	21	n/a	n/a	1	52	-0.2	0	0
676.494	1	10	n/a	n/a	1	52	0.2	0	1
677.6772	1	10	n/a	n/a	1	52	-0.1	0	2
678.9438	1	10	n/a	n/a	1	52	1.1642e-10	0	3
680.2104	1	21	n/a	n/a	1	52	0	0	0
681.2604	1	10	n/a	n/a	1	52	0.1	0	1
682.3436	1	10	n/a	n/a	1	52	-0.1	0	2
683.3234	1	82	n/a	n/a	1	0	0.1	0	0
683.5624	1	82	n/a	n/a	1	0	0	0	0
683.6642	1	82	n/a	n/a	1	0	-0.2	0	0
683.8572	1	82	n/a	n/a	1	0	0	0	0
684.1982	1	82	n/a	n/a	1	0	0	0	0
684.3234	1	82	n/a	n/a	1	0	0.2	0	0
684.4934	1	82	n/a	n/a	1	0	0	0	0
684.5314	1	82	n/a	n/a	1	0	0	0	0
684.7324	1	82	n/a	n/a	1	0	0	0	0
685.1214	1	82	n/a	n/a	1	0	0	0	0
686.4266	1	10	n/a	n/a	1	52	-0.2	0	1
687.5932	1	10	n/a	n/a	1	52	0	0	2
688.7098	1	10	n/a	n/a	1	52	1.1642e-10	0	3
689.9098	1	10	n/a	n/a	1	52	0.1	0	4
691.1098	1	10	n/a	n/a	1	52	0	0	5
692.3596	1	10	n/a	n/a	1	52	-0.1	0	6
693.4262	1	10	n/a	n/a	1	52	0	0	7
694.4928	1	21	n/a	n/a	1	52	1.1642e-10	0	0
695.7762	1	10	n/a	n/a	1	52	0.1	0	1
697.0928	1	10	n/a	n/a	1	52	1.1642e-10	0	2
698.226	1	10	n/a	n/a	1	52	-0.1	0	3
699.276	1	10	n/a	n/a	1	52	0.1	0	4
700.3592	1	10	n/a	n/a	1	52	-0.1	0	5
701.4424	1	21	n/a	n/a	1	52	0	0	0
702.6424	1	10	n/a	n/a	1	52	0	0	1
703.8424	1	10	n/a	n/a	1	52	0.1	0	2
705.059	1	10	n/a	n/a	1	52	-1.1642e-10	0	3
706.1922	1	10	n/a	n/a	1	52	17.7	0	4
707.1922	1	10	n/a	n/a	1	52	-17.7	0	5
708.2254	1	21	n/a	n/a	1	52	-0.1	0	0
709.1812	1	82	n/a	n/a	1	0	0.1	0	0
709.2312	1	82	n/a	n/a	1	0	0	0	0
709.5672	1	82	n/a	n/a	1	0	0	0	0
709.7902	1	82	n/a	n/a	1	0	0	0	0
709.9632	1	82	n/a	n/a	1	0	0	0	0
710.1812	1	82	n/a	n/a	1	0	-0.1	0	0
710.2652	1	82	n/a	n/a	1	0	0	0	0
710.3132	1	82	n/a	n/a	1	0	0	0	0
710.6192	1	82	n/a	n/a	1	0	0	0	0
711.0262	1	82	n/a	n/a	1	0	0	0	0
712.1252	1	10	n/a	n/a	1	52	0	0	1
713.3418	1	10	n/a	n/a	1	52	1.1642e-10	0	2
714.6084	1	10	n/a	n/a	1	52	-1.1642e-10	0	3
715.875	1	21	n/a	n/a	1	52	0	0	0
716.9748	1	10	n/a	n/a	1	52	-0.1	0	1
718.1248	1	10	n/a	n/a	1	52	0.1	0	2
719.4248	1	10	n/a	n/a	1	52	0	0	3
720.658	1	10	n/a	n/a	1	52	-1.1642e-10	0	4
721.8912	1	10	n/a	n/a	1	52	-0.1	0	5
722.9412	1	10	n/a	n/a	1	52	0.1	0	6
724.1912	1	10	n/a	n/a	1	52	0	0	7
725.441	1	21	n/a	n/a	1	52	-0.1	0	0
726.6576	1	10	n/a	n/a	1	52	0	0	1
727.8908	1	10	n/a	n/a	1	52	-0.1	0	2
729.0408	1	10	n/a	n/a	1	52	0.1	0	3
730.1908	1	21	n/a	n/a	1	52	0.1	0	0
731.2406	1	10	n/a	n/a	1	52	-0.2	0	1
732.4572	1	10	n/a	n/a	1	52	-1.1642e-10	0	2
733.6238	1	10	n/a	n/a	1	52	1.1642e-10	0	3
734.8904	1	10	n/a	n/a	1	52	0	0	4
743.2968	1	82	n/a	n/a	1	0	0.1	0	0
743.5718	1	82	n/a	n/a	1	0	0	0	0
743.7418	1	82	n/a	n/a	1	0	0	0	0
743.9748	1	82	n/a	n/a	1	0	0	0	0
744.1088	1	82	n/a	n/a	1	0	0	0	0
744.2968	1	82	n/a	n/a	1	0	-0.1	0	0
744.5608	1	82	n/a	n/a	1	0	0	0	0
744.8028	1	82	n/a	n/a	1	0	0	0	0
744.9558	1	82	n/a	n/a	1	0	0	0	0
744.9768	1	82	n/a	n/a	1	0	0	0	0
746.5064	1	10	n/a	n/a	1	50	0	0	1
747.6564	1	10	n/a	n/a	1	50	0.1	0	2
748.8396	1	10	n/a	n/a	1	50	-0.1	0	3
749.9562	1	10	n/a	n/a	1	50	-1.1642e-10	0	4
751.0062	1	10	n/a	n/a	1	50	0	0	5
752.0562	1	21	n/a	n/a	1	50	0.1	0	0
753.1228	1	10	n/a	n/a	1	50	0	0	1
754.406	1	10	n/a	n/a	1	50	-0.1	0	2
755.6892	1	10	n/a	n/a	1	50	-1.1642e-10	0	3
756.9058	1	10	n/a	n/a	1	50	1.1642e-10	0	4
758.139	1	10	n/a	n/a	1	50	-0.1	0	5
759.3724	1	10	n/a	n/a	1	50	0.1	0	6
760.4222	1	10	n/a	n/a	1	50	-0.1	0	7
761.4722	1	21	n/a	n/a	1	50	0	0	0
762.6888	1	10	n/a	n/a	1	50	0.1	0	1
763.8554	1	10	n/a	n/a	1	50	0	0	2
765.1386	1	10	n/a	n/a	1	50	-0.1	0	3
766.172	1	10	n/a	n/a	1	50	0.1	0	4
767.3218	1	10	n/a	n/a	1	50	-0.1	0	5
768.4718	1	21	n/a	n/a	1	50	0.1	0	0
769.2446	1	82	n/a	n/a	1	0	0	0	0
769.2776	1	82	n/a	n/a	1	0	0	0	0
769.5916	1	82	n/a	n/a	1	0	0	0	0
770.0016	1	82	n/a	n/a	1	0	0	0	0
770.1346	1	82	n/a	n/a	1	0	0	0	0
770.2446	1	82	n/a	n/a	1	0	0	0	0
770.3126	1	82	n/a	n/a	1	0	0	0	0
770.4186	1	82	n/a	n/a	1	0	0	0	0
770.7796	1	82	n/a	n/a	1	0	0	0	0
770.9216	1	82	n/a	n/a	1	0	0	0	0
772.1882	1	10	n/a	n/a	1	50	-0.1	0	1
773.3548	1	10	n/a	n/a	1	50	1.1642e-10	0	2
774.6214	1	10	n/a	n/a	1	50	0	0	3
775.888	1	21	n/a	n/a	1	50	0	0	0
777.188	1	10	n/a	n/a	1	50	0.1	0	1
778.4546	1	10	n/a	n/a	1	50	0	0	2
779.6378	1	10	n/a	n/a	1	50	-0.1	0	3
780.871	1	10	n/a	n/a	1	50	-0.1	0	4
782.0044	1	10	n/a	n/a	1	50	0.2	0	5
783.1876	1	10	n/a	n/a	1	50	-0.1	0	6
784.3376	1	10	n/a	n/a	1	50	0.1	0	7
785.4874	1	21	n/a	n/a	1	50	-0.2	0	0
786.654	1	10	n/a	n/a	1	50	-1.1642e-10	0	1
787.7706	1	10	n/a	n/a	1	50	0	0	2
788.9206	1	10	n/a	n/a	1	50	0.1	0	3
790.0038	1	10	n/a	n/a	1	50	-0.1	0	4
791.2038	1	10	n/a	n/a	1	50	0.1	0	5
792.4038	1	21	n/a	n/a	1	50	0	0	0
793.5036	1	10	n/a	n/a	1	50	-0.1	0	1
794.6036	1	21	n/a	n/a	1	50	0.1	0	0
795.3742	1	82	n/a	n/a	1	0	-0.2	0	0
795.5962	1	82	n/a	n/a	1	0	0	0	0
796.0272	1	82	n/a	n/a	1	0	0	0	0
796.0492	1	82	n/a	n/a	1	0	0	0	0
796.1292	1	82	n/a	n/a	1	0	0	0	0
796.3742	1	82	n/a	n/a	1	0	0	0	0
796.7222	1	82	n/a	n/a	1	0	0	0	0
796.8392	1	82	n/a	n/a	1	0	0	0	0
796.9202	1	82	n/a	n/a	1	0	0	0	0
797.0852	1	82	n/a	n/a	1	0	0	0	0
798.5034	1	10	n/a	n/a	1	50	0.2	0	1
799.7366	1	21	n/a	n/a	1	50	-0.1	0	0
800.8532	1	10	n/a	n/a	1	50	0	0	1
801.9032	1	10	n/a	n/a	1	50	0.1	0	2
803.1698	1	10	n/a	n/a	1	50	1.1642e-10	0	3
804.3864	1	10	n/a	n/a	1	50	0	0	4
805.6362	1	10	n/a	n/a	1	50	-0.2	0	5
806.7528	1	10	n/a	n/a	1	50	1.1642e-10	0	6
808.0528	1	10	n/a	n/a	1	50	0.1	0	7
809.3526	1	21	n/a	n/a	1	50	-0.1	0	0
810.5692	1	10	n/a	n/a	1	50	0	0	1
811.6358	1	10	n/a	n/a	1	50	1.1642e-10	0	2
812.7524	1	10	n/a	n/a	1	50	-1.1642e-10	0	3
813.8358	1	10	n/a	n/a	1	50	0.1	0	4
814.8858	1	10	n/a	n/a	1	50	0.1	0	5
815.9356	1	21	n/a	n/a	1	50	-0.2	0	0
817.0688	1	10	n/a	n/a	1	50	-0.1	0	1
818.1188	1	10	n/a	n/a	1	50	0.1	0	2
819.302	1	10	n/a	n/a	1	50	-0.1	0	3
820.4854	1	21	n/a	n/a	1	50	0.2	0	0
821.526	1	82	n/a	n/a	1	0	-0.2	0	0
821.671	1	82	n/a	n/a	1	0	0	0	0
821.725	1	82	n/a	n/a	1	0	0	0	0
821.986	1	82	n/a	n/a	1	0	0	0	0
822.163	1	82	n/a	n/a	1	0	0	0	0
822.526	1	82	n/a	n/a	1	0	0	0	0
822.547	1	82	n/a	n/a	1	0	0	0	0
822.605	1	82	n/a	n/a	1	0	0	0	0
822.7	1	82	n/a	n/a	1	0	0	0	0
823.066	1	82	n/a	n/a	1	0	0	0	0
824.6518	1	10	n/a	n/a	1	50	0.1	0	1
825.685	1	10	n/a	n/a	1	50	-0.1	0	2
826.7184	1	10	n/a	n/a	1	50	0.2	0	3
827.985	1	10	n/a	n/a	1	50	-1.1642e-10	0	4
829.1848	1	10	n/a	n/a	1	50	-0.2	0	5
830.3848	1	21	n/a	n/a	1	50	0.1	0	0
831.4348	1	10	n/a	n/a	1	50	0.1	0	1
832.4846	1	21	n/a	n/a	1	50	-0.2	0	0
833.5846	1	10	n/a	n/a	1	50	0.1	0	1
834.7012	1	10	n/a	n/a	1	50	0	0	2
836.001	1	10	n/a	n/a	1	50	-0.2	0	3
837.101	1	10	n/a	n/a	1	50	0.1	0	4
838.351	1	10	n/a	n/a	1	50	0.1	0	5
839.6008	1	21	n/a	n/a	1	50	-0.2	0	0
840.8842	1	10	n/a	n/a	1	50	0.2	0	1
841.9674	1	10	n/a	n/a	1	50	-0.1	0	2
843.0174	1	10	n/a	n/a	1	50	0.1	0	3
844.0672	1	21	n/a	n/a	1	50	-0.2	0	0
845.3506	1	10	n/a	n/a	1	50	0.2	0	1
846.6338	1	10	n/a	n/a	1	50	-0.1	0	2
847.6902	1	82	n/a	n/a	1	0	-0.1	0	0
847.9922	1	82	n/a	n/a	1	0	0	0	0
848.3742	1	82	n/a	n/a	1	0	0	0	0
848.5792	1	82	n/a	n/a	1	0	0	0	0
848.6382	1	82	n/a	n/a	1	0	0	0	0
848.6902	1	82	n/a	n/a	1	0	0	0	0
848.7332	1	82	n/a	n/a	1	0	0	0	0
848.8772	1	82	n/a	n/a	1	0	0	0	0
849.0562	1	82	n/a	n/a	1	0	0	0	0
849.1412	1	82	n/a	n/a	1	0	0	0	0
850.8668	1	10	n/a	n/a	1	50	1.1642e-10	0	1
852.1502	1	21	n/a	n/a	1	50	0.1	0	0
853.3	1	10	n/a	n/a	1	50	-0.1	0	1
854.45	1	21	n/a	n/a	1	50	0.1	0	0
855.5	1	10	n/a	n/a	1	50	0	0	1
856.5498	1	21	n/a	n/a	1	50	-0.1	0	0
857.6998	1	10	n/a	n/a	1	50	0	0	1
858.8998	1	10	n/a	n/a	1	50	0.1	0	2
860.133	1	10	n/a	n/a	1	50	0	0	3
861.3996	1	10	n/a	n/a	1	50	0	0	4
862.5328	1	10	n/a	n/a	1	50	-0.1	0	5
863.6662	1	21	n/a	n/a	1	50	0.1	0	0
864.7828	1	10	n/a	n/a	1	50	0	0	1
866.0494	1	10	n/a	n/a	1	50	0	0	2
867.0826	1	10	n/a	n/a	1	50	-0.1	0	3
868.1826	1	10	n/a	n/a	1	50	0.1	0	4
869.4158	1	10	n/a	n/a	1	50	-0.1	0	5
870.649	1	21	n/a	n/a	1	50	0	0	0
871.949	1	10	n/a	n/a	1	50	0	0	1
873.2488	1	21	n/a	n/a	1	50	-0.1	0	0
909.0598	1	81	n/a	n/a	1	0	-0.1	0	0
909.2598	1	81	n/a	n/a	1	0	0	0	0
909.4598	1	81	n/a	n/a	1	0	0	0	0
909.6598	1	81	n/a	n/a	1	0	0	0	0
909.8598	1	81	n/a	n/a	1	0	0	0	0
910.0598	1	81	n/a	n/a	1	0	0	0	0
910.2598	1	81	n/a	n/a	1	0	0	0	0
910.4598	1	81	n/a	n/a	1	0	0	0	0
910.6598	1	81	n/a	n/a	1	0	0	0	0
910.8598	1	81	n/a	n/a	1	0	0	0	0
912.1466	1	10	n/a	n/a	1	51	0.1	0	1
913.4298	1	10	n/a	n/a	1	51	-0.1	0	2
914.7298	1	10	n/a	n/a	1	51	0.1	0	3
916.0296	1	21	n/a	n/a	1	51	-0.2	0	0
917.2962	1	10	n/a	n/a	1	51	0.1	0	1
918.5628	1	21	n/a	n/a	1	51	1.1642e-10	0	0
919.5962	1	10	n/a	n/a	1	51	0.1	0	1
920.846	1	10	n/a	n/a	1	51	-0.1	0	2
921.9794	1	10	n/a	n/a	1	51	0.1	0	3
923.0292	1	10	n/a	n/a	1	51	-0.2	0	4
924.2458	1	10	n/a	n/a	1	51	1.1642e-10	0	5
925.5124	1	10	n/a	n/a	1	51	-1.1642e-10	0	6
926.6456	1	10	n/a	n/a	1	51	17.8	0	7
927.729	1	21	n/a	n/a	1	51	-17.7	0	0
928.8288	1	10	n/a	n/a	1	51	-0.1	0	1
929.9288	1	21	n/a	n/a	1	51	0	0	0
931.212	1	10	n/a	n/a	1	51	-1.1642e-10	0	1
932.4954	1	21	n/a	n/a	1	51	0.1	0	0
933.6286	1	10	n/a	n/a	1	51	-0.1	0	1
934.9118	1	10	n/a	n/a	1	51	1.1642e-10	0	2
935.6962	1	81	n/a	n/a	1	0	-1.1642e-10	0	0
935.8962	1	81	n/a	n/a	1	0	0	0	0
936.0962	1	81	n/a	n/a	1	0	0	0	0
936.2962	1	81	n/a	n/a	1	0	0	0	0
936.4962	1	81	n/a	n/a	1	0	0	0	0
936.6962	1	81	n/a	n/a	1	0	-0.1	0	0
936.8962	1	81	n/a	n/a	1	0	0	0	0
937.0962	1	81	n/a	n/a	1	0	0	0	0
937.2962	1	81	n/a	n/a	1	0	0	0	0
937.4962	1	81	n/a	n/a	1	0	0	0	0
938.7782	1	10	n/a	n/a	1	51	0	0	1
939.8282	1	10	n/a	n/a	1	51	0.1	0	2
940.8962	1	10	n/a	n/a	1	51	1.6	0	3
942.0114	1	10	n/a	n/a	1	51	-1.6	0	4
943.328	1	10	n/a	n/a	1	51	0	0	5
944.6446	1	21	n/a	n/a	1	51	0	0	0
945.8778	1	10	n/a	n/a	1	51	-0.1	0	1
947.1112	1	10	n/a	n/a	1	51	17.9	0	2
948.1444	1	10	n/a	n/a	1	51	-17.8	0	3
949.211	1	21	n/a	n/a	1	51	0	0	0
950.2942	1	10	n/a	n/a	1	51	-0.1	0	1
951.5108	1	10	n/a	n/a	1	51	0	0	2
952.8108	1	10	n/a	n/a	1	51	0.1	0	3
954.1108	1	21	n/a	n/a	1	51	0	0	0
955.3106	1	10	n/a	n/a	1	51	-0.1	0	1
956.5772	1	10	n/a	n/a	1	51	0	0	2
957.6106	1	10	n/a	n/a	1	51	0.1	0	3
958.8604	1	10	n/a	n/a	1	51	-0.1	0	4
959.9104	1	10	n/a	n/a	1	51	0	0	5
961.0936	1	10	n/a	n/a	1	51	0	0	6
961.999	1	81	n/a	n/a	1	0	0	0	0
962.199	1	81	n/a	n/a	1	0	0	0	0
962.399	1	81	n/a	n/a	1	0	0	0	0
962.599	1	81	n/a	n/a	1	0	0	0	0
962.799	1	81	n/a	n/a	1	0	0	0	0
962.999	1	81	n/a	n/a	1	0	0	0	0
963.199	1	81	n/a	n/a	1	0	0	0	0
963.399	1	81	n/a	n/a	1	0	0	0	0
963.599	1	81	n/a	n/a	1	0	0	0	0
963.799	1	81	n/a	n/a	1	0	0	0	0
965.0434	1	10	n/a	n/a	1	51	0	0	1
966.26	1	10	n/a	n/a	1	51	0	0	2
967.36	1	10	n/a	n/a	1	51	0.1	0	3
968.4598	1	21	n/a	n/a	1	51	-0.2	0	0
969.7098	1	10	n/a	n/a	1	51	0.1	0	1
970.743	1	10	n/a	n/a	1	51	-0.1	0	2
971.8264	1	10	n/a	n/a	1	51	0.1	0	3
972.8762	1	10	n/a	n/a	1	51	-0.1	0	4
974.1096	1	10	n/a	n/a	1	51	0.1	0	5
975.3428	1	21	n/a	n/a	1	51	0	0	0
976.6428	1	10	n/a	n/a	1	51	0	0	1
977.7594	1	10	n/a	n/a	1	51	0	0	2
978.9926	1	10	n/a	n/a	1	51	0	0	3
980.2424	1	10	n/a	n/a	1	51	-0.2	0	4
981.3424	1	10	n/a	n/a	1	51	0.1	0	5
982.4424	1	21	n/a	n/a	1	51	0.1	0	0
983.709	1	10	n/a	n/a	1	51	0	0	1
984.9756	1	21	n/a	n/a	1	51	0	0	0
986.2088	1	10	n/a	n/a	1	51	-0.1	0	1
987.442	1	21	n/a	n/a	1	51	-0.1	0	0
988.5268	1	81	n/a	n/a	1	0	0.2	0	0
988.7268	1	81	n/a	n/a	1	0	0	0	0
988.9268	1	81	n/a	n/a	1	0	0	0	0
989.1268	1	81	n/a	n/a	1	0	0	0	0
989.3268	1	81	n/a	n/a	1	0	0	0	0
989.5268	1	81	n/a	n/a	1	0	-0.1	0	0
989.7268	1	81	n/a	n/a	1	0	0	0	0
989.9268	1	81	n/a	n/a	1	0	0	0	0
990.1268	1	81	n/a	n/a	1	0	0	0	0
990.3268	1	81	n/a	n/a	1	0	0	0	0
991.6752	1	10	n/a	n/a	1	51	-1.1642e-10	0	1
992.975	1	10	n/a	n/a	1	51	-0.1	0	2
994.0584	1	10	n/a	n/a	1	51	0.1	0	3
995.3416	1	10	n/a	n/a	1	51	0	0	4
996.4582	1	10	n/a	n/a	1	51	-1.1642e-10	0	5
997.6582	1	10	n/a	n/a	1	51	0	0	6
998.9248	1	10	n/a	n/a	1	51	1.1642e-10	0	7
1000.1914	1	21	n/a	n/a	1	51	0	0	0
1001.3578	1	10	n/a	n/a	1	51	-0.2	0	1
1002.5912	1	10	n/a	n/a	1	51	0.2	0	2
1003.841	1	10	n/a	n/a	1	51	-0.2	0	3
1004.8744	1	10	n/a	n/a	1	51	0.2	0	4
1005.9742	1	10	n/a	n/a	1	51	-0.2	0	5
1007.0742	1	21	n/a	n/a	1	51	0.1	0	0
1008.1574	1	10	n/a	n/a	1	51	-0.1	0	1
1009.374	1	10	n/a	n/a	1	51	-1.1642e-10	0	2
1010.6074	1	10	n/a	n/a	1	51	0.2	0	3
1011.8406	1	21	n/a	n/a	1	51	-0.1	0	0
1012.8738	1	10	n/a	n/a	1	51	-0.1	0	1
1014.1572	1	10	n/a	n/a	1	51	0.2	0	2
1015.1408	1	81	n/a	n/a	1	0	-0.1	0	0
1015.3408	1	81	n/a	n/a	1	0	0	0	0
1015.5408	1	81	n/a	n/a	1	0	0	0	0
1015.7408	1	81	n/a	n/a	1	0	0	0	0
1015.9408	1	81	n/a	n/a	1	0	0	0	0
1016.1408	1	81	n/a	n/a	1	0	0	0	0
1016.3408	1	81	n/a	n/a	1	0	0	0	0
1016.5408	1	81	n/a	n/a	1	0	0	0	0
1016.7408	1	81	n/a	n/a	1	0	0	0	0
1016.9408	1	81	n/a	n/a	1	0	0	0	0
1018.3068	1	10	n/a	n/a	1	51	-0.1	0	1
1019.4234	1	10	n/a	n/a	1	51	0	0	2
1020.4734	1	10	n/a	n/a	1	51	0	0	3
1021.6566	1	10	n/a	n/a	1	51	-1.1642e-10	0	4
1022.69	1	10	n/a	n/a	1	51	0.1	0	5
1023.7232	1	10	n/a	n/a	1	51	-0.1	0	6
1024.8232	1	10	n/a	n/a	1	51	0.1	0	7
1025.9232	1	21	n/a	n/a	1	51	0	0	0
1027.0398	1	10	n/a	n/a	1	51	1.1642e-10	0	1
1028.073	1	10	n/a	n/a	1	51	0	0	2
1029.273	1	10	n/a	n/a	1	51	0	0	3
1030.4562	1	10	n/a	n/a	1	51	-1.1642e-10	0	4
1031.6894	1	10	n/a	n/a	1	51	17.6	0	5
1032.8726	1	21	n/a	n/a	1	51	-17.8	0	0
1034.0226	1	10	n/a	n/a	1	51	0.1	0	1
1035.1226	1	10	n/a	n/a	1	51	0	0	2
1036.1892	1	10	n/a	n/a	1	51	0	0	3
1037.339	1	10	n/a	n/a	1	51	-0.1	0	4
1038.639	1	10	n/a	n/a	1	51	0.1	0	5
1039.939	1	21	n/a	n/a	1	51	0	0	0
1072.5954	1	81	n/a	n/a	1	0	n/a	n/a	0
1072.7954	1	81	n/a	n/a	1	0	n/a	n/a	0
1072.9954	1	81	n/a	n/a	1	0	n/a	n/a	0
1073.1954	1	81	n/a	n/a	1	0	n/a	n/a	0
1073.3954	1	81	n/a	n/a	1	0	n/a	n/a	0
1073.5954	1	81	n/a	n/a	1	0	n/a	n/a	0
1073.7954	1	81	n/a	n/a	1	0	n/a	n/a	0
1073.9954	1	81	n/a	n/a	1	0	n/a	n/a	0
1074.1954	1	81	n/a	n/a	1	0	n/a	n/a	0
1074.3954	1	81	n/a	n/a	1	0	n/a	n/a	0
1075.5158	1	10	n/a	n/a	1	51	n/a	n/a	1
1076.6158	1	10	n/a	n/a	1	51	n/a	n/a	2
1077.7824	1	10	n/a	n/a	1	51	n/a	n/a	3
1078.949	1	21	n/a	n/a	1	51	n/a	n/a	0
1079.9822	1	10	n/a	n/a	1	51	n/a	n/a	1
1081.2654	1	10	n/a	n/a	1	51	n/a	n/a	2
1082.2988	1	10	n/a	n/a	1	51	n/a	n/a	3
1083.332	1	21	n/a	n/a	1	51	n/a	n/a	0
1084.3654	1	10	n/a	n/a	1	51	n/a	n/a	1
1085.3986	1	21	n/a	n/a	1	51	n/a	n/a	0
1086.4486	1	10	n/a	n/a	1	51	n/a	n/a	1
1087.4984	1	21	n/a	n/a	1	51	n/a	n/a	0
1088.5984	1	10	n/a	n/a	1	51	n/a	n/a	1
1089.7316	1	10	n/a	n/a	1	51	n/a	n/a	2
1090.9816	1	10	n/a	n/a	1	51	n/a	n/a	3
1092.2148	1	10	n/a	n/a	1	51	n/a	n/a	4
1093.5314	1	10	n/a	n/a	1	51	n/a	n/a	5
1094.648	1	10	n/a	n/a	1	51	n/a	n/a	6
1095.898	1	10	n/a	n/a	1	51	n/a	n/a	7
1097.1478	1	21	n/a	n/a	1	51	n/a	n/a	0
1097.9406	1	81	n/a	n/a	1	0	n/a	n/a	0
1098.1406	1	81	n/a	n/a	1	0	n/a	n/a	0
1098.3406	1	81	n/a	n/a	1	0	n/a	n/a	0
1098.5406	1	81	n/a	n/a	1	0	n/a	n/a	0
1098.7406	1	81	n/a	n/a	1	0	n/a	n/a	0
1098.9406	1	81	n/a	n/a	1	0	n/a	n/a	0
1099.1406	1	81	n/a	n/a	1	0	n/a	n/a	0
1099.3406	1	81	n/a	n/a	1	0	n/a	n/a	0
1099.5406	1	81	n/a	n/a	1	0	n/a	n/a	0
1099.7406	1	81	n/a	n/a	1	0	n/a	n/a	0
1100.8976	1	10	n/a	n/a	1	51	n/a	n/a	1
1101.9642	1	21	n/a	n/a	1	51	n/a	n/a	0
1103.1808	1	10	n/a	n/a	1	51	n/a	n/a	1
1104.2308	1	10	n/a	n/a	1	51	n/a	n/a	2
1105.314	1	10	n/a	n/a	1	51	n/a	n/a	3
1106.564	1	10	n/a	n/a	1	51	n/a	n/a	4
1107.8472	1	10	n/a	n/a	1	51	n/a	n/a	5
1108.9972	1	10	n/a	n/a	1	51	n/a	n/a	6
1110.2304	1	10	n/a	n/a	1	51	n/a	n/a	7
1111.4636	1	21	n/a	n/a	1	51	n/a	n/a	0
1112.6802	1	10	n/a	n/a	1	51	n/a	n/a	1
1113.7636	1	10	n/a	n/a	1	51	n/a	n/a	2
1115.0802	1	10	n/a	n/a	1	51	n/a	n/a	3
1116.3468	1	10	n/a	n/a	1	51	n/a	n/a	4
1117.58	1	10	n/a	n/a	1	51	n/a	n/a	5
1118.8132	1	21	n/a	n/a	1	51	n/a	n/a	0
1119.9298	1	10	n/a	n/a	1	51	n/a	n/a	1
1121.0464	1	21	n/a	n/a	1	51	n/a	n/a	0
1122.263	1	10	n/a	n/a	1	51	n/a	n/a	1
1123.4796	1	10	n/a	n/a	1	51	n/a	n/a	2
1124.3234	1	81	n/a	n/a	1	0	n/a	n/a	0
1124.5234	1	81	n/a	n/a	1	0	n/a	n/a	0
1124.7234	1	81	n/a	n/a	1	0	n/a	n/a	0
1124.9234	1	81	n/a	n/a	1	0	n/a	n/a	0
1125.1234	1	81	n/a	n/a	1	0	n/a	n/a	0
1125.3234	1	81	n/a	n/a	1	0	n/a	n/a	0
1125.5234	1	81	n/a	n/a	1	0	n/a	n/a	0
1125.7234	1	81	n/a	n/a	1	0	n/a	n/a	0
1125.9234	1	81	n/a	n/a	1	0	n/a	n/a	0
1126.1234	1	81	n/a	n/a	1	0	n/a	n/a	0
1127.446	1	10	n/a	n/a	1	51	n/a	n/a	1
1128.596	1	10	n/a	n/a	1	51	n/a	n/a	2
1129.7792	1	10	n/a	n/a	1	51	n/a	n/a	3
1130.9626	1	21	n/a	n/a	1	51	n/a	n/a	0
1132.1292	1	10	n/a	n/a	1	51	n/a	n/a	1
1133.379	1	10	n/a	n/a	1	51	n/a	n/a	2
1134.5624	1	10	n/a	n/a	1	51	n/a	n/a	3
1135.7456	1	21	n/a	n/a	1	51	n/a	n/a	0
1136.9456	1	10	n/a	n/a	1	51	n/a	n/a	1
1138.2122	1	10	n/a	n/a	1	51	n/a	n/a	2
1139.4286	1	10	n/a	n/a	1	51	n/a	n/a	3
1140.562	1	10	n/a	n/a	1	51	n/a	n/a	4
1141.8118	1	10	n/a	n/a	1	51	n/a	n/a	5
1143.0784	1	10	n/a	n/a	1	51	n/a	n/a	6
1144.345	1	10	n/a	n/a	1	51	n/a	n/a	7
1145.6116	1	21	n/a	n/a	1	51	n/a	n/a	0
1146.8616	1	10	n/a	n/a	1	51	n/a	n/a	1
1147.9782	1	10	n/a	n/a	1	51	n/a	n/a	2
1149.0948	1	10	n/a	n/a	1	51	n/a	n/a	3
1150.1614	1	10	n/a	n/a	1	51	n/a	n/a	4
1150.978	1	81	n/a	n/a	1	0	n/a	n/a	0
1151.178	1	81	n/a	n/a	1	0	n/a	n/a	0
1151.378	1	81	n/a	n/a	1	0	n/a	n/a	0
1151.578	1	81	n/a	n/a	1	0	n/a	n/a	0
1151.778	1	81	n/a	n/a	1	0	n/a	n/a	0
1151.978	1	81	n/a	n/a	1	0	n/a	n/a	0
1152.178	1	81	n/a	n/a	1	0	n/a	n/a	0
1152.378	1	81	n/a	n/a	1	0	n/a	n/a	0
1152.578	1	81	n/a	n/a	1	0	n/a	n/a	0
1152.778	1	81	n/a	n/a	1	0	n/a	n/a	0
1154.2112	1	10	n/a	n/a	1	51	n/a	n/a	1
1155.5444	1	21	n/a	n/a	1	51	n/a	n/a	0
1156.611	1	10	n/a	n/a	1	51	n/a	n/a	1
1157.6942	1	21	n/a	n/a	1	51	n/a	n/a	0
1158.9108	1	10	n/a	n/a	1	51	n/a	n/a	1
1160.0774	1	10	n/a	n/a	1	51	n/a	n/a	2
1161.1774	1	10	n/a	n/a	1	51	n/a	n/a	3
1162.2774	1	21	n/a	n/a	1	51	n/a	n/a	0
1163.5106	1	10	n/a	n/a	1	51	n/a	n/a	1
1164.7772	1	10	n/a	n/a	1	51	n/a	n/a	2
1166.0604	1	10	n/a	n/a	1	51	n/a	n/a	3
1167.3938	1	10	n/a	n/a	1	51	n/a	n/a	4
1168.677	1	10	n/a	n/a	1	51	n/a	n/a	5
1169.9602	1	21	n/a	n/a	1	51	n/a	n/a	0
1171.1434	1	10	n/a	n/a	1	51	n/a	n/a	1
1172.41	1	10	n/a	n/a	1	51	n/a	n/a	2
1173.56	1	10	n/a	n/a	1	51	n/a	n/a	3
1174.7266	1	10	n/a	n/a	1	51	n/a	n/a	4
1176.0598	1	10	n/a	n/a	1	51	n/a	n/a	5
1177.2764	1	10	n/a	n/a	1	51	n/a	n/a	6
1178.0798	1	81	n/a	n/a	1	0	n/a	n/a	0
1178.2798	1	81	n/a	n/a	1	0	n/a	n/a	0
1178.4798	1	81	n/a	n/a	1	0	n/a	n/a	0
1178.6798	1	81	n/a	n/a	1	0	n/a	n/a	0
1178.8798	1	81	n/a	n/a	1	0	n/a	n/a	0
1179.0798	1	81	n/a	n/a	1	0	n/a	n/a	0
1179.2798	1	81	n/a	n/a	1	0	n/a	n/a	0
1179.4798	1	81	n/a	n/a	1	0	n/a	n/a	0
1179.6798	1	81	n/a	n/a	1	0	n/a	n/a	0
1179.8798	1	81	n/a	n/a	1	0	n/a	n/a	0
1181.2928	1	10	n/a	n/a	1	51	n/a	n/a	1
1182.4762	1	10	n/a	n/a	1	51	n/a	n/a	2
1183.676	1	10	n/a	n/a	1	51	n/a	n/a	3
1184.8426	1	10	n/a	n/a	1	51	n/a	n/a	4
1185.876	1	10	n/a	n/a	1	51	n/a	n/a	5
1186.9092	1	21	n/a	n/a	1	51	n/a	n/a	0
1188.2092	1	10	n/a	n/a	1	51	n/a	n/a	1
1189.2758	1	10	n/a	n/a	1	51	n/a	n/a	2
1190.4924	1	10	n/a	n/a	1	51	n/a	n/a	3
1191.709	1	21	n/a	n/a	1	51	n/a	n/a	0
1192.9756	1	10	n/a	n/a	1	51	n/a	n/a	1
1194.2588	1	21	n/a	n/a	1	51	n/a	n/a	0
1195.3754	1	10	n/a	n/a	1	51	n/a	n/a	1
1196.642	1	10	n/a	n/a	1	51	n/a	n/a	2
1197.7586	1	10	n/a	n/a	1	51	n/a	n/a	3
1198.8752	1	21	n/a	n/a	1	51	n/a	n/a	0
1199.9918	1	10	n/a	n/a	1	51	n/a	n/a	1
1201.2584	1	10	n/a	n/a	1	51	n/a	n/a	2
1202.525	1	10	n/a	n/a	1	51	n/a	n/a	3
1203.7582	1	10	n/a	n/a	1	51	n/a	n/a	4
1212.6224	1	81	n/a	n/a	1	0	n/a	n/a	0
1212.8224	1	81	n/a	n/a	1	0	n/a	n/a	0
1213.0224	1	81	n/a	n/a	1	0	n/a	n/a	0
1213.2224	1	81	n/a	n/a	1	0	n/a	n/a	0
1213.4224	1	81	n/a	n/a	1	0	n/a	n/a	0
1213.6224	1	81	n/a	n/a	1	0	n/a	n/a	0
1213.8224	1	81	n/a	n/a	1	0	n/a	n/a	0
1214.0224	1	81	n/a	n/a	1	0	n/a	n/a	0
1214.2224	1	81	n/a	n/a	1	0	n/a	n/a	0
1214.4224	1	81	n/a	n/a	1	0	n/a	n/a	0
1215.7074	1	10	n/a	n/a	1	50	n/a	n/a	1
1216.974	1	10	n/a	n/a	1	50	n/a	n/a	2
1218.1406	1	10	n/a	n/a	1	50	n/a	n/a	3
1219.424	1	10	n/a	n/a	1	50	n/a	n/a	4
1220.5906	1	10	n/a	n/a	1	50	n/a	n/a	5
1221.6572	1	10	n/a	n/a	1	50	n/a	n/a	6
1222.957	1	10	n/a	n/a	1	50	n/a	n/a	7
1224.257	1	21	n/a	n/a	1	50	n/a	n/a	0
1225.5736	1	10	n/a	n/a	1	50	n/a	n/a	1
1226.8902	1	21	n/a	n/a	1	50	n/a	n/a	0
1228.0568	1	10	n/a	n/a	1	50	n/a	n/a	1
1229.09	1	10	n/a	n/a	1	50	n/a	n/a	2
1230.2232	1	10	n/a	n/a	1	50	n/a	n/a	3
1231.4898	1	10	n/a	n/a	1	50	n/a	n/a	4
1232.5898	1	10	n/a	n/a	1	50	n/a	n/a	5
1233.773	1	10	n/a	n/a	1	50	n/a	n/a	6
1234.8896	1	10	n/a	n/a	1	50	n/a	n/a	7
1236.0062	1	21	n/a	n/a	1	50	n/a	n/a	0
1237.0562	1	10	n/a	n/a	1	50	n/a	n/a	1
1238.1062	1	21	n/a	n/a	1	50	n/a	n/a	0
1239.0346	1	81	n/a	n/a	1	0	n/a	n/a	0
1239.2346	1	81	n/a	n/a	1	0	n/a	n/a	0
1239.4346	1	81	n/a	n/a	1	0	n/a	n/a	0
1239.6346	1	81	n/a	n/a	1	0	n/a	n/a	0
1239.8346	1	81	n/a	n/a	1	0	n/a	n/a	0
1240.0346	1	81	n/a	n/a	1	0	n/a	n/a	0
1240.2346	1	81	n/a	n/a	1	0	n/a	n/a	0
1240.4346	1	81	n/a	n/a	1	0	n/a	n/a	0
1240.6346	1	81	n/a	n/a	1	0	n/a	n/a	0
1240.8346	1	81	n/a	n/a	1	0	n/a	n/a	0
1242.0892	1	10	n/a	n/a	1	50	n/a	n/a	1
1243.1558	1	10	n/a	n/a	1	50	n/a	n/a	2
1244.4724	1	10	n/a	n/a	1	50	n/a	n/a	3
1245.6056	1	10	n/a	n/a	1	50	n/a	n/a	4
1246.6556	1	10	n/a	n/a	1	50	n/a	n/a	5
1247.7056	1	21	n/a	n/a	1	50	n/a	n/a	0
1248.8722	1	10	n/a	n/a	1	50	n/a	n/a	1
1249.9554	1	10	n/a	n/a	1	50	n/a	n/a	2
1251.0388	1	10	n/a	n/a	1	50	n/a	n/a	3
1252.2052	1	10	n/a	n/a	1	50	n/a	n/a	4
1253.3052	1	10	n/a	n/a	1	50	n/a	n/a	5
1254.4052	1	21	n/a	n/a	1	50	n/a	n/a	0
1255.4884	1	10	n/a	n/a	1	50	n/a	n/a	1
1256.5218	1	10	n/a	n/a	1	50	n/a	n/a	2
1257.8216	1	10	n/a	n/a	1	50	n/a	n/a	3
1259.0716	1	10	n/a	n/a	1	50	n/a	n/a	4
1260.1714	1	10	n/a	n/a	1	50	n/a	n/a	5
1261.2214	1	10	n/a	n/a	1	50	n/a	n/a	6
1262.3714	1	10	n/a	n/a	1	50	n/a	n/a	7
1263.5212	1	21	n/a	n/a	1	50	n/a	n/a	0
1264.574	1	81	n/a	n/a	1	0	n/a	n/a	0
1264.774	1	81	n/a	n/a	1	0	n/a	n/a	0
1264.974	1	81	n/a	n/a	1	0	n/a	n/a	0
1265.174	1	81	n/a	n/a	1	0	n/a	n/a	0
1265.374	1	81	n/a	n/a	1	0	n/a	n/a	0
1265.574	1	81	n/a	n/a	1	0	n/a	n/a	0
1265.774	1	81	n/a	n/a	1	0	n/a	n/a	0
1265.974	1	81	n/a	n/a	1	0	n/a	n/a	0
1266.174	1	81	n/a	n/a	1	0	n/a	n/a	0
1266.374	1	81	n/a	n/a	1	0	n/a	n/a	0
1267.6878	1	10	n/a	n/a	1	50	n/a	n/a	1
1268.9044	1	21	n/a	n/a	1	50	n/a	n/a	0
1270.0042	1	10	n/a	n/a	1	50	n/a	n/a	1
1271.1376	1	10	n/a	n/a	1	50	n/a	n/a	2
1272.454	1	10	n/a	n/a	1	50	n/a	n/a	3
1273.7706	1	21	n/a	n/a	1	50	n/a	n/a	0
1275.0872	1	10	n/a	n/a	1	50	n/a	n/a	1
1276.1538	1	10	n/a	n/a	1	50	n/a	n/a	2
1277.4538	1	10	n/a	n/a	1	50	n/a	n/a	3
1278.6538	1	10	n/a	n/a	1	50	n/a	n/a	4
1279.8704	1	10	n/a	n/a	1	50	n/a	n/a	5
1281.087	1	21	n/a	n/a	1	50	n/a	n/a	0
1282.2536	1	10	n/a	n/a	1	50	n/a	n/a	1
1283.4702	1	10	n/a	n/a	1	50	n/a	n/a	2
1284.5368	1	10	n/a	n/a	1	50	n/a	n/a	3
1285.8366	1	10	n/a	n/a	1	50	n/a	n/a	4
1286.9366	1	10	n/a	n/a	1	50	n/a	n/a	5
1288.0364	1	10	n/a	n/a	1	50	n/a	n/a	6
1289.153	1	10	n/a	n/a	1	50	n/a	n/a	7
1290.2696	1	21	n/a	n/a	1	50	n/a	n/a	0
1291.0644	1	81	n/a	n/a	1	0	n/a	n/a	0
1291.2644	1	81	n/a	n/a	1	0	n/a	n/a	0
1291.4644	1	81	n/a	n/a	1	0	n/a	n/a	0
1291.6644	1	81	n/a	n/a	1	0	n/a	n/a	0
1291.8644	1	81	n/a	n/a	1	0	n/a	n/a	0
1292.0644	1	81	n/a	n/a	1	0	n/a	n/a	0
1292.2644	1	81	n/a	n/a	1	0	n/a	n/a	0
1292.4644	1	81	n/a	n/a	1	0	n/a	n/a	0
1292.6644	1	81	n/a	n/a	1	0	n/a	n/a	0
1292.8644	1	81	n/a	n/a	1	0	n/a	n/a	0
1294.1362	1	10	n/a	n/a	1	50	n/a	n/a	1
1295.2194	1	10	n/a	n/a	1	50	n/a	n/a	2
1296.4194	1	10	n/a	n/a	1	50	n/a	n/a	3
1297.5692	1	10	n/a	n/a	1	50	n/a	n/a	4
1298.7026	1	10	n/a	n/a	1	50	n/a	n/a	5
1299.8358	1	21	n/a	n/a	1	50	n/a	n/a	0
1301.0024	1	10	n/a	n/a	1	50	n/a	n/a	1
1302.269	1	10	n/a	n/a	1	50	n/a	n/a	2
1303.369	1	10	n/a	n/a	1	50	n/a	n/a	3
1304.5022	1	10	n/a	n/a	1	50	n/a	n/a	4
1305.7854	1	10	n/a	n/a	1	50	n/a	n/a	5
1307.0686	1	21	n/a	n/a	1	50	n/a	n/a	0
1308.2852	1	10	n/a	n/a	1	50	n/a	n/a	1
1309.5018	1	21	n/a	n/a	1	50	n/a	n/a	0
1310.8352	1	10	n/a	n/a	1	50	n/a	n/a	1
1312.0684	1	10	n/a	n/a	1	50	n/a	n/a	2
1313.135	1	10	n/a	n/a	1	50	n/a	n/a	3
1314.435	1	10	n/a	n/a	1	50	n/a	n/a	4
1315.5348	1	10	n/a	n/a	1	50	n/a	n/a	5
1316.7682	1	10	n/a	n/a	1	50	n/a	n/a	6
1317.4948	1	81	n/a	n/a	1	0	n/a	n/a	0
1317.6948	1	81	n/a	n/a	1	0	n/a	n/a	0
1317.8948	1	81	n/a	n/a	1	0	n/a	n/a	0
1318.0948	1	81	n/a	n/a	1	0	n/a	n/a	0
1318.2948	1	81	n/a	n/a	1	0	n/a	n/a	0
1318.4948	1	81	n/a	n/a	1	0	n/a	n/a	0
1318.6948	1	81	n/a	n/a	1	0	n/a	n/a	0
1318.8948	1	81	n/a	n/a	1	0	n/a	n/a	0
1319.0948	1	81	n/a	n/a	1	0	n/a	n/a	0
1319.2948	1	81	n/a	n/a	1	0	n/a	n/a	0
1320.4346	1	10	n/a	n/a	1	50	n/a	n/a	1
1321.4678	1	10	n/a	n/a	1	50	n/a	n/a	2
1322.701	1	10	n/a	n/a	1	50	n/a	n/a	3
1323.801	1	10	n/a	n/a	1	50	n/a	n/a	4
1325.0676	1	10	n/a	n/a	1	50	n/a	n/a	5
1326.3342	1	21	n/a	n/a	1	50	n/a	n/a	0
1327.6508	1	10	n/a	n/a	1	50	n/a	n/a	1
1328.9674	1	21	n/a	n/a	1	50	n/a	n/a	0
1330.0674	1	10	n/a	n/a	1	50	n/a	n/a	1
1331.2506	1	10	n/a	n/a	1	50	n/a	n/a	2
1332.3672	1	10	n/a	n/a	1	50	n/a	n/a	3
1333.5504	1	10	n/a	n/a	1	50	n/a	n/a	4
1334.7004	1	10	n/a	n/a	1	50	n/a	n/a	5
1335.8504	1	21	n/a	n/a	1	50	n/a	n/a	0
1336.9002	1	10	n/a	n/a	1	50	n/a	n/a	1
1338.0502	1	10	n/a	n/a	1	50	n/a	n/a	2
1339.2834	1	10	n/a	n/a	1	50	n/a	n/a	3
1340.5166	1	21	n/a	n/a	1	50	n/a	n/a	0
1341.7166	1	10	n/a	n/a	1	50	n/a	n/a	1
1342.8998	1	10	n/a	n/a	1	50	n/a	n/a	2
1354.3074	1	82	n/a	n/a	1	0	n/a	n/a	0
1354.6844	1	82	n/a	n/a	1	0	n/a	n/a	0
1354.8194	1	82	n/a	n/a	1	0	n/a	n/a	0
1355.1064	1	82	n/a	n/a	1	0	n/a	n/a	0
1355.1314	1	82	n/a	n/a	1	0	n/a	n/a	0
1355.3074	1	82	n/a	n/a	1	0	n/a	n/a	0
1355.3764	1	82	n/a	n/a	1	0	n/a	n/a	0
1355.3964	1	82	n/a	n/a	1	0	n/a	n/a	0
1355.4994	1	82	n/a	n/a	1	0	n/a	n/a	0
1355.9004	1	82	n/a	n/a	1	0	n/a	n/a	0
1357.4656	1	10	n/a	n/a	1	52	n/a	n/a	1
1358.7322	1	10	n/a	n/a	1	52	n/a	n/a	2
1359.9822	1	10	n/a	n/a	1	52	n/a	n/a	3
1361.1988	1	10	n/a	n/a	1	52	n/a	n/a	4
1362.4488	1	10	n/a	n/a	1	52	n/a	n/a	5
1363.482	1	10	n/a	n/a	1	52	n/a	n/a	6
1364.5652	1	10	n/a	n/a	1	52	n/a	n/a	7
1365.6486	1	21	n/a	n/a	1	52	n/a	n/a	0
1366.7818	1	10	n/a	n/a	1	52	n/a	n/a	1
1367.8984	1	10	n/a	n/a	1	52	n/a	n/a	2
1368.9316	1	10	n/a	n/a	1	52	n/a	n/a	3
1370.1816	1	10	n/a	n/a	1	52	n/a	n/a	4
1371.3316	1	10	n/a	n/a	1	52	n/a	n/a	5
1372.4814	1	21	n/a	n/a	1	52	n/a	n/a	0
1373.5814	1	10	n/a	n/a	1	52	n/a	n/a	1
1374.6646	1	10	n/a	n/a	1	52	n/a	n/a	2
1375.8146	1	10	n/a	n/a	1	52	n/a	n/a	3
1376.9478	1	10	n/a	n/a	1	52	n/a	n/a	4
1378.1144	1	10	n/a	n/a	1	52	n/a	n/a	5
1379.3478	1	10	n/a	n/a	1	52	n/a	n/a	6
1380.3664	1	82	n/a	n/a	1	0	n/a	n/a	0
1380.4474	1	82	n/a	n/a	1	0	n/a	n/a	0
1380.5994	1	82	n/a	n/a	1	0	n/a	n/a	0
1380.9604	1	82	n/a	n/a	1	0	n/a	n/a	0
1381.0914	1	82	n/a	n/a	1	0	n/a	n/a	0
1381.3664	1	82	n/a	n/a	1	0	n/a	n/a	0
1381.7034	1	82	n/a	n/a	1	0	n/a	n/a	0
1382.0104	1	82	n/a	n/a	1	0	n/a	n/a	0
1382.2624	1	82	n/a	n/a	1	0	n/a	n/a	0
1382.3344	1	82	n/a	n/a	1	0	n/a	n/a	0
1383.4974	1	10	n/a	n/a	1	52	n/a	n/a	1
1384.7808	1	10	n/a	n/a	1	52	n/a	n/a	2
1385.964	1	10	n/a	n/a	1	52	n/a	n/a	3
1387.0306	1	10	n/a	n/a	1	52	n/a	n/a	4
1388.0806	1	10	n/a	n/a	1	52	n/a	n/a	5
1389.1304	1	21	n/a	n/a	1	52	n/a	n/a	0
1390.4138	1	10	n/a	n/a	1	52	n/a	n/a	1
1391.697	1	21	n/a	n/a	1	52	n/a	n/a	0
1392.747	1	10	n/a	n/a	1	52	n/a	n/a	1
1394.0136	1	10	n/a	n/a	1	52	n/a	n/a	2
1395.33	1	10	n/a	n/a	1	52	n/a	n/a	3
1396.6466	1	21	n/a	n/a	1	52	n/a	n/a	0
1397.7632	1	10	n/a	n/a	1	52	n/a	n/a	1
1398.9798	1	10	n/a	n/a	1	52	n/a	n/a	2
1400.2798	1	10	n/a	n/a	1	52	n/a	n/a	3
1401.513	1	10	n/a	n/a	1	52	n/a	n/a	4
1402.663	1	10	n/a	n/a	1	52	n/a	n/a	5
1403.7962	1	10	n/a	n/a	1	52	n/a	n/a	6
1404.8296	1	10	n/a	n/a	1	52	n/a	n/a	7
1405.8628	1	21	n/a	n/a	1	52	n/a	n/a	0
1406.9426	1	82	n/a	n/a	1	0	n/a	n/a	0
1407.1216	1	82	n/a	n/a	1	0	n/a	n/a	0
1407.1546	1	82	n/a	n/a	1	0	n/a	n/a	0
1407.2596	1	82	n/a	n/a	1	0	n/a	n/a	0
1407.6166	1	82	n/a	n/a	1	0	n/a	n/a	0
1407.9426	1	82	n/a	n/a	1	0	n/a	n/a	0
1408.1036	1	82	n/a	n/a	1	0	n/a	n/a	0
1408.4396	1	82	n/a	n/a	1	0	n/a	n/a	0
1408.5706	1	82	n/a	n/a	1	0	n/a	n/a	0
1408.6096	1	82	n/a	n/a	1	0	n/a	n/a	0
1410.0126	1	10	n/a	n/a	1	52	n/a	n/a	1
1411.1292	1	10	n/a	n/a	1	52	n/a	n/a	2
1412.2624	1	10	n/a	n/a	1	52	n/a	n/a	3
1413.3456	1	10	n/a	n/a	1	52	n/a	n/a	4
1414.4456	1	10	n/a	n/a	1	52	n/a	n/a	5
1415.5456	1	21	n/a	n/a	1	52	n/a	n/a	0
1416.6454	1	10	n/a	n/a	1	52	n/a	n/a	1
1417.8788	1	10	n/a	n/a	1	52	n/a	n/a	2
1419.112	1	10	n/a	n/a	1	52	n/a	n/a	3
1420.3452	1	21	n/a	n/a	1	52	n/a	n/a	0
1421.6618	1	10	n/a	n/a	1	52	n/a	n/a	1
1422.8284	1	10	n/a	n/a	1	52	n/a	n/a	2
1423.9618	1	10	n/a	n/a	1	52	n/a	n/a	3
1425.1284	1	10	n/a	n/a	1	52	n/a	n/a	4
1426.2782	1	10	n/a	n/a	1	52	n/a	n/a	5
1427.4282	1	21	n/a	n/a	1	52	n/a	n/a	0
1428.4782	1	10	n/a	n/a	1	52	n/a	n/a	1
1429.528	1	21	n/a	n/a	1	52	n/a	n/a	0
1430.7614	1	10	n/a	n/a	1	52	n/a	n/a	1
1431.8446	1	10	n/a	n/a	1	52	n/a	n/a	2
1432.566	1	82	n/a	n/a	1	0	n/a	n/a	0
1432.587	1	82	n/a	n/a	1	0	n/a	n/a	0
1433.019	1	82	n/a	n/a	1	0	n/a	n/a	0
1433.185	1	82	n/a	n/a	1	0	n/a	n/a	0
1433.506	1	82	n/a	n/a	1	0	n/a	n/a	0
1433.566	1	82	n/a	n/a	1	0	n/a	n/a	0
1433.981	1	82	n/a	n/a	1	0	n/a	n/a	0
1434.278	1	82	n/a	n/a	1	0	n/a	n/a	0
1434.305	1	82	n/a	n/a	1	0	n/a	n/a	0
1434.364	1	82	n/a	n/a	1	0	n/a	n/a	0
1435.4944	1	10	n/a	n/a	1	52	n/a	n/a	1
1436.7276	1	10	n/a	n/a	1	52	n/a	n/a	2
1437.9442	1	10	n/a	n/a	1	52	n/a	n/a	3
1439.1774	1	10	n/a	n/a	1	52	n/a	n/a	4
1440.344	1	10	n/a	n/a	1	52	n/a	n/a	5
1441.5106	1	21	n/a	n/a	1	52	n/a	n/a	0
1442.8106	1	10	n/a	n/a	1	52	n/a	n/a	1
1443.9272	1	10	n/a	n/a	1	52	n/a	n/a	2
1445.0772	1	10	n/a	n/a	1	52	n/a	n/a	3
1446.2604	1	10	n/a	n/a	1	52	n/a	n/a	4
1447.427	1	10	n/a	n/a	1	52	n/a	n/a	5
1448.6936	1	10	n/a	n/a	1	52	n/a	n/a	6
1449.7268	1	10	n/a	n/a	1	52	n/a	n/a	7
1450.7602	1	21	n/a	n/a	1	52	n/a	n/a	0
1452.0434	1	10	n/a	n/a	1	52	n/a	n/a	1
1453.3432	1	10	n/a	n/a	1	52	n/a	n/a	2
1454.6098	1	10	n/a	n/a	1	52	n/a	n/a	3
1455.9264	1	10	n/a	n/a	1	52	n/a	n/a	4
1456.9598	1	10	n/a	n/a	1	52	n/a	n/a	5
1458.093	1	10	n/a	n/a	1	52	n/a	n/a	6
1458.9676	1	82	n/a	n/a	1	0	n/a	n/a	0
1459.2486	1	82	n/a	n/a	1	0	n/a	n/a	0
1459.2716	1	82	n/a	n/a	1	0	n/a	n/a	0
1459.5766	1	82	n/a	n/a	1	0	n/a	n/a	0
1459.8136	1	82	n/a	n/a	1	0	n/a	n/a	0
1459.9676	1	82	n/a	n/a	1	0	n/a	n/a	0
1460.0466	1	82	n/a	n/a	1	0	n/a	n/a	0
1460.2156	1	82	n/a	n/a	1	0	n/a	n/a	0
1460.4266	1	82	n/a	n/a	1	0	n/a	n/a	0
1460.5316	1	82	n/a	n/a	1	0	n/a	n/a	0
1462.0428	1	10	n/a	n/a	1	52	n/a	n/a	1
1463.2428	1	10	n/a	n/a	1	52	n/a	n/a	2
1464.476	1	10	n/a	n/a	1	52	n/a	n/a	3
1465.6426	1	10	n/a	n/a	1	52	n/a	n/a	4
1466.8258	1	10	n/a	n/a	1	52	n/a	n/a	5
1468.009	1	21	n/a	n/a	1	52	n/a	n/a	0
1469.109	1	10	n/a	n/a	1	52	n/a	n/a	1
1470.2256	1	10	n/a	n/a	1	52	n/a	n/a	2
1471.3756	1	10	n/a	n/a	1	52	n/a	n/a	3
1472.5254	1	21	n/a	n/a	1	52	n/a	n/a	0
1473.6588	1	10	n/a	n/a	1	52	n/a	n/a	1
1474.9586	1	10	n/a	n/a	1	52	n/a	n/a	2
1581.6842	1	10	n/a	n/a	1	52	n/a	n/a	3
1582.7842	1	10	n/a	n/a	1	52	n/a	n/a	4
1583.9674	1	10	n/a	n/a	1	52	n/a	n/a	5
1585.1674	1	10	n/a	n/a	1	52	n/a	n/a	6
1586.284	1	10	n/a	n/a	1	52	n/a	n/a	7
1587.4006	1	21	n/a	n/a	1	52	n/a	n/a	0
1588.5504	1	10	n/a	n/a	1	52	n/a	n/a	1
1589.617	1	10	n/a	n/a	1	52	n/a	n/a	2
1620.271	1	82	n/a	n/a	1	0	0	0	0
1620.523	1	82	n/a	n/a	1	0	0	0	0
1620.872	1	82	n/a	n/a	1	0	0	0	0
1620.939	1	82	n/a	n/a	1	0	0	0	0
1621.167	1	82	n/a	n/a	1	0	0	0	0
1621.271	1	82	n/a	n/a	1	0	0	0	0
1621.322	1	82	n/a	n/a	1	0	0	0	0
1621.591	1	82	n/a	n/a	1	0	0	0	0
1621.776	1	82	n/a	n/a	1	0	0	0	0
1622.072	1	82	n/a	n/a	1	0	0	0	0
1623.465	1	10	n/a	n/a	1	52	0	0	1
1624.6816	1	10	n/a	n/a	1	52	0	0	2
1625.965	1	10	n/a	n/a	1	52	0.1	0	3
1627.1148	1	10	n/a	n/a	1	52	-0.1	0	4
1628.2648	1	10	n/a	n/a	1	52	0.1	0	5
1629.348	1	10	n/a	n/a	1	52	-0.1	0	6
1630.4646	1	10	n/a	n/a	1	52	0	0	7
1631.5812	1	21	n/a	n/a	1	52	0	0	0
1632.6312	1	10	n/a	n/a	1	52	0	0	1
1633.9312	1	10	n/a	n/a	1	52	0.1	0	2
1635.2144	1	10	n/a	n/a	1	52	-0.1	0	3
1636.4976	1	21	n/a	n/a	1	52	2.3283e-10	0	0
1637.5808	1	10	n/a	n/a	1	52	-0.1	0	1
1638.6642	1	10	n/a	n/a	1	52	0.1	0	2
1639.914	1	10	n/a	n/a	1	52	-0.1	0	3
1641.164	1	10	n/a	n/a	1	52	0.1	0	4
1642.364	1	10	n/a	n/a	1	52	0	0	5
1643.5638	1	21	n/a	n/a	1	52	-0.1	0	0
1644.6972	1	10	n/a	n/a	1	52	0.1	0	1
1645.797	1	10	n/a	n/a	1	52	-0.1	0	2
1646.5236	1	82	n/a	n/a	1	0	0.1	0	0
1646.6486	1	82	n/a	n/a	1	0	0	0	0
1646.9306	1	82	n/a	n/a	1	0	0	0	0
1647.0316	1	82	n/a	n/a	1	0	0	0	0
1647.4676	1	82	n/a	n/a	1	0	0	0	0
1647.5236	1	82	n/a	n/a	1	0	0	0	0
1647.8956	1	82	n/a	n/a	1	0	0	0	0
1647.9796	1	82	n/a	n/a	1	0	0	0	0
1648.2476	1	82	n/a	n/a	1	0	0	0	0
1648.2746	1	82	n/a	n/a	1	0	0	0	0
1649.6134	1	10	n/a	n/a	1	52	-0.2	0	1
1650.8134	1	21	n/a	n/a	1	52	0.1	0	0
1651.88	1	10	n/a	n/a	1	52	0	0	1
1652.93	1	10	n/a	n/a	1	52	0.1	0	2
1654.0966	1	10	n/a	n/a	1	52	0	0	3
1655.1632	1	10	n/a	n/a	1	52	-0.1	0	4
1656.2298	1	10	n/a	n/a	1	52	0	0	5
1657.2964	1	21	n/a	n/a	1	52	0	0	0
1658.5796	1	10	n/a	n/a	1	52	2.3283e-10	0	1
1659.8796	1	21	n/a	n/a	1	52	0	0	0
1660.9294	1	10	n/a	n/a	1	52	-0.1	0	1
1661.9628	1	10	n/a	n/a	1	52	0.1	0	2
1663.246	1	10	n/a	n/a	1	52	0	0	3
1664.4626	1	10	n/a	n/a	1	52	2.3283e-10	0	4
1665.5626	1	10	n/a	n/a	1	52	0	0	5
1666.6292	1	10	n/a	n/a	1	52	-2.3283e-10	0	6
1667.8124	1	10	n/a	n/a	1	52	-0.1	0	7
1668.9956	1	21	n/a	n/a	1	52	2.3283e-10	0	0
1670.279	1	10	n/a	n/a	1	52	0.1	0	1
1671.4456	1	10	n/a	n/a	1	52	2.3283e-10	0	2
1672.5292	1	82	n/a	n/a	1	0	-2.3283e-10	0	0
1672.9122	1	82	n/a	n/a	1	0	0	0	0
1673.0722	1	82	n/a	n/a	1	0	0	0	0
1673.1852	1	82	n/a	n/a	1	0	0	0	0
1673.4552	1	82	n/a	n/a	1	0	0	0	0
1673.5292	1	82	n/a	n/a	1	0	0	0	0
1673.6892	1	82	n/a	n/a	1	0	0	0	0
1673.9812	1	82	n/a	n/a	1	0	0	0	0
1674.0292	1	82	n/a	n/a	1	0	0	0	0
1674.3422	1	82	n/a	n/a	1	0	0	0	0
1675.4952	1	10	n/a	n/a	1	52	-0.2	0	1
1676.6952	1	10	n/a	n/a	1	52	0.1	0	2
1677.8618	1	10	n/a	n/a	1	52	2.3283e-10	0	3
1678.9618	1	10	n/a	n/a	1	52	0.1	0	4
1680.245	1	10	n/a	n/a	1	52	-0.1	0	5
1681.5282	1	21	n/a	n/a	1	52	-0.1	0	0
1682.6782	1	10	n/a	n/a	1	52	0.1	0	1
1683.8282	1	21	n/a	n/a	1	52	0.1	0	0
1684.8614	1	10	n/a	n/a	1	52	-0.1	0	1
1685.9114	1	10	n/a	n/a	1	52	0.1	0	2
1687.1446	1	10	n/a	n/a	1	52	-0.1	0	3
1688.2446	1	10	n/a	n/a	1	52	0	0	4
1689.4612	1	10	n/a	n/a	1	52	-2.3283e-10	0	5
1690.5278	1	10	n/a	n/a	1	52	2.3283e-10	0	6
1691.811	1	10	n/a	n/a	1	52	0	0	7
1693.0942	1	21	n/a	n/a	1	52	-0.1	0	0
1694.1276	1	10	n/a	n/a	1	52	0.1	0	1
1695.4274	1	10	n/a	n/a	1	52	-0.1	0	2
1696.5608	1	10	n/a	n/a	1	52	0.1	0	3
1697.7272	1	10	n/a	n/a	1	52	-0.2	0	4
1698.6148	1	82	n/a	n/a	1	0	0.1	0	0
1698.7128	1	82	n/a	n/a	1	0	0	0	0
1698.9898	1	82	n/a	n/a	1	0	0	0	0
1699.2318	1	82	n/a	n/a	1	0	0	0	0
1699.3848	1	82	n/a	n/a	1	0	0	0	0
1699.6148	1	82	n/a	n/a	1	0	0	0	0
1699.7208	1	82	n/a	n/a	1	0	0	0	0
1700.0968	1	82	n/a	n/a	1	0	0	0	0
1700.3568	1	82	n/a	n/a	1	0	0	0	0
1700.5078	1	82	n/a	n/a	1	0	0	0	0
1701.827	1	10	n/a	n/a	1	52	0	0	1
1703.1436	1	21	n/a	n/a	1	52	0	0	0
1704.3936	1	10	n/a	n/a	1	52	0	0	1
1705.6434	1	10	n/a	n/a	1	52	-0.1	0	2
1706.8268	1	10	n/a	n/a	1	52	0.1	0	3
1707.9434	1	10	n/a	n/a	1	52	0	0	4
1709.01	1	10	n/a	n/a	1	52	0	0	5
1710.3098	1	10	n/a	n/a	1	52	-0.1	0	6
1711.5432	1	10	n/a	n/a	1	52	17.9	0	7
1712.7264	1	21	n/a	n/a	1	52	-17.8	0	0
1713.7764	1	10	n/a	n/a	1	52	0	0	1
1714.8262	1	21	n/a	n/a	1	52	-0.1	0	0
1715.9762	1	10	n/a	n/a	1	52	0	0	1
1717.1262	1	21	n/a	n/a	1	52	0.1	0	0
1718.3428	1	10	n/a	n/a	1	52	0	0	1
1719.3926	1	10	n/a	n/a	1	52	-0.1	0	2
1720.6592	1	10	n/a	n/a	1	52	2.3283e-10	0	3
1721.9258	1	21	n/a	n/a	1	52	0	0	0
1723.2258	1	10	n/a	n/a	1	52	0.1	0	1
1724.5256	1	21	n/a	n/a	1	52	-0.2	0	0
1725.6154	1	82	n/a	n/a	1	0	0.1	0	0
1725.7564	1	82	n/a	n/a	1	0	0	0	0
1725.8024	1	82	n/a	n/a	1	0	0	0	0
1725.8904	1	82	n/a	n/a	1	0	0	0	0
1726.3094	1	82	n/a	n/a	1	0	0	0	0
1726.6154	1	82	n/a	n/a	1	0	0	0	0
1726.6584	1	82	n/a	n/a	1	0	0	0	0
1727.0824	1	82	n/a	n/a	1	0	0	0	0
1727.2764	1	82	n/a	n/a	1	0	0	0	0
1727.3424	1	82	n/a	n/a	1	0	0	0	0
1728.6088	1	10	n/a	n/a	1	52	2.3283e-10	0	1
1729.792	1	10	n/a	n/a	1	52	-0.1	0	2
1731.042	1	10	n/a	n/a	1	52	0.1	0	3
1732.2918	1	21	n/a	n/a	1	52	-0.1	0	0
1733.6084	1	10	n/a	n/a	1	52	-2.3283e-10	0	1
1734.925	1	21	n/a	n/a	1	52	0	0	0
1736.0084	1	10	n/a	n/a	1	52	0.1	0	1
1737.3416	1	10	n/a	n/a	1	52	17.7	0	2
1738.4916	1	10	n/a	n/a	1	52	-17.7	0	3
1739.6414	1	10	n/a	n/a	1	52	-0.1	0	4
1740.8248	1	10	n/a	n/a	1	52	0.1	0	5
1742.008	1	21	n/a	n/a	1	52	-2.3283e-10	0	0
1743.208	1	10	n/a	n/a	1	52	0	0	1
1744.4078	1	21	n/a	n/a	1	52	-0.1	0	0
1745.6578	1	10	n/a	n/a	1	52	0.1	0	1
1746.7578	1	10	n/a	n/a	1	52	0	0	2
1748.0576	1	10	n/a	n/a	1	52	-0.1	0	3
1749.3576	1	21	n/a	n/a	1	52	0.1	0	0
1750.4742	1	10	n/a	n/a	1	52	2.3283e-10	0	1
1751.6408	1	10	n/a	n/a	1	52	0	0	2
1763.9578	1	81	n/a	n/a	1	0	-0.1	0	0
1764.1578	1	81	n/a	n/a	1	0	0	0	0
1764.3578	1	81	n/a	n/a	1	0	0	0	0
1764.5578	1	81	n/a	n/a	1	0	0	0	0
1764.7578	1	81	n/a	n/a	1	0	0	0	0
1764.9578	1	81	n/a	n/a	1	0	0	0	0
1765.1578	1	81	n/a	n/a	1	0	0	0	0
1765.3578	1	81	n/a	n/a	1	0	0	0	0
1765.5578	1	81	n/a	n/a	1	0	0	0	0
1765.7578	1	81	n/a	n/a	1	0	0	0	0
1767.0732	1	10	n/a	n/a	1	50	0	0	1
1768.3564	1	10	n/a	n/a	1	50	-0.1	0	2
1769.673	1	10	n/a	n/a	1	50	4.6566e-10	0	3
1770.973	1	10	n/a	n/a	1	50	0.1	0	4
1772.0062	1	10	n/a	n/a	1	50	-0.1	0	5
1773.0394	1	21	n/a	n/a	1	50	-0.1	0	0
1774.3394	1	10	n/a	n/a	1	50	0.1	0	1
1775.6226	1	10	n/a	n/a	1	50	4.6566e-10	0	2
1776.756	1	10	n/a	n/a	1	50	0.1	0	3
1777.8558	1	10	n/a	n/a	1	50	-0.2	0	4
1778.9892	1	10	n/a	n/a	1	50	0.2	0	5
1780.2558	1	10	n/a	n/a	1	50	0	0	6
1781.4722	1	10	n/a	n/a	1	50	-0.2	0	7
1782.6888	1	21	n/a	n/a	1	50	0	0	0
1783.9054	1	10	n/a	n/a	1	50	2.3283e-10	0	1
1785.0888	1	10	n/a	n/a	1	50	0.1	0	2
1786.122	1	10	n/a	n/a	1	50	-0.1	0	3
1787.422	1	10	n/a	n/a	1	50	0.1	0	4
1788.5718	1	10	n/a	n/a	1	50	-0.1	0	5
1789.7218	1	21	n/a	n/a	1	50	0	0	0
1790.6104	1	81	n/a	n/a	1	0	2.3283e-10	0	0
1790.8104	1	81	n/a	n/a	1	0	0	0	0
1791.0104	1	81	n/a	n/a	1	0	0	0	0
1791.2104	1	81	n/a	n/a	1	0	0	0	0
1791.4104	1	81	n/a	n/a	1	0	0	0	0
1791.6104	1	81	n/a	n/a	1	0	-0.1	0	0
1791.8104	1	81	n/a	n/a	1	0	0	0	0
1792.0104	1	81	n/a	n/a	1	0	0	0	0
1792.2104	1	81	n/a	n/a	1	0	0	0	0
1792.4104	1	81	n/a	n/a	1	0	0	0	0
1793.655	1	10	n/a	n/a	1	50	0.2	0	1
1794.7048	1	10	n/a	n/a	1	50	-0.1	0	2
1795.8714	1	10	n/a	n/a	1	50	2.3283e-10	0	3
1797.088	1	10	n/a	n/a	1	50	0	0	4
1798.3712	1	10	n/a	n/a	1	50	-0.1	0	5
1799.6546	1	21	n/a	n/a	1	50	0.1	0	0
1800.8044	1	10	n/a	n/a	1	50	-0.1	0	1
1802.071	1	10	n/a	n/a	1	50	0	0	2
1803.2544	1	10	n/a	n/a	1	50	0.1	0	3
1804.4376	1	21	n/a	n/a	1	50	0	0	0
1805.5376	1	10	n/a	n/a	1	50	0	0	1
1806.8042	1	10	n/a	n/a	1	50	-2.3283e-10	0	2
1808.0708	1	10	n/a	n/a	1	50	0.1	0	3
1809.3372	1	21	n/a	n/a	1	50	-0.2	0	0
1810.6538	1	10	n/a	n/a	1	50	4.6566e-10	0	1
1811.9704	1	10	n/a	n/a	1	50	-2.3283e-10	0	2
1813.0538	1	10	n/a	n/a	1	50	0.1	0	3
1814.1536	1	21	n/a	n/a	1	50	-0.1	0	0
1815.3202	1	10	n/a	n/a	1	50	-2.3283e-10	0	1
1816.3702	1	10	n/a	n/a	1	50	0	0	2
1817.3538	1	81	n/a	n/a	1	0	0.1	0	0
1817.5538	1	81	n/a	n/a	1	0	0	0	0
1817.7538	1	81	n/a	n/a	1	0	0	0	0
1817.9538	1	81	n/a	n/a	1	0	0	0	0
1818.1538	1	81	n/a	n/a	1	0	0	0	0
1818.3538	1	81	n/a	n/a	1	0	0	0	0
1818.5538	1	81	n/a	n/a	1	0	0	0	0
1818.7538	1	81	n/a	n/a	1	0	0	0	0
1818.9538	1	81	n/a	n/a	1	0	0	0	0
1819.1538	1	81	n/a	n/a	1	0	0	0	0
1820.52	1	10	n/a	n/a	1	50	-0.1	0	1
1821.6366	1	10	n/a	n/a	1	50	0	0	2
1822.8864	1	10	n/a	n/a	1	50	-0.1	0	3
1824.1698	1	10	n/a	n/a	1	50	0.1	0	4
1825.3696	1	10	n/a	n/a	1	50	-0.1	0	5
1826.6696	1	10	n/a	n/a	1	50	0.1	0	6
1827.9528	1	10	n/a	n/a	1	50	-0.1	0	7
1829.2362	1	21	n/a	n/a	1	50	0.2	0	0
1830.4028	1	10	n/a	n/a	1	50	0	0	1
1831.536	1	10	n/a	n/a	1	50	-0.1	0	2
1832.6026	1	10	n/a	n/a	1	50	0	0	3
1833.7692	1	10	n/a	n/a	1	50	-2.3283e-10	0	4
1834.8692	1	10	n/a	n/a	1	50	0	0	5
1835.969	1	21	n/a	n/a	1	50	-0.1	0	0
1837.0874	1	10	n/a	n/a	1	50	1116.6	1	1
1838.2022	1	21	n/a	n/a	1	50	2.3283e-10	0	0
1839.2856	1	10	n/a	n/a	1	50	0.1	0	1
1840.5188	1	10	n/a	n/a	1	50	-0.1	0	2
1841.6188	1	10	n/a	n/a	1	50	0.1	0	3
1842.7852	1	10	n/a	n/a	1	50	-0.2	0	4
1843.683	1	81	n/a	n/a	1	0	0.1	0	0
1843.883	1	81	n/a	n/a	1	0	0	0	0
1844.083	1	81	n/a	n/a	1	0	0	0	0
1844.283	1	81	n/a	n/a	1	0	0	0	0
1844.483	1	81	n/a	n/a	1	0	0	0	0
1844.683	1	81	n/a	n/a	1	0	0	0	0
1844.883	1	81	n/a	n/a	1	0	0	0	0
1845.083	1	81	n/a	n/a	1	0	0	0	0
1845.283	1	81	n/a	n/a	1	0	0	0	0
1845.483	1	81	n/a	n/a	1	0	0	0	0
1846.885	1	10	n/a	n/a	1	50	-0.1	0	1
1848.2016	1	21	n/a	n/a	1	50	4.6566e-10	0	0
1849.5016	1	10	n/a	n/a	1	50	0.1	0	1
1850.7014	1	10	n/a	n/a	1	50	-0.1	0	2
1851.768	1	10	n/a	n/a	1	50	0	0	3
1853.0014	1	10	n/a	n/a	1	50	0.1	0	4
1854.1846	1	10	n/a	n/a	1	50	-0.1	0	5
1855.3178	1	10	n/a	n/a	1	50	-2.3283e-10	0	6
1856.3844	1	10	n/a	n/a	1	50	-2.3283e-10	0	7
1857.451	1	21	n/a	n/a	1	50	0	0	0
1858.4844	1	10	n/a	n/a	1	50	0.1	0	1
1859.7342	1	10	n/a	n/a	1	50	-0.2	0	2
1860.7676	1	10	n/a	n/a	1	50	0.2	0	3
1862.0342	1	10	n/a	n/a	1	50	2.3283e-10	0	4
1863.134	1	10	n/a	n/a	1	50	-0.2	0	5
1864.284	1	10	n/a	n/a	1	50	0.1	0	6
1865.534	1	10	n/a	n/a	1	50	0.1	0	7
1866.7838	1	21	n/a	n/a	1	50	-0.2	0	0
1868.0838	1	10	n/a	n/a	1	50	0.1	0	1
1869.3838	1	21	n/a	n/a	1	50	0.1	0	0
1870.3144	1	81	n/a	n/a	1	0	-0.1	0	0
1870.5144	1	81	n/a	n/a	1	0	0	0	0
1870.7144	1	81	n/a	n/a	1	0	0	0	0
1870.9144	1	81	n/a	n/a	1	0	0	0	0
1871.1144	1	81	n/a	n/a	1	0	0	0	0
1871.3144	1	81	n/a	n/a	1	0	0	0	0
1871.5144	1	81	n/a	n/a	1	0	0	0	0
1871.7144	1	81	n/a	n/a	1	0	0	0	0
1871.9144	1	81	n/a	n/a	1	0	0	0	0
1872.1144	1	81	n/a	n/a	1	0	0	0	0
1873.3668	1	10	n/a	n/a	1	50	2.3283e-10	0	1
1874.5	1	10	n/a	n/a	1	50	-0.1	0	2
1875.7334	1	10	n/a	n/a	1	50	0.1	0	3
1876.9666	1	21	n/a	n/a	1	50	4.6566e-10	0	0
1878.0332	1	10	n/a	n/a	1	50	-2.3283e-10	0	1
1879.2832	1	10	n/a	n/a	1	50	0	0	2
1880.433	1	10	n/a	n/a	1	50	-0.1	0	3
1881.633	1	10	n/a	n/a	1	50	0.1	0	4
1882.7662	1	10	n/a	n/a	1	50	-0.1	0	5
1883.8662	1	10	n/a	n/a	1	50	0	0	6
1885.1328	1	10	n/a	n/a	1	50	0.1	0	7
1886.3994	1	21	n/a	n/a	1	50	-2.3283e-10	0	0
1887.4992	1	10	n/a	n/a	1	50	-0.2	0	1
1888.6826	1	10	n/a	n/a	1	50	0.2	0	2
1889.9824	1	10	n/a	n/a	1	50	-0.2	0	3
1891.1324	1	10	n/a	n/a	1	50	0.1	0	4
1892.4156	1	10	n/a	n/a	1	50	-0.1	0	5
1893.499	1	10	n/a	n/a	1	50	18	0	6
1894.6156	1	10	n/a	n/a	1	50	-17.9	0	7
1895.7654	1	21	n/a	n/a	1	50	-0.1	0	0
1908.583	1	81	n/a	n/a	1	0	-0.1	0	0
1908.783	1	81	n/a	n/a	1	0	0	0	0
1908.983	1	81	n/a	n/a	1	0	0	0	0
1909.183	1	81	n/a	n/a	1	0	0	0	0
1909.383	1	81	n/a	n/a	1	0	0	0	0
1909.5832	1	81	n/a	n/a	1	0	0.2	0	0
1909.7832	1	81	n/a	n/a	1	0	0	0	0
1909.9832	1	81	n/a	n/a	1	0	0	0	0
1910.1832	1	81	n/a	n/a	1	0	0	0	0
1910.3832	1	81	n/a	n/a	1	0	0	0	0
1911.7146	1	10	n/a	n/a	1	51	2.3283e-10	0	1
1912.9144	1	10	n/a	n/a	1	51	-0.1	0	2
1914.1644	1	10	n/a	n/a	1	51	0	0	3
1915.4476	1	10	n/a	n/a	1	51	0	0	4
1916.5142	1	10	n/a	n/a	1	51	-2.3283e-10	0	5
1917.6642	1	10	n/a	n/a	1	51	0	0	6
1918.7808	1	10	n/a	n/a	1	51	0	0	7
1919.8974	1	21	n/a	n/a	1	51	2.3283e-10	0	0
1921.0806	1	10	n/a	n/a	1	51	-0.1	0	1
1922.3138	1	10	n/a	n/a	1	51	2.3283e-10	0	2
1923.4638	1	10	n/a	n/a	1	51	0	0	3
1924.747	1	10	n/a	n/a	1	51	-2.3283e-10	0	4
1925.997	1	10	n/a	n/a	1	51	0.1	0	5
1927.2302	1	10	n/a	n/a	1	51	-0.1	0	6
1928.2802	1	10	n/a	n/a	1	51	0	0	7
1929.3302	1	21	n/a	n/a	1	51	0.1	0	0
1930.4134	1	10	n/a	n/a	1	51	-0.1	0	1
1931.5634	1	10	n/a	n/a	1	51	0.1	0	2
1932.8466	1	10	n/a	n/a	1	51	-0.1	0	3
1934.1298	1	21	n/a	n/a	1	51	2.3283e-10	0	0
1934.9606	1	81	n/a	n/a	1	0	0.1	0	0
1935.1606	1	81	n/a	n/a	1	0	0	0	0
1935.3606	1	81	n/a	n/a	1	0	0	0	0
1935.5606	1	81	n/a	n/a	1	0	0	0	0
1935.7606	1	81	n/a	n/a	1	0	0	0	0
1935.9606	1	81	n/a	n/a	1	0	0	0	0
1936.1606	1	81	n/a	n/a	1	0	0	0	0
1936.3606	1	81	n/a	n/a	1	0	0	0	0
1936.5606	1	81	n/a	n/a	1	0	0	0	0
1936.7606	1	81	n/a	n/a	1	0	0	0	0
1937.9296	1	10	n/a	n/a	1	51	-0.1	0	1
1939.0128	1	21	n/a	n/a	1	51	-0.1	0	0
1940.2128	1	10	n/a	n/a	1	51	0.1	0	1
1941.3128	1	10	n/a	n/a	1	51	0	0	2
1942.546	1	10	n/a	n/a	1	51	-2.3283e-10	0	3
1943.7792	1	21	n/a	n/a	1	51	-0.1	0	0
1945.0626	1	10	n/a	n/a	1	51	0.1	0	1
1946.1958	1	10	n/a	n/a	1	51	2.3283e-10	0	2
1947.429	1	10	n/a	n/a	1	51	-0.1	0	3
1948.479	1	10	n/a	n/a	1	51	0.1	0	4
1949.6122	1	10	n/a	n/a	1	51	-0.1	0	5
1950.7288	1	10	n/a	n/a	1	51	0	0	6
1951.9788	1	10	n/a	n/a	1	51	0.1	0	7
1953.2288	1	21	n/a	n/a	1	51	0	0	0
1954.462	1	10	n/a	n/a	1	51	-2.3283e-10	0	1
1955.7618	1	10	n/a	n/a	1	51	-0.2	0	2
1956.8618	1	10	n/a	n/a	1	51	0.1	0	3
1957.9784	1	10	n/a	n/a	1	51	-2.3283e-10	0	4
1959.045	1	10	n/a	n/a	1	51	0	0	5
1960.1116	1	21	n/a	n/a	1	51	0	0	0
1961.2182	1	81	n/a	n/a	1	0	-0.1	0	0
1961.4182	1	81	n/a	n/a	1	0	0	0	0
1961.6182	1	81	n/a	n/a	1	0	0	0	0
1961.8182	1	81	n/a	n/a	1	0	0	0	0
1962.0182	1	81	n/a	n/a	1	0	0	0	0
1962.2184	1	81	n/a	n/a	1	0	0.2	0	0
1962.4184	1	81	n/a	n/a	1	0	0	0	0
1962.6184	1	81	n/a	n/a	1	0	0	0	0
1962.8184	1	81	n/a	n/a	1	0	0	0	0
1963.0182	1	81	n/a	n/a	1	0	-0.2	0	0
1964.2448	1	10	n/a	n/a	1	51	0.2	0	1
1965.478	1	10	n/a	n/a	1	51	17.7	0	2
1966.7612	1	10	n/a	n/a	1	51	-17.9	0	3
1968.0778	1	21	n/a	n/a	1	51	0.1	0	0
1969.361	1	10	n/a	n/a	1	51	-0.1	0	1
1970.4276	1	10	n/a	n/a	1	51	4.6566e-10	0	2
1971.5276	1	10	n/a	n/a	1	51	0	0	3
1972.6276	1	21	n/a	n/a	1	51	0.1	0	0
1973.8774	1	10	n/a	n/a	1	51	-0.1	0	1
1975.1274	1	21	n/a	n/a	1	51	0.1	0	0
1976.2106	1	10	n/a	n/a	1	51	-0.1	0	1
1977.2772	1	10	n/a	n/a	1	51	-2.3283e-10	0	2
1978.5272	1	10	n/a	n/a	1	51	0	0	3
1979.7772	1	21	n/a	n/a	1	51	0.1	0	0
1980.8438	1	10	n/a	n/a	1	51	0	0	1
1981.927	1	21	n/a	n/a	1	51	17.7	0	0
1983.077	1	10	n/a	n/a	1	51	-17.7	0	1
1984.3436	1	10	n/a	n/a	1	51	0	0	2
1985.3934	1	10	n/a	n/a	1	51	-0.2	0	3
1986.71	1	10	n/a	n/a	1	51	4.6566e-10	0	4
1987.6788	1	81	n/a	n/a	1	0	0.2	0	0
1987.8788	1	81	n/a	n/a	1	0	0	0	0
1988.0788	1	81	n/a	n/a	1	0	0	0	0
1988.2788	1	81	n/a	n/a	1	0	0	0	0
1988.4788	1	81	n/a	n/a	1	0	0	0	0
1988.6788	1	81	n/a	n/a	1	0	0	0	0
1988.8788	1	81	n/a	n/a	1	0	0	0	0
1989.0788	1	81	n/a	n/a	1	0	0	0	0
1989.2788	1	81	n/a	n/a	1	0	0	0	0
1989.4788	1	81	n/a	n/a	1	0	0	0	0
1990.7432	1	10	n/a	n/a	1	51	-0.1	0	1
1991.943	1	10	n/a	n/a	1	51	-0.1	0	2
1993.0764	1	10	n/a	n/a	1	51	0.1	0	3
1994.1762	1	10	n/a	n/a	1	51	-0.1	0	4
1995.3262	1	10	n/a	n/a	1	51	0.1	0	5
1996.4762	1	21	n/a	n/a	1	51	0	0	0
1997.7094	1	10	n/a	n/a	1	51	-2.3283e-10	0	1
1998.976	1	10	n/a	n/a	1	51	0	0	2
2000.2926	1	10	n/a	n/a	1	51	4.6566e-10	0	3
2001.3926	1	10	n/a	n/a	1	51	0	0	4
2002.509	1	10	n/a	n/a	1	51	-0.2	0	5
2003.6256	1	21	n/a	n/a	1	51	0	0	0
2004.8922	1	10	n/a	n/a	1	51	-2.3283e-10	0	1
2006.1422	1	10	n/a	n/a	1	51	0.1	0	2
2007.1754	1	10	n/a	n/a	1	51	-0.1	0	3
2008.4588	1	10	n/a	n/a	1	51	0.2	0	4
2009.7586	1	10	n/a	n/a	1	51	-0.2	0	5
2011.0586	1	21	n/a	n/a	1	51	0.1	0	0
2012.3752	1	10	n/a	n/a	1	51	-2.3283e-10	0	1
2013.5752	1	10	n/a	n/a	1	51	0.1	0	2
2014.3326	1	81	n/a	n/a	1	0	-0.1	0	0
2014.5326	1	81	n/a	n/a	1	0	0	0	0
2014.7326	1	81	n/a	n/a	1	0	0	0	0
2014.9326	1	81	n/a	n/a	1	0	0	0	0
2015.1326	1	81	n/a	n/a	1	0	0	0	0
2015.3326	1	81	n/a	n/a	1	0	0	0	0
2015.5326	1	81	n/a	n/a	1	0	0	0	0
2015.7326	1	81	n/a	n/a	1	0	0	0	0
2015.9326	1	81	n/a	n/a	1	0	0	0	0
2016.1326	1	81	n/a	n/a	1	0	0	0	0
2017.2916	1	10	n/a	n/a	1	51	0	0	1
2018.5082	1	10	n/a	n/a	1	51	-2.3283e-10	0	2
2019.5414	1	10	n/a	n/a	1	51	-0.1	0	3
2020.5746	1	21	n/a	n/a	1	51	0	0	0
2021.658	1	10	n/a	n/a	1	51	0.1	0	1
2022.9412	1	10	n/a	n/a	1	51	-2.3283e-10	0	2
2024.1244	1	10	n/a	n/a	1	51	-0.1	0	3
2025.3244	1	10	n/a	n/a	1	51	0	0	4
2026.4744	1	10	n/a	n/a	1	51	0.1	0	5
2027.6242	1	21	n/a	n/a	1	51	-0.2	0	0
2028.6908	1	10	n/a	n/a	1	51	4.6566e-10	0	1
2029.8074	1	10	n/a	n/a	1	51	-2.3283e-10	0	2
2030.8908	1	10	n/a	n/a	1	51	0.2	0	3
2031.974	1	21	n/a	n/a	1	51	-0.1	0	0
2033.0072	1	10	n/a	n/a	1	51	-0.1	0	1
2034.2572	1	10	n/a	n/a	1	51	0.1	0	2
2035.5072	1	10	n/a	n/a	1	51	0.1	0	3
2036.5738	1	10	n/a	n/a	1	51	-0.1	0	4
2037.8904	1	10	n/a	n/a	1	51	0.1	0	5
2039.207	1	21	n/a	n/a	1	51	4.6566e-10	0	0
