onset	duration	value	response	rt	good	TMS	seq
259.6912	1	82	n/a	n/a	1	0	0
260.0172	1	82	n/a	n/a	1	0	0
260.0692	1	82	n/a	n/a	1	0	0
260.2262	1	82	n/a	n/a	1	0	0
260.3252	1	82	n/a	n/a	1	0	0
260.6914	1	82	n/a	n/a	1	0	0
260.7454	1	82	n/a	n/a	1	0	0
260.8884	1	82	n/a	n/a	1	0	0
261.2534	1	82	n/a	n/a	1	0	0
261.5344	1	82	n/a	n/a	1	0	0
262.854	1	10	n/a	n/a	1	52	1
263.9706	1	10	n/a	n/a	1	52	2
265.0372	1	10	n/a	n/a	1	52	3
266.3372	1	10	n/a	n/a	1	52	4
267.4704	1	10	n/a	n/a	1	52	5
268.587	1	10	n/a	n/a	1	52	6
269.737	1	10	n/a	n/a	1	52	7
270.8868	1	21	n/a	n/a	1	52	0
272.2034	1	10	n/a	n/a	1	52	1
273.5368	1	10	n/a	n/a	1	52	2
274.8366	1	10	n/a	n/a	1	52	3
275.92	1	10	n/a	n/a	1	52	4
277.2198	1	10	n/a	n/a	1	52	5
278.5198	1	21	n/a	n/a	1	52	0
279.8196	1	10	n/a	n/a	1	52	1
281.003	1	10	n/a	n/a	1	52	2
282.1862	1	10	n/a	n/a	1	52	3
283.3694	1	21	n/a	n/a	1	52	0
284.6694	1	10	n/a	n/a	1	52	1
285.9194	1	10	n/a	n/a	1	52	2
286.7198	1	82	n/a	n/a	1	0	0
287.0848	1	82	n/a	n/a	1	0	0
287.1198	1	82	n/a	n/a	1	0	0
287.3898	1	82	n/a	n/a	1	0	0
287.5038	1	82	n/a	n/a	1	0	0
287.7198	1	82	n/a	n/a	1	0	0
288.0158	1	82	n/a	n/a	1	0	0
288.0428	1	82	n/a	n/a	1	0	0
288.1248	1	82	n/a	n/a	1	0	0
288.5098	1	82	n/a	n/a	1	0	0
289.6858	1	10	n/a	n/a	1	52	1
290.8024	1	10	n/a	n/a	1	52	2
292.0024	1	10	n/a	n/a	1	52	3
293.2188	1	10	n/a	n/a	1	52	4
294.4354	1	10	n/a	n/a	1	52	5
295.6688	1	10	n/a	n/a	1	52	6
296.702	1	10	n/a	n/a	1	52	7
297.7354	1	21	n/a	n/a	1	52	0
298.9518	1	10	n/a	n/a	1	52	1
300.2018	1	10	n/a	n/a	1	52	2
301.3018	1	10	n/a	n/a	1	52	3
302.485	1	10	n/a	n/a	1	52	4
303.585	1	10	n/a	n/a	1	52	5
304.7348	1	10	n/a	n/a	1	52	6
305.9182	1	10	n/a	n/a	1	52	7
307.1014	1	21	n/a	n/a	1	52	0
308.1846	1	10	n/a	n/a	1	52	1
309.368	1	10	n/a	n/a	1	52	2
310.6012	1	10	n/a	n/a	1	52	3
311.8344	1	21	n/a	n/a	1	52	0
312.5832	1	82	n/a	n/a	1	0	0
312.7222	1	82	n/a	n/a	1	0	0
312.9502	1	82	n/a	n/a	1	0	0
313.1122	1	82	n/a	n/a	1	0	0
313.2012	1	82	n/a	n/a	1	0	0
313.5832	1	82	n/a	n/a	1	0	0
313.9482	1	82	n/a	n/a	1	0	0
313.9682	1	82	n/a	n/a	1	0	0
314.0652	1	82	n/a	n/a	1	0	0
314.3092	1	82	n/a	n/a	1	0	0
315.6676	1	10	n/a	n/a	1	52	1
316.8508	1	21	n/a	n/a	1	52	0
317.9174	1	10	n/a	n/a	1	52	1
319.2174	1	10	n/a	n/a	1	52	2
320.4506	1	10	n/a	n/a	1	52	3
321.684	1	21	n/a	n/a	1	52	0
323.0004	1	10	n/a	n/a	1	52	1
324.0338	1	10	n/a	n/a	1	52	2
325.1504	1	10	n/a	n/a	1	52	3
326.267	1	21	n/a	n/a	1	52	0
327.5168	1	10	n/a	n/a	1	52	1
328.6834	1	10	n/a	n/a	1	52	2
329.9168	1	10	n/a	n/a	1	52	3
331	1	10	n/a	n/a	1	52	4
332.2666	1	10	n/a	n/a	1	52	5
333.5332	1	21	n/a	n/a	1	52	0
334.7998	1	10	n/a	n/a	1	52	1
336.0664	1	21	n/a	n/a	1	52	0
337.233	1	10	n/a	n/a	1	52	1
338.3496	1	10	n/a	n/a	1	52	2
339.195	1	82	n/a	n/a	1	0	0
339.34	1	82	n/a	n/a	1	0	0
339.625	1	82	n/a	n/a	1	0	0
340.045	1	82	n/a	n/a	1	0	0
340.109	1	82	n/a	n/a	1	0	0
340.1952	1	82	n/a	n/a	1	0	0
340.2162	1	82	n/a	n/a	1	0	0
340.6242	1	82	n/a	n/a	1	0	0
340.7732	1	82	n/a	n/a	1	0	0
341.1162	1	82	n/a	n/a	1	0	0
342.166	1	10	n/a	n/a	1	52	1
343.4826	1	10	n/a	n/a	1	52	2
344.7826	1	10	n/a	n/a	1	52	3
345.8992	1	10	n/a	n/a	1	52	4
347.149	1	10	n/a	n/a	1	52	5
348.399	1	21	n/a	n/a	1	52	0
349.5322	1	10	n/a	n/a	1	52	1
350.6988	1	10	n/a	n/a	1	52	2
351.9322	1	10	n/a	n/a	1	52	3
353.1654	1	21	n/a	n/a	1	52	0
354.4154	1	10	n/a	n/a	1	52	1
355.4486	1	10	n/a	n/a	1	52	2
356.4818	1	10	n/a	n/a	1	52	3
357.5318	1	10	n/a	n/a	1	52	4
358.665	1	10	n/a	n/a	1	52	5
359.915	1	10	n/a	n/a	1	52	6
361.0982	1	10	n/a	n/a	1	52	7
362.2816	1	21	n/a	n/a	1	52	0
363.5814	1	10	n/a	n/a	1	52	1
364.8314	1	10	n/a	n/a	1	52	2
365.8118	1	82	n/a	n/a	1	0	0
366.2318	1	82	n/a	n/a	1	0	0
366.2888	1	82	n/a	n/a	1	0	0
366.5778	1	82	n/a	n/a	1	0	0
366.7418	1	82	n/a	n/a	1	0	0
366.8118	1	82	n/a	n/a	1	0	0
366.9118	1	82	n/a	n/a	1	0	0
366.9478	1	82	n/a	n/a	1	0	0
367.2958	1	82	n/a	n/a	1	0	0
367.7038	1	82	n/a	n/a	1	0	0
368.7644	1	10	n/a	n/a	1	52	1
369.831	1	21	n/a	n/a	1	52	0
370.8644	1	10	n/a	n/a	1	52	1
372.081	1	10	n/a	n/a	1	52	2
373.3476	1	10	n/a	n/a	1	52	3
374.5474	1	10	n/a	n/a	1	52	4
375.664	1	10	n/a	n/a	1	52	5
376.7806	1	21	n/a	n/a	1	52	0
377.914	1	10	n/a	n/a	1	52	1
378.9472	1	10	n/a	n/a	1	52	2
380.1804	1	10	n/a	n/a	1	52	3
381.4138	1	21	n/a	n/a	1	52	0
382.647	1	10	n/a	n/a	1	52	1
383.8802	1	21	n/a	n/a	1	52	0
384.9802	1	10	n/a	n/a	1	52	1
386.2302	1	10	n/a	n/a	1	52	2
387.4968	1	10	n/a	n/a	1	52	3
388.7134	1	10	n/a	n/a	1	52	4
389.7966	1	10	n/a	n/a	1	52	5
391.0632	1	10	n/a	n/a	1	52	6
406.8584	1	82	n/a	n/a	1	0	0
406.9704	1	82	n/a	n/a	1	0	0
407.2864	1	82	n/a	n/a	1	0	0
407.7044	1	82	n/a	n/a	1	0	0
407.7494	1	82	n/a	n/a	1	0	0
407.8584	1	82	n/a	n/a	1	0	0
407.9074	1	82	n/a	n/a	1	0	0
408.0194	1	82	n/a	n/a	1	0	0
408.3924	1	82	n/a	n/a	1	0	0
408.6654	1	82	n/a	n/a	1	0	0
409.9288	1	10	n/a	n/a	1	50	1
411.112	1	21	n/a	n/a	1	50	0
412.2786	1	10	n/a	n/a	1	50	1
413.4452	1	21	n/a	n/a	1	50	0
414.7118	1	10	n/a	n/a	1	50	1
415.8618	1	10	n/a	n/a	1	50	2
417.1616	1	10	n/a	n/a	1	50	3
418.4616	1	21	n/a	n/a	1	50	0
419.7282	1	10	n/a	n/a	1	50	1
420.8948	1	10	n/a	n/a	1	50	2
421.9614	1	10	n/a	n/a	1	50	3
423.128	1	10	n/a	n/a	1	50	4
424.278	1	10	n/a	n/a	1	50	5
425.3278	1	10	n/a	n/a	1	50	6
426.661	1	10	n/a	n/a	1	50	7
427.9944	1	21	n/a	n/a	1	50	0
429.161	1	10	n/a	n/a	1	50	1
430.3442	1	10	n/a	n/a	1	50	2
431.6608	1	10	n/a	n/a	1	50	3
432.794	1	10	n/a	n/a	1	50	4
433.7846	1	82	n/a	n/a	1	0	0
433.8476	1	82	n/a	n/a	1	0	0
434.2106	1	82	n/a	n/a	1	0	0
434.6096	1	82	n/a	n/a	1	0	0
434.7004	1	82	n/a	n/a	1	0	0
434.7846	1	82	n/a	n/a	1	0	0
434.9116	1	82	n/a	n/a	1	0	0
435.2806	1	82	n/a	n/a	1	0	0
435.3126	1	82	n/a	n/a	1	0	0
435.5546	1	82	n/a	n/a	1	0	0
436.7106	1	10	n/a	n/a	1	50	1
437.8272	1	10	n/a	n/a	1	50	2
439.0936	1	10	n/a	n/a	1	50	3
440.3102	1	10	n/a	n/a	1	50	4
441.5102	1	10	n/a	n/a	1	50	5
442.7602	1	10	n/a	n/a	1	50	6
443.96	1	10	n/a	n/a	1	50	7
445.16	1	21	n/a	n/a	1	50	0
446.2766	1	10	n/a	n/a	1	50	1
447.4598	1	10	n/a	n/a	1	50	2
448.5432	1	10	n/a	n/a	1	50	3
449.6264	1	21	n/a	n/a	1	50	0
450.943	1	10	n/a	n/a	1	50	1
452.2596	1	21	n/a	n/a	1	50	0
453.5596	1	10	n/a	n/a	1	50	1
454.8594	1	10	n/a	n/a	1	50	2
456.176	1	10	n/a	n/a	1	50	3
457.4426	1	10	n/a	n/a	1	50	4
458.5426	1	10	n/a	n/a	1	50	5
459.8258	1	10	n/a	n/a	1	50	6
460.7094	1	82	n/a	n/a	1	0	0
461.1204	1	82	n/a	n/a	1	0	0
461.2044	1	82	n/a	n/a	1	0	0
461.3154	1	82	n/a	n/a	1	0	0
461.4714	1	82	n/a	n/a	1	0	0
461.7094	1	82	n/a	n/a	1	0	0
461.8574	1	82	n/a	n/a	1	0	0
462.0294	1	82	n/a	n/a	1	0	0
462.1334	1	82	n/a	n/a	1	0	0
462.4664	1	82	n/a	n/a	1	0	0
463.7756	1	10	n/a	n/a	1	50	1
464.9422	1	21	n/a	n/a	1	50	0
466.2088	1	10	n/a	n/a	1	50	1
467.4754	1	21	n/a	n/a	1	50	0
468.7752	1	10	n/a	n/a	1	50	1
470.0752	1	21	n/a	n/a	1	50	0
471.3252	1	10	n/a	n/a	1	50	1
472.475	1	10	n/a	n/a	1	50	2
473.8084	1	10	n/a	n/a	1	50	3
475.1416	1	21	n/a	n/a	1	50	0
476.3082	1	10	n/a	n/a	1	50	1
477.4748	1	21	n/a	n/a	1	50	0
478.608	1	10	n/a	n/a	1	50	1
479.708	1	10	n/a	n/a	1	50	2
481.008	1	10	n/a	n/a	1	50	3
482.2246	1	10	n/a	n/a	1	50	4
483.4078	1	10	n/a	n/a	1	50	5
484.591	1	21	n/a	n/a	1	50	0
485.7076	1	10	n/a	n/a	1	50	1
486.8242	1	21	n/a	n/a	1	50	0
487.718	1	82	n/a	n/a	1	0	0
487.881	1	82	n/a	n/a	1	0	0
487.982	1	82	n/a	n/a	1	0	0
488.025	1	82	n/a	n/a	1	0	0
488.337	1	82	n/a	n/a	1	0	0
488.718	1	82	n/a	n/a	1	0	0
488.896	1	82	n/a	n/a	1	0	0
488.961	1	82	n/a	n/a	1	0	0
489.232	1	82	n/a	n/a	1	0	0
489.633	1	82	n/a	n/a	1	0	0
490.674	1	10	n/a	n/a	1	50	1
491.7406	1	10	n/a	n/a	1	50	2
492.8572	1	10	n/a	n/a	1	50	3
493.9738	1	21	n/a	n/a	1	50	0
495.1238	1	10	n/a	n/a	1	50	1
496.257	1	10	n/a	n/a	1	50	2
497.5236	1	10	n/a	n/a	1	50	3
498.7736	1	10	n/a	n/a	1	50	4
500.0734	1	10	n/a	n/a	1	50	5
501.3734	1	21	n/a	n/a	1	50	0
502.5734	1	10	n/a	n/a	1	50	1
503.6232	1	10	n/a	n/a	1	50	2
504.7566	1	10	n/a	n/a	1	50	3
505.8898	1	10	n/a	n/a	1	50	4
507.123	1	10	n/a	n/a	1	50	5
508.3564	1	21	n/a	n/a	1	50	0
509.473	1	10	n/a	n/a	1	50	1
510.5062	1	10	n/a	n/a	1	50	2
511.7062	1	10	n/a	n/a	1	50	3
512.856	1	10	n/a	n/a	1	50	4
513.7826	1	82	n/a	n/a	1	0	0
513.8076	1	82	n/a	n/a	1	0	0
514.1206	1	82	n/a	n/a	1	0	0
514.3166	1	82	n/a	n/a	1	0	0
514.3886	1	82	n/a	n/a	1	0	0
514.7826	1	82	n/a	n/a	1	0	0
514.9076	1	82	n/a	n/a	1	0	0
515.1966	1	82	n/a	n/a	1	0	0
515.3776	1	82	n/a	n/a	1	0	0
515.7056	1	82	n/a	n/a	1	0	0
516.8224	1	10	n/a	n/a	1	50	1
518.0058	1	10	n/a	n/a	1	50	2
519.1556	1	10	n/a	n/a	1	50	3
520.4556	1	10	n/a	n/a	1	50	4
521.4888	1	10	n/a	n/a	1	50	5
522.5554	1	10	n/a	n/a	1	50	6
523.6554	1	10	n/a	n/a	1	50	7
524.7554	1	21	n/a	n/a	1	50	0
525.8052	1	10	n/a	n/a	1	50	1
526.8552	1	21	n/a	n/a	1	50	0
528.1384	1	10	n/a	n/a	1	50	1
529.4218	1	21	n/a	n/a	1	50	0
530.4716	1	10	n/a	n/a	1	50	1
531.7216	1	10	n/a	n/a	1	50	2
532.8382	1	10	n/a	n/a	1	50	3
533.9548	1	21	n/a	n/a	1	50	0
535.1714	1	10	n/a	n/a	1	50	1
536.4214	1	10	n/a	n/a	1	50	2
537.488	1	10	n/a	n/a	1	50	3
538.5546	1	21	n/a	n/a	1	50	0
571.5546	1	81	n/a	n/a	1	0	0
571.7546	1	81	n/a	n/a	1	0	0
571.9546	1	81	n/a	n/a	1	0	0
572.1546	1	81	n/a	n/a	1	0	0
572.3546	1	81	n/a	n/a	1	0	0
572.5546	1	81	n/a	n/a	1	0	0
572.7546	1	81	n/a	n/a	1	0	0
572.9546	1	81	n/a	n/a	1	0	0
573.1546	1	81	n/a	n/a	1	0	0
573.3546	1	81	n/a	n/a	1	0	0
574.5524	1	10	n/a	n/a	1	51	1
575.8524	1	10	n/a	n/a	1	51	2
576.9356	1	10	n/a	n/a	1	51	3
578.2188	1	10	n/a	n/a	1	51	4
579.5188	1	10	n/a	n/a	1	51	5
580.8188	1	21	n/a	n/a	1	51	0
581.9186	1	10	n/a	n/a	1	51	1
583.1852	1	10	n/a	n/a	1	51	2
584.4686	1	10	n/a	n/a	1	51	3
585.7518	1	21	n/a	n/a	1	51	0
586.9018	1	10	n/a	n/a	1	51	1
588.1184	1	10	n/a	n/a	1	51	2
589.3016	1	10	n/a	n/a	1	51	3
590.4848	1	21	n/a	n/a	1	51	0
591.5348	1	10	n/a	n/a	1	51	1
592.7848	1	10	n/a	n/a	1	51	2
594.0346	1	10	n/a	n/a	1	51	3
595.2846	1	10	n/a	n/a	1	51	4
596.4012	1	10	n/a	n/a	1	51	5
597.6178	1	10	n/a	n/a	1	51	6
598.5292	1	81	n/a	n/a	1	0	0
598.7292	1	81	n/a	n/a	1	0	0
598.9292	1	81	n/a	n/a	1	0	0
599.1292	1	81	n/a	n/a	1	0	0
599.3292	1	81	n/a	n/a	1	0	0
599.5292	1	81	n/a	n/a	1	0	0
599.7292	1	81	n/a	n/a	1	0	0
599.9292	1	81	n/a	n/a	1	0	0
600.1292	1	81	n/a	n/a	1	0	0
600.3292	1	81	n/a	n/a	1	0	0
601.5008	1	10	n/a	n/a	1	51	1
602.6508	1	10	n/a	n/a	1	51	2
603.9508	1	10	n/a	n/a	1	51	3
605.084	1	10	n/a	n/a	1	51	4
606.3672	1	10	n/a	n/a	1	51	5
607.6506	1	21	n/a	n/a	1	51	0
608.9338	1	10	n/a	n/a	1	51	1
610.267	1	10	n/a	n/a	1	51	2
611.467	1	10	n/a	n/a	1	51	3
612.5002	1	10	n/a	n/a	1	51	4
613.6002	1	10	n/a	n/a	1	51	5
614.6668	1	10	n/a	n/a	1	51	6
615.9166	1	10	n/a	n/a	1	51	7
617.1666	1	21	n/a	n/a	1	51	0
618.1998	1	10	n/a	n/a	1	51	1
619.4998	1	10	n/a	n/a	1	51	2
620.783	1	10	n/a	n/a	1	51	3
622.0664	1	21	n/a	n/a	1	51	0
623.3662	1	10	n/a	n/a	1	51	1
624.5828	1	10	n/a	n/a	1	51	2
625.3172	1	81	n/a	n/a	1	0	0
625.5172	1	81	n/a	n/a	1	0	0
625.7172	1	81	n/a	n/a	1	0	0
625.9172	1	81	n/a	n/a	1	0	0
626.1172	1	81	n/a	n/a	1	0	0
626.3174	1	81	n/a	n/a	1	0	0
626.5174	1	81	n/a	n/a	1	0	0
626.7174	1	81	n/a	n/a	1	0	0
626.9174	1	81	n/a	n/a	1	0	0
627.1174	1	81	n/a	n/a	1	0	0
628.4992	1	10	n/a	n/a	1	51	1
629.7658	1	10	n/a	n/a	1	51	2
630.9658	1	10	n/a	n/a	1	51	3
632.1658	1	21	n/a	n/a	1	51	0
633.449	1	10	n/a	n/a	1	51	1
634.7656	1	10	n/a	n/a	1	51	2
635.9988	1	10	n/a	n/a	1	51	3
637.2322	1	21	n/a	n/a	1	51	0
638.3154	1	10	n/a	n/a	1	51	1
639.3986	1	21	n/a	n/a	1	51	0
640.582	1	10	n/a	n/a	1	51	1
641.7818	1	10	n/a	n/a	1	51	2
642.8652	1	10	n/a	n/a	1	51	3
643.9484	1	21	n/a	n/a	1	51	0
645.1984	1	10	n/a	n/a	1	51	1
646.4982	1	10	n/a	n/a	1	51	2
647.6648	1	10	n/a	n/a	1	51	3
648.8314	1	10	n/a	n/a	1	51	4
649.9646	1	10	n/a	n/a	1	51	5
651.098	1	21	n/a	n/a	1	51	0
651.8796	1	81	n/a	n/a	1	0	0
652.0796	1	81	n/a	n/a	1	0	0
652.2796	1	81	n/a	n/a	1	0	0
652.4796	1	81	n/a	n/a	1	0	0
652.6796	1	81	n/a	n/a	1	0	0
652.8796	1	81	n/a	n/a	1	0	0
653.0796	1	81	n/a	n/a	1	0	0
653.2796	1	81	n/a	n/a	1	0	0
653.4796	1	81	n/a	n/a	1	0	0
653.6796	1	81	n/a	n/a	1	0	0
654.981	1	10	n/a	n/a	1	51	1
656.281	1	10	n/a	n/a	1	51	2
657.4642	1	10	n/a	n/a	1	51	3
658.6308	1	10	n/a	n/a	1	51	4
659.9142	1	10	n/a	n/a	1	51	5
660.9974	1	10	n/a	n/a	1	51	6
662.2306	1	10	n/a	n/a	1	51	7
663.464	1	21	n/a	n/a	1	51	0
664.7804	1	10	n/a	n/a	1	51	1
666.097	1	21	n/a	n/a	1	51	0
667.1636	1	10	n/a	n/a	1	51	1
668.447	1	10	n/a	n/a	1	51	2
669.5468	1	10	n/a	n/a	1	51	3
670.6468	1	21	n/a	n/a	1	51	0
671.93	1	10	n/a	n/a	1	51	1
673.2134	1	21	n/a	n/a	1	51	0
674.3966	1	10	n/a	n/a	1	51	1
675.5798	1	21	n/a	n/a	1	51	0
676.7298	1	10	n/a	n/a	1	51	1
677.913	1	10	n/a	n/a	1	51	2
678.8744	1	81	n/a	n/a	1	0	0
679.0744	1	81	n/a	n/a	1	0	0
679.2744	1	81	n/a	n/a	1	0	0
679.4744	1	81	n/a	n/a	1	0	0
679.6744	1	81	n/a	n/a	1	0	0
679.8744	1	81	n/a	n/a	1	0	0
680.0744	1	81	n/a	n/a	1	0	0
680.2744	1	81	n/a	n/a	1	0	0
680.4744	1	81	n/a	n/a	1	0	0
680.6744	1	81	n/a	n/a	1	0	0
681.9294	1	10	n/a	n/a	1	51	1
683.096	1	10	n/a	n/a	1	51	2
684.3794	1	10	n/a	n/a	1	51	3
685.6626	1	21	n/a	n/a	1	51	0
686.7126	1	10	n/a	n/a	1	51	1
687.9624	1	10	n/a	n/a	1	51	2
689.1958	1	10	n/a	n/a	1	51	3
690.479	1	10	n/a	n/a	1	51	4
691.6122	1	10	n/a	n/a	1	51	5
692.7456	1	21	n/a	n/a	1	51	0
693.9788	1	10	n/a	n/a	1	51	1
695.2954	1	10	n/a	n/a	1	51	2
696.412	1	10	n/a	n/a	1	51	3
697.5286	1	21	n/a	n/a	1	51	0
698.6618	1	10	n/a	n/a	1	51	1
699.7618	1	10	n/a	n/a	1	51	2
700.9284	1	10	n/a	n/a	1	51	3
702.045	1	10	n/a	n/a	1	51	4
703.3116	1	10	n/a	n/a	1	51	5
704.4448	1	10	n/a	n/a	1	51	6
885.2454	1	81	n/a	n/a	1	0	0
885.4454	1	81	n/a	n/a	1	0	0
885.6454	1	81	n/a	n/a	1	0	0
885.8454	1	81	n/a	n/a	1	0	0
886.0454	1	81	n/a	n/a	1	0	0
886.2454	1	81	n/a	n/a	1	0	0
886.4454	1	81	n/a	n/a	1	0	0
886.6454	1	81	n/a	n/a	1	0	0
886.8454	1	81	n/a	n/a	1	0	0
887.0454	1	81	n/a	n/a	1	0	0
888.2174	1	10	n/a	n/a	1	51	1
889.3006	1	21	n/a	n/a	1	51	0
890.434	1	10	n/a	n/a	1	51	1
891.5506	1	10	n/a	n/a	1	51	2
892.6172	1	10	n/a	n/a	1	51	3
893.9338	1	10	n/a	n/a	1	51	4
895.0504	1	10	n/a	n/a	1	51	5
896.167	1	10	n/a	n/a	1	51	6
897.4336	1	10	n/a	n/a	1	51	7
898.7002	1	21	n/a	n/a	1	51	0
899.8668	1	10	n/a	n/a	1	51	1
901.0834	1	10	n/a	n/a	1	51	2
902.1332	1	10	n/a	n/a	1	51	3
903.1832	1	21	n/a	n/a	1	51	0
904.4332	1	10	n/a	n/a	1	51	1
905.5998	1	10	n/a	n/a	1	51	2
906.8496	1	10	n/a	n/a	1	51	3
908.0662	1	10	n/a	n/a	1	51	4
909.1328	1	10	n/a	n/a	1	51	5
910.1994	1	21	n/a	n/a	1	51	0
910.9312	1	81	n/a	n/a	1	0	0
911.1312	1	81	n/a	n/a	1	0	0
911.3312	1	81	n/a	n/a	1	0	0
911.5312	1	81	n/a	n/a	1	0	0
911.7312	1	81	n/a	n/a	1	0	0
911.9312	1	81	n/a	n/a	1	0	0
912.1312	1	81	n/a	n/a	1	0	0
912.3312	1	81	n/a	n/a	1	0	0
912.5312	1	81	n/a	n/a	1	0	0
912.7312	1	81	n/a	n/a	1	0	0
913.866	1	10	n/a	n/a	1	51	1
914.9658	1	10	n/a	n/a	1	51	2
916.0324	1	10	n/a	n/a	1	51	3
917.099	1	21	n/a	n/a	1	51	0
918.2156	1	10	n/a	n/a	1	51	1
919.4656	1	10	n/a	n/a	1	51	2
920.5822	1	10	n/a	n/a	1	51	3
921.6154	1	10	n/a	n/a	1	51	4
922.8488	1	10	n/a	n/a	1	51	5
924.0486	1	10	n/a	n/a	1	51	6
925.3652	1	10	n/a	n/a	1	51	7
926.6818	1	21	n/a	n/a	1	51	0
927.715	1	10	n/a	n/a	1	51	1
928.9316	1	10	n/a	n/a	1	51	2
929.965	1	10	n/a	n/a	1	51	3
930.9982	1	21	n/a	n/a	1	51	0
932.0648	1	10	n/a	n/a	1	51	1
933.2482	1	10	n/a	n/a	1	51	2
934.2814	1	10	n/a	n/a	1	51	3
935.348	1	10	n/a	n/a	1	51	4
936.4034	1	81	n/a	n/a	1	0	0
936.6034	1	81	n/a	n/a	1	0	0
936.8034	1	81	n/a	n/a	1	0	0
937.0034	1	81	n/a	n/a	1	0	0
937.2034	1	81	n/a	n/a	1	0	0
937.4034	1	81	n/a	n/a	1	0	0
937.6034	1	81	n/a	n/a	1	0	0
937.8034	1	81	n/a	n/a	1	0	0
938.0034	1	81	n/a	n/a	1	0	0
938.2034	1	81	n/a	n/a	1	0	0
939.4978	1	10	n/a	n/a	1	51	1
940.5476	1	10	n/a	n/a	1	51	2
941.5976	1	10	n/a	n/a	1	51	3
942.8476	1	10	n/a	n/a	1	51	4
944.1142	1	10	n/a	n/a	1	51	5
945.3808	1	21	n/a	n/a	1	51	0
946.414	1	10	n/a	n/a	1	51	1
947.6472	1	10	n/a	n/a	1	51	2
948.7972	1	10	n/a	n/a	1	51	3
950.0804	1	10	n/a	n/a	1	51	4
951.3138	1	10	n/a	n/a	1	51	5
952.547	1	21	n/a	n/a	1	51	0
953.6302	1	10	n/a	n/a	1	51	1
954.8468	1	10	n/a	n/a	1	51	2
955.9968	1	10	n/a	n/a	1	51	3
957.1634	1	10	n/a	n/a	1	51	4
958.2466	1	10	n/a	n/a	1	51	5
959.33	1	21	n/a	n/a	1	51	0
960.4798	1	10	n/a	n/a	1	51	1
961.6798	1	10	n/a	n/a	1	51	2
962.7772	1	81	n/a	n/a	1	0	0
962.9772	1	81	n/a	n/a	1	0	0
963.1772	1	81	n/a	n/a	1	0	0
963.3772	1	81	n/a	n/a	1	0	0
963.5772	1	81	n/a	n/a	1	0	0
963.7772	1	81	n/a	n/a	1	0	0
963.9772	1	81	n/a	n/a	1	0	0
964.1772	1	81	n/a	n/a	1	0	0
964.3772	1	81	n/a	n/a	1	0	0
964.5772	1	81	n/a	n/a	1	0	0
965.7962	1	10	n/a	n/a	1	51	1
967.0628	1	10	n/a	n/a	1	51	2
968.246	1	10	n/a	n/a	1	51	3
969.4294	1	21	n/a	n/a	1	51	0
970.6792	1	10	n/a	n/a	1	51	1
971.9292	1	21	n/a	n/a	1	51	0
973.0792	1	10	n/a	n/a	1	51	1
974.129	1	10	n/a	n/a	1	51	2
975.2124	1	10	n/a	n/a	1	51	3
976.2956	1	10	n/a	n/a	1	51	4
977.4456	1	10	n/a	n/a	1	51	5
978.5954	1	21	n/a	n/a	1	51	0
979.7454	1	10	n/a	n/a	1	51	1
980.8954	1	10	n/a	n/a	1	51	2
982.0952	1	10	n/a	n/a	1	51	3
983.2952	1	21	n/a	n/a	1	51	0
984.595	1	10	n/a	n/a	1	51	1
985.895	1	21	n/a	n/a	1	51	0
987.145	1	10	n/a	n/a	1	51	1
988.3282	1	10	n/a	n/a	1	51	2
989.3546	1	81	n/a	n/a	1	0	0
989.5546	1	81	n/a	n/a	1	0	0
989.7546	1	81	n/a	n/a	1	0	0
989.9546	1	81	n/a	n/a	1	0	0
990.1546	1	81	n/a	n/a	1	0	0
990.3546	1	81	n/a	n/a	1	0	0
990.5546	1	81	n/a	n/a	1	0	0
990.7546	1	81	n/a	n/a	1	0	0
990.9546	1	81	n/a	n/a	1	0	0
991.1546	1	81	n/a	n/a	1	0	0
992.378	1	10	n/a	n/a	1	51	1
993.578	1	10	n/a	n/a	1	51	2
994.8444	1	10	n/a	n/a	1	51	3
995.9612	1	10	n/a	n/a	1	51	4
997.0444	1	10	n/a	n/a	1	51	5
998.211	1	10	n/a	n/a	1	51	6
999.5276	1	10	n/a	n/a	1	51	7
1000.8442	1	21	n/a	n/a	1	51	0
1001.8774	1	10	n/a	n/a	1	51	1
1003.1274	1	10	n/a	n/a	1	51	2
1004.2772	1	10	n/a	n/a	1	51	3
1005.5938	1	10	n/a	n/a	1	51	4
1006.7272	1	10	n/a	n/a	1	51	5
1007.777	1	10	n/a	n/a	1	51	6
1009.077	1	10	n/a	n/a	1	51	7
1010.377	1	21	n/a	n/a	1	51	0
1011.5936	1	10	n/a	n/a	1	51	1
1012.7434	1	10	n/a	n/a	1	51	2
1013.8268	1	10	n/a	n/a	1	51	3
1015.01	1	10	n/a	n/a	1	51	4
1025.248	1	81	n/a	n/a	1	0	0
1025.448	1	81	n/a	n/a	1	0	0
1025.648	1	81	n/a	n/a	1	0	0
1025.848	1	81	n/a	n/a	1	0	0
1026.048	1	81	n/a	n/a	1	0	0
1026.2482	1	81	n/a	n/a	1	0	0
1026.4482	1	81	n/a	n/a	1	0	0
1026.6482	1	81	n/a	n/a	1	0	0
1026.8482	1	81	n/a	n/a	1	0	0
1027.0482	1	81	n/a	n/a	1	0	0
1028.2258	1	10	n/a	n/a	1	50	1
1029.3092	1	10	n/a	n/a	1	50	2
1030.359	1	10	n/a	n/a	1	50	3
1031.5256	1	10	n/a	n/a	1	50	4
1032.6922	1	10	n/a	n/a	1	50	5
1033.8588	1	21	n/a	n/a	1	50	0
1035.1588	1	10	n/a	n/a	1	50	1
1036.4588	1	21	n/a	n/a	1	50	0
1037.5754	1	10	n/a	n/a	1	50	1
1038.6086	1	10	n/a	n/a	1	50	2
1039.6418	1	10	n/a	n/a	1	50	3
1040.8252	1	10	n/a	n/a	1	50	4
1041.8918	1	10	n/a	n/a	1	50	5
1042.9584	1	21	n/a	n/a	1	50	0
1044.275	1	10	n/a	n/a	1	50	1
1045.3916	1	10	n/a	n/a	1	50	2
1046.5748	1	10	n/a	n/a	1	50	3
1047.6248	1	10	n/a	n/a	1	50	4
1048.8246	1	10	n/a	n/a	1	50	5
1050.008	1	10	n/a	n/a	1	50	6
1050.7604	1	81	n/a	n/a	1	0	0
1050.9604	1	81	n/a	n/a	1	0	0
1051.1604	1	81	n/a	n/a	1	0	0
1051.3604	1	81	n/a	n/a	1	0	0
1051.5604	1	81	n/a	n/a	1	0	0
1051.7604	1	81	n/a	n/a	1	0	0
1051.9604	1	81	n/a	n/a	1	0	0
1052.1604	1	81	n/a	n/a	1	0	0
1052.3604	1	81	n/a	n/a	1	0	0
1052.5604	1	81	n/a	n/a	1	0	0
1053.7744	1	10	n/a	n/a	1	50	1
1055.0076	1	10	n/a	n/a	1	50	2
1056.3242	1	10	n/a	n/a	1	50	3
1057.3742	1	10	n/a	n/a	1	50	4
1058.6242	1	10	n/a	n/a	1	50	5
1059.874	1	21	n/a	n/a	1	50	0
1060.9574	1	10	n/a	n/a	1	50	1
1062.0406	1	21	n/a	n/a	1	50	0
1063.2238	1	10	n/a	n/a	1	50	1
1064.2738	1	10	n/a	n/a	1	50	2
1065.3238	1	10	n/a	n/a	1	50	3
1066.3904	1	10	n/a	n/a	1	50	4
1067.5902	1	10	n/a	n/a	1	50	5
1068.7902	1	21	n/a	n/a	1	50	0
1070.0068	1	10	n/a	n/a	1	50	1
1071.19	1	10	n/a	n/a	1	50	2
1072.4566	1	10	n/a	n/a	1	50	3
1073.7232	1	21	n/a	n/a	1	50	0
1074.7564	1	10	n/a	n/a	1	50	1
1075.9898	1	10	n/a	n/a	1	50	2
1076.9012	1	81	n/a	n/a	1	0	0
1077.1012	1	81	n/a	n/a	1	0	0
1077.3012	1	81	n/a	n/a	1	0	0
1077.5012	1	81	n/a	n/a	1	0	0
1077.7012	1	81	n/a	n/a	1	0	0
1077.9012	1	81	n/a	n/a	1	0	0
1078.1012	1	81	n/a	n/a	1	0	0
1078.3012	1	81	n/a	n/a	1	0	0
1078.5012	1	81	n/a	n/a	1	0	0
1078.7012	1	81	n/a	n/a	1	0	0
1080.0896	1	10	n/a	n/a	1	50	1
1081.3394	1	10	n/a	n/a	1	50	2
1082.606	1	10	n/a	n/a	1	50	3
1083.8226	1	10	n/a	n/a	1	50	4
1085.0226	1	10	n/a	n/a	1	50	5
1086.2224	1	21	n/a	n/a	1	50	0
1087.5224	1	10	n/a	n/a	1	50	1
1088.8224	1	21	n/a	n/a	1	50	0
1090.0556	1	10	n/a	n/a	1	50	1
1091.3056	1	10	n/a	n/a	1	50	2
1092.4722	1	10	n/a	n/a	1	50	3
1093.7388	1	10	n/a	n/a	1	50	4
1094.7886	1	10	n/a	n/a	1	50	5
1095.922	1	10	n/a	n/a	1	50	6
1097.2052	1	10	n/a	n/a	1	50	7
1098.4884	1	21	n/a	n/a	1	50	0
1099.5718	1	10	n/a	n/a	1	50	1
1100.655	1	21	n/a	n/a	1	50	0
1101.9548	1	10	n/a	n/a	1	50	1
1103.2048	1	10	n/a	n/a	1	50	2
1104.0794	1	81	n/a	n/a	1	0	0
1104.2794	1	81	n/a	n/a	1	0	0
1104.4794	1	81	n/a	n/a	1	0	0
1104.6794	1	81	n/a	n/a	1	0	0
1104.8794	1	81	n/a	n/a	1	0	0
1105.0794	1	81	n/a	n/a	1	0	0
1105.2794	1	81	n/a	n/a	1	0	0
1105.4794	1	81	n/a	n/a	1	0	0
1105.6794	1	81	n/a	n/a	1	0	0
1105.8794	1	81	n/a	n/a	1	0	0
1107.2546	1	10	n/a	n/a	1	50	1
1108.5378	1	21	n/a	n/a	1	50	0
1109.8544	1	10	n/a	n/a	1	50	1
1110.971	1	10	n/a	n/a	1	50	2
1112.021	1	10	n/a	n/a	1	50	3
1113.1376	1	10	n/a	n/a	1	50	4
1114.3876	1	10	n/a	n/a	1	50	5
1115.6374	1	21	n/a	n/a	1	50	0
1116.6874	1	10	n/a	n/a	1	50	1
1117.7374	1	21	n/a	n/a	1	50	0
1119.0372	1	10	n/a	n/a	1	50	1
1120.3372	1	21	n/a	n/a	1	50	0
1121.4704	1	10	n/a	n/a	1	50	1
1122.6036	1	21	n/a	n/a	1	50	0
1123.8536	1	10	n/a	n/a	1	50	1
1125.1202	1	21	n/a	n/a	1	50	0
1126.2534	1	10	n/a	n/a	1	50	1
1127.2868	1	10	n/a	n/a	1	50	2
1128.3534	1	10	n/a	n/a	1	50	3
1129.42	1	21	n/a	n/a	1	50	0
1130.3616	1	81	n/a	n/a	1	0	0
1130.5616	1	81	n/a	n/a	1	0	0
1130.7616	1	81	n/a	n/a	1	0	0
1130.9616	1	81	n/a	n/a	1	0	0
1131.1616	1	81	n/a	n/a	1	0	0
1131.3616	1	81	n/a	n/a	1	0	0
1131.5616	1	81	n/a	n/a	1	0	0
1131.7616	1	81	n/a	n/a	1	0	0
1131.9616	1	81	n/a	n/a	1	0	0
1132.1616	1	81	n/a	n/a	1	0	0
1133.5698	1	10	n/a	n/a	1	50	1
1134.653	1	10	n/a	n/a	1	50	2
1135.9362	1	10	n/a	n/a	1	50	3
1137.1196	1	10	n/a	n/a	1	50	4
1138.4194	1	10	n/a	n/a	1	50	5
1139.7194	1	21	n/a	n/a	1	50	0
1140.986	1	10	n/a	n/a	1	50	1
1142.2526	1	21	n/a	n/a	1	50	0
1143.2858	1	10	n/a	n/a	1	50	1
1144.569	1	10	n/a	n/a	1	50	2
1145.669	1	10	n/a	n/a	1	50	3
1146.769	1	21	n/a	n/a	1	50	0
1148.0856	1	10	n/a	n/a	1	50	1
1149.2354	1	10	n/a	n/a	1	50	2
1150.3354	1	10	n/a	n/a	1	50	3
1151.602	1	10	n/a	n/a	1	50	4
1152.652	1	10	n/a	n/a	1	50	5
1153.7018	1	21	n/a	n/a	1	50	0
1154.7852	1	10	n/a	n/a	1	50	1
1155.8684	1	10	n/a	n/a	1	50	2
1200.3938	1	82	n/a	n/a	1	0	0
1200.4198	1	82	n/a	n/a	1	0	0
1200.4728	1	82	n/a	n/a	1	0	0
1200.6498	1	82	n/a	n/a	1	0	0
1200.9668	1	82	n/a	n/a	1	0	0
1201.394	1	82	n/a	n/a	1	0	0
1201.498	1	82	n/a	n/a	1	0	0
1201.735	1	82	n/a	n/a	1	0	0
1201.802	1	82	n/a	n/a	1	0	0
1201.968	1	82	n/a	n/a	1	0	0
1203.5322	1	10	n/a	n/a	1	52	1
1204.7822	1	21	n/a	n/a	1	52	0
1205.8488	1	10	n/a	n/a	1	52	1
1207.032	1	10	n/a	n/a	1	52	2
1208.132	1	10	n/a	n/a	1	52	3
1209.4152	1	10	n/a	n/a	1	52	4
1210.4986	1	10	n/a	n/a	1	52	5
1211.6818	1	10	n/a	n/a	1	52	6
1212.915	1	10	n/a	n/a	1	52	7
1214.1484	1	21	n/a	n/a	1	52	0
1215.2482	1	10	n/a	n/a	1	52	1
1216.4982	1	10	n/a	n/a	1	52	2
1217.5982	1	10	n/a	n/a	1	52	3
1218.648	1	10	n/a	n/a	1	52	4
1219.798	1	10	n/a	n/a	1	52	5
1220.848	1	10	n/a	n/a	1	52	6
1221.8978	1	10	n/a	n/a	1	52	7
1222.9478	1	21	n/a	n/a	1	52	0
1224.181	1	10	n/a	n/a	1	52	1
1225.4144	1	10	n/a	n/a	1	52	2
1226.3658	1	82	n/a	n/a	1	0	0
1226.4558	1	82	n/a	n/a	1	0	0
1226.8308	1	82	n/a	n/a	1	0	0
1227.2558	1	82	n/a	n/a	1	0	0
1227.3058	1	82	n/a	n/a	1	0	0
1227.3658	1	82	n/a	n/a	1	0	0
1227.3908	1	82	n/a	n/a	1	0	0
1227.5068	1	82	n/a	n/a	1	0	0
1227.6898	1	82	n/a	n/a	1	0	0
1228.0078	1	82	n/a	n/a	1	0	0
1229.514	1	10	n/a	n/a	1	52	1
1230.714	1	10	n/a	n/a	1	52	2
1231.864	1	10	n/a	n/a	1	52	3
1232.9972	1	10	n/a	n/a	1	52	4
1234.0638	1	10	n/a	n/a	1	52	5
1235.1804	1	10	n/a	n/a	1	52	6
1236.4136	1	10	n/a	n/a	1	52	7
1237.647	1	21	n/a	n/a	1	52	0
1238.7136	1	10	n/a	n/a	1	52	1
1239.9968	1	10	n/a	n/a	1	52	2
1241.0634	1	10	n/a	n/a	1	52	3
1242.13	1	10	n/a	n/a	1	52	4
1243.38	1	10	n/a	n/a	1	52	5
1244.6798	1	10	n/a	n/a	1	52	6
1245.7964	1	10	n/a	n/a	1	52	7
1246.913	1	21	n/a	n/a	1	52	0
1248.0464	1	10	n/a	n/a	1	52	1
1249.1962	1	10	n/a	n/a	1	52	2
1250.4628	1	10	n/a	n/a	1	52	3
1251.7294	1	21	n/a	n/a	1	52	0
1252.7202	1	82	n/a	n/a	1	0	0
1253.1052	1	82	n/a	n/a	1	0	0
1253.2302	1	82	n/a	n/a	1	0	0
1253.5202	1	82	n/a	n/a	1	0	0
1253.6062	1	82	n/a	n/a	1	0	0
1253.7202	1	82	n/a	n/a	1	0	0
1253.7952	1	82	n/a	n/a	1	0	0
1254.0562	1	82	n/a	n/a	1	0	0
1254.2302	1	82	n/a	n/a	1	0	0
1254.5452	1	82	n/a	n/a	1	0	0
1255.6458	1	10	n/a	n/a	1	52	1
1256.6792	1	10	n/a	n/a	1	52	2
1257.7458	1	10	n/a	n/a	1	52	3
1258.779	1	10	n/a	n/a	1	52	4
1260.079	1	10	n/a	n/a	1	52	5
1261.3788	1	21	n/a	n/a	1	52	0
1262.6454	1	10	n/a	n/a	1	52	1
1263.712	1	10	n/a	n/a	1	52	2
1265.0286	1	10	n/a	n/a	1	52	3
1266.3452	1	21	n/a	n/a	1	52	0
1267.5618	1	10	n/a	n/a	1	52	1
1268.5952	1	10	n/a	n/a	1	52	2
1269.7618	1	10	n/a	n/a	1	52	3
1270.9616	1	10	n/a	n/a	1	52	4
1271.995	1	10	n/a	n/a	1	52	5
1273.0282	1	21	n/a	n/a	1	52	0
1274.3282	1	10	n/a	n/a	1	52	1
1275.5448	1	10	n/a	n/a	1	52	2
1276.7946	1	10	n/a	n/a	1	52	3
1278.0446	1	21	n/a	n/a	1	52	0
1278.9164	1	82	n/a	n/a	1	0	0
1279.0224	1	82	n/a	n/a	1	0	0
1279.3524	1	82	n/a	n/a	1	0	0
1279.7054	1	82	n/a	n/a	1	0	0
1279.8664	1	82	n/a	n/a	1	0	0
1279.9164	1	82	n/a	n/a	1	0	0
1280.0264	1	82	n/a	n/a	1	0	0
1280.4004	1	82	n/a	n/a	1	0	0
1280.5754	1	82	n/a	n/a	1	0	0
1280.8784	1	82	n/a	n/a	1	0	0
1282.111	1	10	n/a	n/a	1	52	1
1283.411	1	21	n/a	n/a	1	52	0
1284.6108	1	10	n/a	n/a	1	52	1
1285.8774	1	10	n/a	n/a	1	52	2
1286.9274	1	10	n/a	n/a	1	52	3
1288.2106	1	10	n/a	n/a	1	52	4
1289.3606	1	10	n/a	n/a	1	52	5
1290.5272	1	10	n/a	n/a	1	52	6
1291.6438	1	10	n/a	n/a	1	52	7
1292.7604	1	21	n/a	n/a	1	52	0
1293.827	1	10	n/a	n/a	1	52	1
1294.8936	1	21	n/a	n/a	1	52	0
1296.1268	1	10	n/a	n/a	1	52	1
1297.3602	1	21	n/a	n/a	1	52	0
1298.61	1	10	n/a	n/a	1	52	1
1299.86	1	21	n/a	n/a	1	52	0
1301.0432	1	10	n/a	n/a	1	52	1
1302.3764	1	10	n/a	n/a	1	52	2
1303.593	1	10	n/a	n/a	1	52	3
1304.8096	1	21	n/a	n/a	1	52	0
1305.6104	1	82	n/a	n/a	1	0	0
1305.7634	1	82	n/a	n/a	1	0	0
1306.0064	1	82	n/a	n/a	1	0	0
1306.1974	1	82	n/a	n/a	1	0	0
1306.4664	1	82	n/a	n/a	1	0	0
1306.6104	1	82	n/a	n/a	1	0	0
1306.7804	1	82	n/a	n/a	1	0	0
1307.0474	1	82	n/a	n/a	1	0	0
1307.3914	1	82	n/a	n/a	1	0	0
1307.4604	1	82	n/a	n/a	1	0	0
1308.6762	1	10	n/a	n/a	1	52	1
1309.7094	1	10	n/a	n/a	1	52	2
1310.776	1	10	n/a	n/a	1	52	3
1311.8426	1	21	n/a	n/a	1	52	0
1312.9592	1	10	n/a	n/a	1	52	1
1314.1924	1	10	n/a	n/a	1	52	2
1315.3424	1	10	n/a	n/a	1	52	3
1316.6256	1	10	n/a	n/a	1	52	4
1317.8922	1	10	n/a	n/a	1	52	5
1318.9256	1	10	n/a	n/a	1	52	6
1319.9754	1	10	n/a	n/a	1	52	7
1321.0254	1	21	n/a	n/a	1	52	0
1322.092	1	10	n/a	n/a	1	52	1
1323.242	1	10	n/a	n/a	1	52	2
1324.5418	1	10	n/a	n/a	1	52	3
1325.8418	1	21	n/a	n/a	1	52	0
1327.125	1	10	n/a	n/a	1	52	1
1328.2584	1	10	n/a	n/a	1	52	2
1329.3082	1	10	n/a	n/a	1	52	3
1330.5416	1	10	n/a	n/a	1	52	4
1405.4122	1	81	n/a	n/a	1	0	0
1405.6122	1	81	n/a	n/a	1	0	0
1405.8122	1	81	n/a	n/a	1	0	0
1406.0122	1	81	n/a	n/a	1	0	0
1406.2122	1	81	n/a	n/a	1	0	0
1406.4122	1	81	n/a	n/a	1	0	0
1406.6122	1	81	n/a	n/a	1	0	0
1406.8122	1	81	n/a	n/a	1	0	0
1407.0122	1	81	n/a	n/a	1	0	0
1407.2122	1	81	n/a	n/a	1	0	0
1408.6202	1	10	n/a	n/a	1	51	1
1409.7368	1	10	n/a	n/a	1	51	2
1410.9702	1	10	n/a	n/a	1	51	3
1412.1534	1	10	n/a	n/a	1	51	4
1413.3534	1	10	n/a	n/a	1	51	5
1414.4866	1	10	n/a	n/a	1	51	6
1415.6032	1	10	n/a	n/a	1	51	7
1416.7198	1	21	n/a	n/a	1	51	0
1417.803	1	10	n/a	n/a	1	51	1
1418.9696	1	10	n/a	n/a	1	51	2
1420.2362	1	10	n/a	n/a	1	51	3
1421.4696	1	10	n/a	n/a	1	51	4
1422.636	1	10	n/a	n/a	1	51	5
1423.8026	1	21	n/a	n/a	1	51	0
1425.0526	1	10	n/a	n/a	1	51	1
1426.3358	1	10	n/a	n/a	1	51	2
1427.3692	1	10	n/a	n/a	1	51	3
1428.4024	1	10	n/a	n/a	1	51	4
1429.6356	1	10	n/a	n/a	1	51	5
1430.869	1	21	n/a	n/a	1	51	0
1431.8846	1	81	n/a	n/a	1	0	0
1432.0846	1	81	n/a	n/a	1	0	0
1432.2846	1	81	n/a	n/a	1	0	0
1432.4846	1	81	n/a	n/a	1	0	0
1432.6846	1	81	n/a	n/a	1	0	0
1432.8846	1	81	n/a	n/a	1	0	0
1433.0846	1	81	n/a	n/a	1	0	0
1433.2846	1	81	n/a	n/a	1	0	0
1433.4846	1	81	n/a	n/a	1	0	0
1433.6846	1	81	n/a	n/a	1	0	0
1435.0854	1	10	n/a	n/a	1	51	1
1436.3852	1	21	n/a	n/a	1	51	0
1437.4852	1	10	n/a	n/a	1	51	1
1438.6852	1	10	n/a	n/a	1	51	2
1439.835	1	10	n/a	n/a	1	51	3
1440.935	1	10	n/a	n/a	1	51	4
1442.2516	1	10	n/a	n/a	1	51	5
1443.5682	1	21	n/a	n/a	1	51	0
1444.7014	1	10	n/a	n/a	1	51	1
1445.968	1	10	n/a	n/a	1	51	2
1447.1346	1	10	n/a	n/a	1	51	3
1448.3512	1	10	n/a	n/a	1	51	4
1449.4678	1	10	n/a	n/a	1	51	5
1450.6344	1	10	n/a	n/a	1	51	6
1451.9344	1	10	n/a	n/a	1	51	7
1453.2344	1	21	n/a	n/a	1	51	0
1454.4676	1	10	n/a	n/a	1	51	1
1455.7008	1	21	n/a	n/a	1	51	0
1456.934	1	10	n/a	n/a	1	51	1
1457.9674	1	10	n/a	n/a	1	51	2
1458.9818	1	81	n/a	n/a	1	0	0
1459.1818	1	81	n/a	n/a	1	0	0
1459.3818	1	81	n/a	n/a	1	0	0
1459.5818	1	81	n/a	n/a	1	0	0
1459.7818	1	81	n/a	n/a	1	0	0
1459.9818	1	81	n/a	n/a	1	0	0
1460.1818	1	81	n/a	n/a	1	0	0
1460.3818	1	81	n/a	n/a	1	0	0
1460.5818	1	81	n/a	n/a	1	0	0
1460.7818	1	81	n/a	n/a	1	0	0
1461.9172	1	10	n/a	n/a	1	51	1
1462.967	1	21	n/a	n/a	1	51	0
1464.2336	1	10	n/a	n/a	1	51	1
1465.3002	1	10	n/a	n/a	1	51	2
1466.3668	1	10	n/a	n/a	1	51	3
1467.4334	1	21	n/a	n/a	1	51	0
1468.7334	1	10	n/a	n/a	1	51	1
1470.0334	1	21	n/a	n/a	1	51	0
1471.0666	1	10	n/a	n/a	1	51	1
1472.2998	1	10	n/a	n/a	1	51	2
1473.3332	1	10	n/a	n/a	1	51	3
1474.3664	1	21	n/a	n/a	1	51	0
1475.583	1	10	n/a	n/a	1	51	1
1476.7496	1	10	n/a	n/a	1	51	2
1478.0662	1	10	n/a	n/a	1	51	3
1479.3828	1	21	n/a	n/a	1	51	0
1480.5828	1	10	n/a	n/a	1	51	1
1481.8826	1	10	n/a	n/a	1	51	2
1483.0826	1	10	n/a	n/a	1	51	3
1484.2824	1	10	n/a	n/a	1	51	4
1485.3188	1	81	n/a	n/a	1	0	0
1485.5188	1	81	n/a	n/a	1	0	0
1485.7188	1	81	n/a	n/a	1	0	0
1485.9188	1	81	n/a	n/a	1	0	0
1486.1188	1	81	n/a	n/a	1	0	0
1486.319	1	81	n/a	n/a	1	0	0
1486.519	1	81	n/a	n/a	1	0	0
1486.719	1	81	n/a	n/a	1	0	0
1486.919	1	81	n/a	n/a	1	0	0
1487.1188	1	81	n/a	n/a	1	0	0
1488.2822	1	10	n/a	n/a	1	51	1
1489.6156	1	10	n/a	n/a	1	51	2
1490.6654	1	10	n/a	n/a	1	51	3
1491.8488	1	10	n/a	n/a	1	51	4
1493.082	1	10	n/a	n/a	1	51	5
1494.232	1	10	n/a	n/a	1	51	6
1495.4652	1	10	n/a	n/a	1	51	7
1496.6984	1	21	n/a	n/a	1	51	0
1497.9316	1	10	n/a	n/a	1	51	1
1499.0316	1	10	n/a	n/a	1	51	2
1500.2316	1	10	n/a	n/a	1	51	3
1501.4314	1	21	n/a	n/a	1	51	0
1502.7314	1	10	n/a	n/a	1	51	1
1503.8814	1	10	n/a	n/a	1	51	2
1505.0646	1	10	n/a	n/a	1	51	3
1506.1312	1	10	n/a	n/a	1	51	4
1507.2478	1	10	n/a	n/a	1	51	5
1508.3644	1	21	n/a	n/a	1	51	0
1509.681	1	10	n/a	n/a	1	51	1
1510.9976	1	21	n/a	n/a	1	51	0
1512.0052	1	81	n/a	n/a	1	0	0
1512.2052	1	81	n/a	n/a	1	0	0
1512.4052	1	81	n/a	n/a	1	0	0
1512.6052	1	81	n/a	n/a	1	0	0
1512.8052	1	81	n/a	n/a	1	0	0
1513.0052	1	81	n/a	n/a	1	0	0
1513.2052	1	81	n/a	n/a	1	0	0
1513.4052	1	81	n/a	n/a	1	0	0
1513.6052	1	81	n/a	n/a	1	0	0
1513.8052	1	81	n/a	n/a	1	0	0
1515.064	1	10	n/a	n/a	1	51	1
1516.2306	1	21	n/a	n/a	1	51	0
1517.3138	1	10	n/a	n/a	1	51	1
1518.4804	1	10	n/a	n/a	1	51	2
1519.5138	1	10	n/a	n/a	1	51	3
1520.7636	1	10	n/a	n/a	1	51	4
1522.0636	1	10	n/a	n/a	1	51	5
1523.3636	1	21	n/a	n/a	1	51	0
1524.4968	1	10	n/a	n/a	1	51	1
1525.63	1	21	n/a	n/a	1	51	0
1526.73	1	10	n/a	n/a	1	51	1
1527.9132	1	10	n/a	n/a	1	51	2
1529.0466	1	10	n/a	n/a	1	51	3
1530.2632	1	10	n/a	n/a	1	51	4
1531.513	1	10	n/a	n/a	1	51	5
1532.613	1	10	n/a	n/a	1	51	6
1533.8796	1	10	n/a	n/a	1	51	7
1535.1462	1	21	n/a	n/a	1	51	0
1536.446	1	10	n/a	n/a	1	51	1
1537.746	1	21	n/a	n/a	1	51	0
1551.7826	1	82	n/a	n/a	1	0	0
1552.1466	1	82	n/a	n/a	1	0	0
1552.3856	1	82	n/a	n/a	1	0	0
1552.7196	1	82	n/a	n/a	1	0	0
1552.7486	1	82	n/a	n/a	1	0	0
1552.7826	1	82	n/a	n/a	1	0	0
1552.8136	1	82	n/a	n/a	1	0	0
1553.1056	1	82	n/a	n/a	1	0	0
1553.3346	1	82	n/a	n/a	1	0	0
1553.4736	1	82	n/a	n/a	1	0	0
1554.7284	1	10	n/a	n/a	1	50	1
1556.0116	1	10	n/a	n/a	1	50	2
1557.2616	1	10	n/a	n/a	1	50	3
1558.5114	1	21	n/a	n/a	1	50	0
1559.628	1	10	n/a	n/a	1	50	1
1560.7446	1	21	n/a	n/a	1	50	0
1562.0446	1	10	n/a	n/a	1	50	1
1563.2278	1	10	n/a	n/a	1	50	2
1564.5444	1	10	n/a	n/a	1	50	3
1565.861	1	21	n/a	n/a	1	50	0
1567.1776	1	10	n/a	n/a	1	50	1
1568.2276	1	10	n/a	n/a	1	50	2
1569.3276	1	10	n/a	n/a	1	50	3
1570.6108	1	10	n/a	n/a	1	50	4
1571.644	1	10	n/a	n/a	1	50	5
1572.7606	1	10	n/a	n/a	1	50	6
1573.9438	1	10	n/a	n/a	1	50	7
1575.1272	1	21	n/a	n/a	1	50	0
1576.2604	1	10	n/a	n/a	1	50	1
1577.3104	1	10	n/a	n/a	1	50	2
1578.0448	1	82	n/a	n/a	1	0	0
1578.1958	1	82	n/a	n/a	1	0	0
1578.2638	1	82	n/a	n/a	1	0	0
1578.6858	1	82	n/a	n/a	1	0	0
1578.9788	1	82	n/a	n/a	1	0	0
1579.0448	1	82	n/a	n/a	1	0	0
1579.0918	1	82	n/a	n/a	1	0	0
1579.3908	1	82	n/a	n/a	1	0	0
1579.6048	1	82	n/a	n/a	1	0	0
1579.7168	1	82	n/a	n/a	1	0	0
1581.1602	1	10	n/a	n/a	1	50	1
1582.26	1	10	n/a	n/a	1	50	2
1583.4266	1	10	n/a	n/a	1	50	3
1584.7266	1	10	n/a	n/a	1	50	4
1586.0598	1	10	n/a	n/a	1	50	5
1587.1764	1	10	n/a	n/a	1	50	6
1588.3598	1	10	n/a	n/a	1	50	7
1589.543	1	21	n/a	n/a	1	50	0
1590.743	1	10	n/a	n/a	1	50	1
1592.0594	1	10	n/a	n/a	1	50	2
1593.2928	1	10	n/a	n/a	1	50	3
1594.526	1	10	n/a	n/a	1	50	4
1595.7926	1	10	n/a	n/a	1	50	5
1597.0592	1	21	n/a	n/a	1	50	0
1598.2924	1	10	n/a	n/a	1	50	1
1599.4258	1	10	n/a	n/a	1	50	2
1600.559	1	10	n/a	n/a	1	50	3
1601.6922	1	21	n/a	n/a	1	50	0
1602.8588	1	10	n/a	n/a	1	50	1
1604.1088	1	10	n/a	n/a	1	50	2
1605.0564	1	82	n/a	n/a	1	0	0
1605.2114	1	82	n/a	n/a	1	0	0
1605.3192	1	82	n/a	n/a	1	0	0
1605.3832	1	82	n/a	n/a	1	0	0
1605.6832	1	82	n/a	n/a	1	0	0
1606.0564	1	82	n/a	n/a	1	0	0
1606.2004	1	82	n/a	n/a	1	0	0
1606.5554	1	82	n/a	n/a	1	0	0
1606.6254	1	82	n/a	n/a	1	0	0
1606.8754	1	82	n/a	n/a	1	0	0
1608.1918	1	10	n/a	n/a	1	50	1
1609.3752	1	10	n/a	n/a	1	50	2
1610.4584	1	10	n/a	n/a	1	50	3
1611.6084	1	10	n/a	n/a	1	50	4
1612.7416	1	10	n/a	n/a	1	50	5
1613.8916	1	21	n/a	n/a	1	50	0
1614.9582	1	10	n/a	n/a	1	50	1
1616.1414	1	10	n/a	n/a	1	50	2
1617.4246	1	10	n/a	n/a	1	50	3
1618.658	1	10	n/a	n/a	1	50	4
1619.9078	1	10	n/a	n/a	1	50	5
1621.1578	1	21	n/a	n/a	1	50	0
1622.3078	1	10	n/a	n/a	1	50	1
1623.6076	1	10	n/a	n/a	1	50	2
1624.7076	1	10	n/a	n/a	1	50	3
1625.8076	1	21	n/a	n/a	1	50	0
1627.0242	1	10	n/a	n/a	1	50	1
1628.2408	1	21	n/a	n/a	1	50	0
1629.424	1	10	n/a	n/a	1	50	1
1630.6072	1	21	n/a	n/a	1	50	0
1631.431	1	82	n/a	n/a	1	0	0
1631.731	1	82	n/a	n/a	1	0	0
1631.955	1	82	n/a	n/a	1	0	0
1632.122	1	82	n/a	n/a	1	0	0
1632.238	1	82	n/a	n/a	1	0	0
1632.431	1	82	n/a	n/a	1	0	0
1632.733	1	82	n/a	n/a	1	0	0
1633.096	1	82	n/a	n/a	1	0	0
1633.143	1	82	n/a	n/a	1	0	0
1633.239	1	82	n/a	n/a	1	0	0
1634.5736	1	10	n/a	n/a	1	50	1
1635.8236	1	21	n/a	n/a	1	50	0
1637.0402	1	10	n/a	n/a	1	50	1
1638.3234	1	10	n/a	n/a	1	50	2
1639.59	1	10	n/a	n/a	1	50	3
1640.8566	1	21	n/a	n/a	1	50	0
1642.1566	1	10	n/a	n/a	1	50	1
1643.2066	1	10	n/a	n/a	1	50	2
1644.4398	1	10	n/a	n/a	1	50	3
1645.523	1	10	n/a	n/a	1	50	4
1646.5562	1	10	n/a	n/a	1	50	5
1647.7896	1	10	n/a	n/a	1	50	6
1648.9728	1	10	n/a	n/a	1	50	7
1650.156	1	21	n/a	n/a	1	50	0
1651.306	1	10	n/a	n/a	1	50	1
1652.6226	1	10	n/a	n/a	1	50	2
1653.6726	1	10	n/a	n/a	1	50	3
1654.9224	1	10	n/a	n/a	1	50	4
1656.189	1	10	n/a	n/a	1	50	5
1657.339	1	10	n/a	n/a	1	50	6
1658.2144	1	82	n/a	n/a	1	0	0
1658.3704	1	82	n/a	n/a	1	0	0
1658.4124	1	82	n/a	n/a	1	0	0
1658.6344	1	82	n/a	n/a	1	0	0
1658.9834	1	82	n/a	n/a	1	0	0
1659.2146	1	82	n/a	n/a	1	0	0
1659.2726	1	82	n/a	n/a	1	0	0
1659.5616	1	82	n/a	n/a	1	0	0
1659.9116	1	82	n/a	n/a	1	0	0
1660.1416	1	82	n/a	n/a	1	0	0
1661.1888	1	10	n/a	n/a	1	50	1
1662.272	1	21	n/a	n/a	1	50	0
1663.3386	1	10	n/a	n/a	1	50	1
1664.472	1	10	n/a	n/a	1	50	2
1665.7552	1	10	n/a	n/a	1	50	3
1666.8052	1	10	n/a	n/a	1	50	4
1667.8718	1	10	n/a	n/a	1	50	5
1668.9384	1	21	n/a	n/a	1	50	0
1670.105	1	10	n/a	n/a	1	50	1
1671.2716	1	21	n/a	n/a	1	50	0
1672.3882	1	10	n/a	n/a	1	50	1
1673.5048	1	21	n/a	n/a	1	50	0
1674.6214	1	10	n/a	n/a	1	50	1
1675.8712	1	10	n/a	n/a	1	50	2
1677.1378	1	10	n/a	n/a	1	50	3
1678.2378	1	10	n/a	n/a	1	50	4
1679.4378	1	10	n/a	n/a	1	50	5
1680.6376	1	21	n/a	n/a	1	50	0
1681.8208	1	10	n/a	n/a	1	50	1
1682.9376	1	10	n/a	n/a	1	50	2
1705.3602	1	82	n/a	n/a	1	0	0
1705.6972	1	82	n/a	n/a	1	0	0
1705.9922	1	82	n/a	n/a	1	0	0
1706.0222	1	82	n/a	n/a	1	0	0
1706.1952	1	82	n/a	n/a	1	0	0
1706.3604	1	82	n/a	n/a	1	0	0
1706.7004	1	82	n/a	n/a	1	0	0
1706.8294	1	82	n/a	n/a	1	0	0
1706.8844	1	82	n/a	n/a	1	0	0
1707.3004	1	82	n/a	n/a	1	0	0
1708.5026	1	10	n/a	n/a	1	52	1
1709.7692	1	21	n/a	n/a	1	52	0
1711.0858	1	10	n/a	n/a	1	52	1
1712.3692	1	10	n/a	n/a	1	52	2
1713.5524	1	10	n/a	n/a	1	52	3
1714.7356	1	21	n/a	n/a	1	52	0
1715.8856	1	10	n/a	n/a	1	52	1
1717.2022	1	10	n/a	n/a	1	52	2
1718.352	1	10	n/a	n/a	1	52	3
1719.3854	1	10	n/a	n/a	1	52	4
1720.5186	1	10	n/a	n/a	1	52	5
1721.6686	1	10	n/a	n/a	1	52	6
1722.8852	1	10	n/a	n/a	1	52	7
1724.1018	1	21	n/a	n/a	1	52	0
1725.2516	1	10	n/a	n/a	1	52	1
1726.3182	1	10	n/a	n/a	1	52	2
1727.3682	1	10	n/a	n/a	1	52	3
1728.4182	1	21	n/a	n/a	1	52	0
1729.718	1	10	n/a	n/a	1	52	1
1730.7846	1	10	n/a	n/a	1	52	2
1731.7154	1	82	n/a	n/a	1	0	0
1731.7804	1	82	n/a	n/a	1	0	0
1731.9084	1	82	n/a	n/a	1	0	0
1732.1614	1	82	n/a	n/a	1	0	0
1732.4754	1	82	n/a	n/a	1	0	0
1732.7154	1	82	n/a	n/a	1	0	0
1732.7854	1	82	n/a	n/a	1	0	0
1733.1404	1	82	n/a	n/a	1	0	0
1733.2364	1	82	n/a	n/a	1	0	0
1733.3694	1	82	n/a	n/a	1	0	0
1734.8678	1	10	n/a	n/a	1	52	1
1735.9178	1	10	n/a	n/a	1	52	2
1736.9844	1	10	n/a	n/a	1	52	3
1738.2342	1	10	n/a	n/a	1	52	4
1739.4342	1	10	n/a	n/a	1	52	5
1740.6842	1	10	n/a	n/a	1	52	6
1741.784	1	10	n/a	n/a	1	52	7
1742.884	1	21	n/a	n/a	1	52	0
1743.9506	1	10	n/a	n/a	1	52	1
1745.2172	1	10	n/a	n/a	1	52	2
1746.3838	1	10	n/a	n/a	1	52	3
1747.5338	1	10	n/a	n/a	1	52	4
1748.767	1	10	n/a	n/a	1	52	5
1750.0002	1	21	n/a	n/a	1	52	0
1751.1002	1	10	n/a	n/a	1	52	1
1752.2002	1	21	n/a	n/a	1	52	0
1753.5	1	10	n/a	n/a	1	52	1
1754.6832	1	10	n/a	n/a	1	52	2
1755.7666	1	10	n/a	n/a	1	52	3
1756.8832	1	10	n/a	n/a	1	52	4
1757.7318	1	82	n/a	n/a	1	0	0
1757.7958	1	82	n/a	n/a	1	0	0
1758.2148	1	82	n/a	n/a	1	0	0
1758.4578	1	82	n/a	n/a	1	0	0
1758.5978	1	82	n/a	n/a	1	0	0
1758.7318	1	82	n/a	n/a	1	0	0
1758.7518	1	82	n/a	n/a	1	0	0
1759.0068	1	82	n/a	n/a	1	0	0
1759.4198	1	82	n/a	n/a	1	0	0
1759.5758	1	82	n/a	n/a	1	0	0
1760.683	1	10	n/a	n/a	1	52	1
1761.8828	1	10	n/a	n/a	1	52	2
1763.1828	1	10	n/a	n/a	1	52	3
1764.2494	1	10	n/a	n/a	1	52	4
1765.4826	1	10	n/a	n/a	1	52	5
1766.716	1	21	n/a	n/a	1	52	0
1767.9326	1	10	n/a	n/a	1	52	1
1769.0492	1	10	n/a	n/a	1	52	2
1770.2824	1	10	n/a	n/a	1	52	3
1771.4824	1	10	n/a	n/a	1	52	4
1772.6156	1	10	n/a	n/a	1	52	5
1773.7488	1	21	n/a	n/a	1	52	0
1774.7988	1	10	n/a	n/a	1	52	1
1775.8488	1	10	n/a	n/a	1	52	2
1777.0986	1	10	n/a	n/a	1	52	3
1778.282	1	10	n/a	n/a	1	52	4
1779.3652	1	10	n/a	n/a	1	52	5
1780.5818	1	10	n/a	n/a	1	52	6
1781.915	1	10	n/a	n/a	1	52	7
1783.2482	1	21	n/a	n/a	1	52	0
1784.218	1	82	n/a	n/a	1	0	0
1784.463	1	82	n/a	n/a	1	0	0
1784.526	1	82	n/a	n/a	1	0	0
1784.689	1	82	n/a	n/a	1	0	0
1784.969	1	82	n/a	n/a	1	0	0
1785.218	1	82	n/a	n/a	1	0	0
1785.568	1	82	n/a	n/a	1	0	0
1785.709	1	82	n/a	n/a	1	0	0
1785.759	1	82	n/a	n/a	1	0	0
1786.164	1	82	n/a	n/a	1	0	0
1787.148	1	10	n/a	n/a	1	52	1
1788.1814	1	10	n/a	n/a	1	52	2
1789.3646	1	10	n/a	n/a	1	52	3
1790.5478	1	21	n/a	n/a	1	52	0
1791.8144	1	10	n/a	n/a	1	52	1
1792.8478	1	10	n/a	n/a	1	52	2
1794.131	1	10	n/a	n/a	1	52	3
1795.2976	1	10	n/a	n/a	1	52	4
1796.5642	1	10	n/a	n/a	1	52	5
1797.8308	1	21	n/a	n/a	1	52	0
1798.9806	1	10	n/a	n/a	1	52	1
1800.0306	1	10	n/a	n/a	1	52	2
1801.1472	1	10	n/a	n/a	1	52	3
1802.2472	1	10	n/a	n/a	1	52	4
1803.547	1	10	n/a	n/a	1	52	5
1804.847	1	21	n/a	n/a	1	52	0
1805.9802	1	10	n/a	n/a	1	52	1
1807.2802	1	10	n/a	n/a	1	52	2
1808.5468	1	10	n/a	n/a	1	52	3
1809.88	1	10	n/a	n/a	1	52	4
1810.6376	1	82	n/a	n/a	1	0	0
1810.9736	1	82	n/a	n/a	1	0	0
1811.1396	1	82	n/a	n/a	1	0	0
1811.1656	1	82	n/a	n/a	1	0	0
1811.2416	1	82	n/a	n/a	1	0	0
1811.6376	1	82	n/a	n/a	1	0	0
1811.7546	1	82	n/a	n/a	1	0	0
1812.1506	1	82	n/a	n/a	1	0	0
1812.4476	1	82	n/a	n/a	1	0	0
1812.5316	1	82	n/a	n/a	1	0	0
1813.6298	1	10	n/a	n/a	1	52	1
1814.8298	1	10	n/a	n/a	1	52	2
1815.9964	1	10	n/a	n/a	1	52	3
1817.0462	1	10	n/a	n/a	1	52	4
1818.163	1	10	n/a	n/a	1	52	5
1819.2628	1	21	n/a	n/a	1	52	0
1820.496	1	10	n/a	n/a	1	52	1
1821.6626	1	10	n/a	n/a	1	52	2
1822.996	1	10	n/a	n/a	1	52	3
1824.0626	1	10	n/a	n/a	1	52	4
1825.3792	1	10	n/a	n/a	1	52	5
1826.6958	1	10	n/a	n/a	1	52	6
1828.0124	1	10	n/a	n/a	1	52	7
1829.329	1	21	n/a	n/a	1	52	0
1830.5288	1	10	n/a	n/a	1	52	1
1831.8454	1	10	n/a	n/a	1	52	2
1832.8954	1	10	n/a	n/a	1	52	3
1834.162	1	10	n/a	n/a	1	52	4
1835.4786	1	10	n/a	n/a	1	52	5
1836.7952	1	21	n/a	n/a	1	52	0
1922.3696	1	81	n/a	n/a	1	0	0
1922.5696	1	81	n/a	n/a	1	0	0
1922.7696	1	81	n/a	n/a	1	0	0
1922.9696	1	81	n/a	n/a	1	0	0
1923.1696	1	81	n/a	n/a	1	0	0
1923.3696	1	81	n/a	n/a	1	0	0
1923.5696	1	81	n/a	n/a	1	0	0
1923.7696	1	81	n/a	n/a	1	0	0
1923.9696	1	81	n/a	n/a	1	0	0
1924.1696	1	81	n/a	n/a	1	0	0
1925.44	1	10	n/a	n/a	1	51	1
1926.5732	1	10	n/a	n/a	1	51	2
1927.7564	1	10	n/a	n/a	1	51	3
1928.823	1	10	n/a	n/a	1	51	4
1930.073	1	10	n/a	n/a	1	51	5
1931.323	1	21	n/a	n/a	1	51	0
1932.5228	1	10	n/a	n/a	1	51	1
1933.7562	1	10	n/a	n/a	1	51	2
1935.006	1	10	n/a	n/a	1	51	3
1936.256	1	21	n/a	n/a	1	51	0
1937.4892	1	10	n/a	n/a	1	51	1
1938.6724	1	10	n/a	n/a	1	51	2
1939.8224	1	10	n/a	n/a	1	51	3
1940.8556	1	10	n/a	n/a	1	51	4
1942.1722	1	10	n/a	n/a	1	51	5
1943.4888	1	21	n/a	n/a	1	51	0
1944.5222	1	10	n/a	n/a	1	51	1
1945.5554	1	21	n/a	n/a	1	51	0
1946.822	1	10	n/a	n/a	1	51	1
1948.0386	1	10	n/a	n/a	1	51	2
1948.769	1	81	n/a	n/a	1	0	0
1948.969	1	81	n/a	n/a	1	0	0
1949.169	1	81	n/a	n/a	1	0	0
1949.369	1	81	n/a	n/a	1	0	0
1949.569	1	81	n/a	n/a	1	0	0
1949.769	1	81	n/a	n/a	1	0	0
1949.969	1	81	n/a	n/a	1	0	0
1950.169	1	81	n/a	n/a	1	0	0
1950.369	1	81	n/a	n/a	1	0	0
1950.569	1	81	n/a	n/a	1	0	0
1951.8218	1	10	n/a	n/a	1	51	1
1953.0384	1	10	n/a	n/a	1	51	2
1954.1382	1	10	n/a	n/a	1	51	3
1955.1716	1	10	n/a	n/a	1	51	4
1956.3714	1	10	n/a	n/a	1	51	5
1957.6714	1	10	n/a	n/a	1	51	6
1958.7714	1	10	n/a	n/a	1	51	7
1959.8712	1	21	n/a	n/a	1	51	0
1960.9212	1	10	n/a	n/a	1	51	1
1962.1044	1	10	n/a	n/a	1	51	2
1963.271	1	10	n/a	n/a	1	51	3
1964.4376	1	21	n/a	n/a	1	51	0
1965.5042	1	10	n/a	n/a	1	51	1
1966.5708	1	21	n/a	n/a	1	51	0
1967.7042	1	10	n/a	n/a	1	51	1
1968.854	1	10	n/a	n/a	1	51	2
1969.954	1	10	n/a	n/a	1	51	3
1971.104	1	10	n/a	n/a	1	51	4
1972.3706	1	10	n/a	n/a	1	51	5
1973.637	1	21	n/a	n/a	1	51	0
1974.6648	1	81	n/a	n/a	1	0	0
1974.8648	1	81	n/a	n/a	1	0	0
1975.0648	1	81	n/a	n/a	1	0	0
1975.2648	1	81	n/a	n/a	1	0	0
1975.4648	1	81	n/a	n/a	1	0	0
1975.6648	1	81	n/a	n/a	1	0	0
1975.8648	1	81	n/a	n/a	1	0	0
1976.0648	1	81	n/a	n/a	1	0	0
1976.2648	1	81	n/a	n/a	1	0	0
1976.4648	1	81	n/a	n/a	1	0	0
1977.8702	1	10	n/a	n/a	1	51	1
1979.0868	1	10	n/a	n/a	1	51	2
1980.27	1	10	n/a	n/a	1	51	3
1981.3034	1	10	n/a	n/a	1	51	4
1982.62	1	10	n/a	n/a	1	51	5
1983.8866	1	10	n/a	n/a	1	51	6
1984.9698	1	10	n/a	n/a	1	51	7
1986.053	1	21	n/a	n/a	1	51	0
1987.3196	1	10	n/a	n/a	1	51	1
1988.4862	1	10	n/a	n/a	1	51	2
1989.5696	1	10	n/a	n/a	1	51	3
1990.6528	1	21	n/a	n/a	1	51	0
1991.9194	1	10	n/a	n/a	1	51	1
1993.186	1	21	n/a	n/a	1	51	0
1994.3358	1	10	n/a	n/a	1	51	1
1995.4858	1	21	n/a	n/a	1	51	0
1996.6358	1	10	n/a	n/a	1	51	1
1997.919	1	10	n/a	n/a	1	51	2
1999.2356	1	10	n/a	n/a	1	51	3
2000.5522	1	21	n/a	n/a	1	51	0
2001.4238	1	81	n/a	n/a	1	0	0
2001.6238	1	81	n/a	n/a	1	0	0
2001.8238	1	81	n/a	n/a	1	0	0
2002.0238	1	81	n/a	n/a	1	0	0
2002.2238	1	81	n/a	n/a	1	0	0
2002.4238	1	81	n/a	n/a	1	0	0
2002.6238	1	81	n/a	n/a	1	0	0
2002.8238	1	81	n/a	n/a	1	0	0
2003.0238	1	81	n/a	n/a	1	0	0
2003.2238	1	81	n/a	n/a	1	0	0
2004.502	1	10	n/a	n/a	1	51	1
2005.6186	1	10	n/a	n/a	1	51	2
2006.7852	1	10	n/a	n/a	1	51	3
2007.8684	1	10	n/a	n/a	1	51	4
2009.0184	1	10	n/a	n/a	1	51	5
2010.1682	1	21	n/a	n/a	1	51	0
2011.2516	1	10	n/a	n/a	1	51	1
2012.4182	1	10	n/a	n/a	1	51	2
2013.4514	1	10	n/a	n/a	1	51	3
2014.6014	1	10	n/a	n/a	1	51	4
2015.9346	1	10	n/a	n/a	1	51	5
2017.2346	1	10	n/a	n/a	1	51	6
2018.4012	1	10	n/a	n/a	1	51	7
2019.5678	1	21	n/a	n/a	1	51	0
2020.7844	1	10	n/a	n/a	1	51	1
2022.001	1	10	n/a	n/a	1	51	2
2023.2842	1	10	n/a	n/a	1	51	3
2024.5174	1	10	n/a	n/a	1	51	4
2025.7008	1	10	n/a	n/a	1	51	5
2109.6372	1	21	n/a	n/a	1	51	0
2110.6668	1	81	n/a	n/a	1	0	0
2110.8668	1	81	n/a	n/a	1	0	0
2111.0668	1	81	n/a	n/a	1	0	0
2111.2668	1	81	n/a	n/a	1	0	0
2111.4668	1	81	n/a	n/a	1	0	0
2111.6668	1	81	n/a	n/a	1	0	0
2111.8668	1	81	n/a	n/a	1	0	0
2112.0668	1	81	n/a	n/a	1	0	0
2112.2668	1	81	n/a	n/a	1	0	0
2112.4668	1	81	n/a	n/a	1	0	0
2113.7868	1	10	n/a	n/a	1	51	1
2115.0702	1	10	n/a	n/a	1	51	2
2116.1034	1	10	n/a	n/a	1	51	3
2117.1366	1	21	n/a	n/a	1	51	0
2118.27	1	10	n/a	n/a	1	51	1
2119.4698	1	10	n/a	n/a	1	51	2
2120.7198	1	10	n/a	n/a	1	51	3
2121.9698	1	21	n/a	n/a	1	51	0
2123.0196	1	10	n/a	n/a	1	51	1
2124.203	1	10	n/a	n/a	1	51	2
2125.3362	1	10	n/a	n/a	1	51	3
2126.4362	1	10	n/a	n/a	1	51	4
2127.686	1	10	n/a	n/a	1	51	5
2128.8194	1	10	n/a	n/a	1	51	6
2129.9692	1	10	n/a	n/a	1	51	7
2131.1192	1	21	n/a	n/a	1	51	0
2132.1858	1	10	n/a	n/a	1	51	1
2133.2524	1	21	n/a	n/a	1	51	0
2134.4024	1	10	n/a	n/a	1	51	1
2135.5522	1	10	n/a	n/a	1	51	2
2152.6464	1	81	n/a	n/a	1	0	0
2152.8464	1	81	n/a	n/a	1	0	0
2153.0464	1	81	n/a	n/a	1	0	0
2153.2464	1	81	n/a	n/a	1	0	0
2153.4464	1	81	n/a	n/a	1	0	0
2153.6464	1	81	n/a	n/a	1	0	0
2153.8464	1	81	n/a	n/a	1	0	0
2154.0464	1	81	n/a	n/a	1	0	0
2154.2464	1	81	n/a	n/a	1	0	0
2154.4464	1	81	n/a	n/a	1	0	0
2155.801	1	10	n/a	n/a	1	50	1
2157.0676	1	21	n/a	n/a	1	50	0
2158.2676	1	10	n/a	n/a	1	50	1
2159.4676	1	21	n/a	n/a	1	50	0
2160.5342	1	10	n/a	n/a	1	50	1
2161.6674	1	10	n/a	n/a	1	50	2
2162.9506	1	10	n/a	n/a	1	50	3
2164.234	1	21	n/a	n/a	1	50	0
2165.5172	1	10	n/a	n/a	1	50	1
2166.8004	1	21	n/a	n/a	1	50	0
2167.8838	1	10	n/a	n/a	1	50	1
2169.167	1	10	n/a	n/a	1	50	2
2170.3168	1	10	n/a	n/a	1	50	3
2171.4168	1	10	n/a	n/a	1	50	4
2172.4834	1	10	n/a	n/a	1	50	5
2173.55	1	21	n/a	n/a	1	50	0
2174.6834	1	10	n/a	n/a	1	50	1
2175.7832	1	10	n/a	n/a	1	50	2
2176.8332	1	10	n/a	n/a	1	50	3
2178.0164	1	10	n/a	n/a	1	50	4
2178.956	1	81	n/a	n/a	1	0	0
2179.156	1	81	n/a	n/a	1	0	0
2179.356	1	81	n/a	n/a	1	0	0
2179.556	1	81	n/a	n/a	1	0	0
2179.756	1	81	n/a	n/a	1	0	0
2179.956	1	81	n/a	n/a	1	0	0
2180.156	1	81	n/a	n/a	1	0	0
2180.356	1	81	n/a	n/a	1	0	0
2180.556	1	81	n/a	n/a	1	0	0
2180.756	1	81	n/a	n/a	1	0	0
2181.9162	1	10	n/a	n/a	1	50	1
2183.0828	1	10	n/a	n/a	1	50	2
2184.2828	1	10	n/a	n/a	1	50	3
2185.4826	1	21	n/a	n/a	1	50	0
2186.6326	1	10	n/a	n/a	1	50	1
2187.7158	1	10	n/a	n/a	1	50	2
2188.8324	1	10	n/a	n/a	1	50	3
2190.1324	1	10	n/a	n/a	1	50	4
2191.349	1	10	n/a	n/a	1	50	5
2192.5656	1	21	n/a	n/a	1	50	0
2193.8656	1	10	n/a	n/a	1	50	1
2194.9322	1	10	n/a	n/a	1	50	2
2196.232	1	10	n/a	n/a	1	50	3
2197.532	1	21	n/a	n/a	1	50	0
2198.5652	1	10	n/a	n/a	1	50	1
2199.6318	1	10	n/a	n/a	1	50	2
2200.6984	1	10	n/a	n/a	1	50	3
2201.765	1	21	n/a	n/a	1	50	0
2202.9984	1	10	n/a	n/a	1	50	1
2204.0816	1	10	n/a	n/a	1	50	2
2205.1	1	81	n/a	n/a	1	0	0
2205.3	1	81	n/a	n/a	1	0	0
2205.5	1	81	n/a	n/a	1	0	0
2205.7	1	81	n/a	n/a	1	0	0
2205.9	1	81	n/a	n/a	1	0	0
2206.1	1	81	n/a	n/a	1	0	0
2206.3	1	81	n/a	n/a	1	0	0
2206.5	1	81	n/a	n/a	1	0	0
2206.7	1	81	n/a	n/a	1	0	0
2206.9	1	81	n/a	n/a	1	0	0
2208.0314	1	10	n/a	n/a	1	50	1
2209.348	1	10	n/a	n/a	1	50	2
2210.5478	1	10	n/a	n/a	1	50	3
2211.7644	1	10	n/a	n/a	1	50	4
2212.9144	1	10	n/a	n/a	1	50	5
2214.0644	1	21	n/a	n/a	1	50	0
2215.1476	1	10	n/a	n/a	1	50	1
2216.2308	1	21	n/a	n/a	1	50	0
2217.3974	1	10	n/a	n/a	1	50	1
2218.5308	1	10	n/a	n/a	1	50	2
2219.7974	1	10	n/a	n/a	1	50	3
2221.064	1	21	n/a	n/a	1	50	0
2222.2306	1	10	n/a	n/a	1	50	1
2223.3638	1	10	n/a	n/a	1	50	2
2224.447	1	10	n/a	n/a	1	50	3
2225.5304	1	21	n/a	n/a	1	50	0
2226.8136	1	10	n/a	n/a	1	50	1
2227.8468	1	10	n/a	n/a	1	50	2
2229.0968	1	10	n/a	n/a	1	50	3
2230.3134	1	10	n/a	n/a	1	50	4
2231.3678	1	81	n/a	n/a	1	0	0
2231.5678	1	81	n/a	n/a	1	0	0
2231.7678	1	81	n/a	n/a	1	0	0
2231.9678	1	81	n/a	n/a	1	0	0
2232.1678	1	81	n/a	n/a	1	0	0
2232.3678	1	81	n/a	n/a	1	0	0
2232.5678	1	81	n/a	n/a	1	0	0
2232.7678	1	81	n/a	n/a	1	0	0
2232.9678	1	81	n/a	n/a	1	0	0
2233.1678	1	81	n/a	n/a	1	0	0
2234.3632	1	10	n/a	n/a	1	50	1
2235.513	1	10	n/a	n/a	1	50	2
2236.663	1	10	n/a	n/a	1	50	3
2237.813	1	21	n/a	n/a	1	50	0
2239.0462	1	10	n/a	n/a	1	50	1
2240.1462	1	10	n/a	n/a	1	50	2
2241.4294	1	10	n/a	n/a	1	50	3
2242.5626	1	10	n/a	n/a	1	50	4
2243.6126	1	10	n/a	n/a	1	50	5
2244.6626	1	21	n/a	n/a	1	50	0
2245.8458	1	10	n/a	n/a	1	50	1
2246.879	1	10	n/a	n/a	1	50	2
2248.0956	1	10	n/a	n/a	1	50	3
2249.229	1	10	n/a	n/a	1	50	4
2250.4788	1	10	n/a	n/a	1	50	5
2251.7288	1	21	n/a	n/a	1	50	0
2252.7954	1	10	n/a	n/a	1	50	1
2253.8954	1	10	n/a	n/a	1	50	2
2254.9952	1	10	n/a	n/a	1	50	3
2256.2452	1	10	n/a	n/a	1	50	4
2257.2396	1	81	n/a	n/a	1	0	0
2257.4396	1	81	n/a	n/a	1	0	0
2257.6396	1	81	n/a	n/a	1	0	0
2257.8396	1	81	n/a	n/a	1	0	0
2258.0396	1	81	n/a	n/a	1	0	0
2258.2396	1	81	n/a	n/a	1	0	0
2258.4396	1	81	n/a	n/a	1	0	0
2258.6396	1	81	n/a	n/a	1	0	0
2258.8396	1	81	n/a	n/a	1	0	0
2259.0396	1	81	n/a	n/a	1	0	0
2260.395	1	10	n/a	n/a	1	50	1
2261.4282	1	10	n/a	n/a	1	50	2
2262.7282	1	10	n/a	n/a	1	50	3
2264.028	1	21	n/a	n/a	1	50	0
2265.1114	1	10	n/a	n/a	1	50	1
2266.178	1	10	n/a	n/a	1	50	2
2267.4278	1	10	n/a	n/a	1	50	3
2268.7112	1	10	n/a	n/a	1	50	4
2269.7944	1	10	n/a	n/a	1	50	5
2271.0276	1	10	n/a	n/a	1	50	6
2272.111	1	10	n/a	n/a	1	50	7
2273.1942	1	21	n/a	n/a	1	50	0
2274.2442	1	10	n/a	n/a	1	50	1
2275.294	1	21	n/a	n/a	1	50	0
2276.494	1	10	n/a	n/a	1	50	1
2277.694	1	21	n/a	n/a	1	50	0
2278.8772	1	10	n/a	n/a	1	50	1
2280.0604	1	21	n/a	n/a	1	50	0
2281.127	1	10	n/a	n/a	1	50	1
2282.1936	1	21	n/a	n/a	1	50	0
2311.892	1	82	n/a	n/a	1	0	0
2311.973	1	82	n/a	n/a	1	0	0
2312.208	1	82	n/a	n/a	1	0	0
2312.239	1	82	n/a	n/a	1	0	0
2312.344	1	82	n/a	n/a	1	0	0
2312.892	1	82	n/a	n/a	1	0	0
2313.013	1	82	n/a	n/a	1	0	0
2313.426	1	82	n/a	n/a	1	0	0
2313.471	1	82	n/a	n/a	1	0	0
2313.543	1	82	n/a	n/a	1	0	0
2314.9084	1	10	n/a	n/a	1	52	1
2316.0084	1	10	n/a	n/a	1	52	2
2317.275	1	10	n/a	n/a	1	52	3
2318.5416	1	21	n/a	n/a	1	52	0
2319.6248	1	10	n/a	n/a	1	52	1
2320.908	1	10	n/a	n/a	1	52	2
2322.108	1	10	n/a	n/a	1	52	3
2323.1912	1	10	n/a	n/a	1	52	4
2324.4578	1	10	n/a	n/a	1	52	5
2325.6412	1	10	n/a	n/a	1	52	6
2326.8744	1	10	n/a	n/a	1	52	7
2328.1076	1	21	n/a	n/a	1	52	0
2329.191	1	10	n/a	n/a	1	52	1
2330.2242	1	10	n/a	n/a	1	52	2
2331.4908	1	10	n/a	n/a	1	52	3
2332.5574	1	10	n/a	n/a	1	52	4
2333.6574	1	10	n/a	n/a	1	52	5
2334.7572	1	21	n/a	n/a	1	52	0
2335.8906	1	10	n/a	n/a	1	52	1
2336.9572	1	10	n/a	n/a	1	52	2
2337.8076	1	82	n/a	n/a	1	0	0
2337.9526	1	82	n/a	n/a	1	0	0
2338.2406	1	82	n/a	n/a	1	0	0
2338.2676	1	82	n/a	n/a	1	0	0
2338.3846	1	82	n/a	n/a	1	0	0
2338.8076	1	82	n/a	n/a	1	0	0
2339.1066	1	82	n/a	n/a	1	0	0
2339.1966	1	82	n/a	n/a	1	0	0
2339.2526	1	82	n/a	n/a	1	0	0
2339.2746	1	82	n/a	n/a	1	0	0
2340.7736	1	10	n/a	n/a	1	52	1
2341.9402	1	10	n/a	n/a	1	52	2
2343.0068	1	10	n/a	n/a	1	52	3
2344.1234	1	10	n/a	n/a	1	52	4
2345.2234	1	10	n/a	n/a	1	52	5
2346.3232	1	21	n/a	n/a	1	52	0
2347.5232	1	10	n/a	n/a	1	52	1
2348.7898	1	10	n/a	n/a	1	52	2
2349.873	1	10	n/a	n/a	1	52	3
2351.0064	1	10	n/a	n/a	1	52	4
2352.2896	1	10	n/a	n/a	1	52	5
2353.3728	1	10	n/a	n/a	1	52	6
2354.6894	1	10	n/a	n/a	1	52	7
2356.006	1	21	n/a	n/a	1	52	0
2357.2392	1	10	n/a	n/a	1	52	1
2358.3058	1	10	n/a	n/a	1	52	2
2359.5724	1	10	n/a	n/a	1	52	3
2360.8558	1	10	n/a	n/a	1	52	4
2361.9556	1	10	n/a	n/a	1	52	5
2363.0556	1	10	n/a	n/a	1	52	6
2363.94	1	82	n/a	n/a	1	0	0
2364.295	1	82	n/a	n/a	1	0	0
2364.559	1	82	n/a	n/a	1	0	0
2364.719	1	82	n/a	n/a	1	0	0
2364.812	1	82	n/a	n/a	1	0	0
2364.94	1	82	n/a	n/a	1	0	0
2365.289	1	82	n/a	n/a	1	0	0
2365.464	1	82	n/a	n/a	1	0	0
2365.569	1	82	n/a	n/a	1	0	0
2365.641	1	82	n/a	n/a	1	0	0
2367.0054	1	10	n/a	n/a	1	52	1
2368.2552	1	10	n/a	n/a	1	52	2
2369.4552	1	10	n/a	n/a	1	52	3
2370.7718	1	10	n/a	n/a	1	52	4
2372.0384	1	10	n/a	n/a	1	52	5
2373.305	1	21	n/a	n/a	1	52	0
2374.3716	1	10	n/a	n/a	1	52	1
2375.4382	1	21	n/a	n/a	1	52	0
2376.5214	1	10	n/a	n/a	1	52	1
2377.788	1	10	n/a	n/a	1	52	2
2378.838	1	10	n/a	n/a	1	52	3
2379.888	1	21	n/a	n/a	1	52	0
2381.0878	1	10	n/a	n/a	1	52	1
2382.2878	1	21	n/a	n/a	1	52	0
2383.4044	1	10	n/a	n/a	1	52	1
2384.671	1	10	n/a	n/a	1	52	2
2385.771	1	10	n/a	n/a	1	52	3
2387.0042	1	10	n/a	n/a	1	52	4
2388.1874	1	10	n/a	n/a	1	52	5
2389.4374	1	10	n/a	n/a	1	52	6
2390.1638	1	82	n/a	n/a	1	0	0
2390.3138	1	82	n/a	n/a	1	0	0
2390.7278	1	82	n/a	n/a	1	0	0
2390.7528	1	82	n/a	n/a	1	0	0
2391.0538	1	82	n/a	n/a	1	0	0
2391.1638	1	82	n/a	n/a	1	0	0
2391.4168	1	82	n/a	n/a	1	0	0
2391.5188	1	82	n/a	n/a	1	0	0
2391.8478	1	82	n/a	n/a	1	0	0
2392.0148	1	82	n/a	n/a	1	0	0
2393.2372	1	10	n/a	n/a	1	52	1
2394.4038	1	10	n/a	n/a	1	52	2
2395.6536	1	10	n/a	n/a	1	52	3
2396.9036	1	21	n/a	n/a	1	52	0
2398.0368	1	10	n/a	n/a	1	52	1
2399.2202	1	10	n/a	n/a	1	52	2
2400.3534	1	10	n/a	n/a	1	52	3
2401.4366	1	10	n/a	n/a	1	52	4
2402.57	1	10	n/a	n/a	1	52	5
2403.7032	1	21	n/a	n/a	1	52	0
2404.9698	1	10	n/a	n/a	1	52	1
2406.2364	1	10	n/a	n/a	1	52	2
2407.3696	1	10	n/a	n/a	1	52	3
2408.503	1	21	n/a	n/a	1	52	0
2409.5696	1	10	n/a	n/a	1	52	1
2410.7362	1	10	n/a	n/a	1	52	2
2412.0194	1	10	n/a	n/a	1	52	3
2413.1694	1	10	n/a	n/a	1	52	4
2414.4192	1	10	n/a	n/a	1	52	5
2415.5192	1	10	n/a	n/a	1	52	6
2416.6216	1	82	n/a	n/a	1	0	0
2416.7526	1	82	n/a	n/a	1	0	0
2416.7836	1	82	n/a	n/a	1	0	0
2417.1986	1	82	n/a	n/a	1	0	0
2417.5386	1	82	n/a	n/a	1	0	0
2417.6216	1	82	n/a	n/a	1	0	0
2417.7576	1	82	n/a	n/a	1	0	0
2418.0786	1	82	n/a	n/a	1	0	0
2418.3266	1	82	n/a	n/a	1	0	0
2418.4976	1	82	n/a	n/a	1	0	0
2419.719	1	10	n/a	n/a	1	52	1
2420.9856	1	10	n/a	n/a	1	52	2
2422.1022	1	10	n/a	n/a	1	52	3
2423.2188	1	21	n/a	n/a	1	52	0
2424.5186	1	10	n/a	n/a	1	52	1
2425.8186	1	21	n/a	n/a	1	52	0
2427.0686	1	10	n/a	n/a	1	52	1
2428.3184	1	21	n/a	n/a	1	52	0
2429.5184	1	10	n/a	n/a	1	52	1
2430.785	1	10	n/a	n/a	1	52	2
2431.8182	1	10	n/a	n/a	1	52	3
2432.8516	1	21	n/a	n/a	1	52	0
2434.1514	1	10	n/a	n/a	1	52	1
2435.4514	1	21	n/a	n/a	1	52	0
2436.6846	1	10	n/a	n/a	1	52	1
2438.0012	1	10	n/a	n/a	1	52	2
2439.2844	1	10	n/a	n/a	1	52	3
2440.3844	1	10	n/a	n/a	1	52	4
2441.4176	1	10	n/a	n/a	1	52	5
2442.4842	1	10	n/a	n/a	1	52	6
