onset	duration	value	response	rt	good	TMS	seq
114.5224	1	81	n/a	n/a	1	0	0
114.7224	1	81	n/a	n/a	1	0	0
114.9224	1	81	n/a	n/a	1	0	0
115.1224	1	81	n/a	n/a	1	0	0
115.3224	1	81	n/a	n/a	1	0	0
115.5224	1	81	n/a	n/a	1	0	0
115.7224	1	81	n/a	n/a	1	0	0
115.9224	1	81	n/a	n/a	1	0	0
116.1224	1	81	n/a	n/a	1	0	0
116.3224	1	81	n/a	n/a	1	0	0
117.5994	1	10	467.8	467.8	1	51	1
118.6494	1	10	329.9	329.9	1	51	2
119.816	1	10	267.3	267.3	1	51	3
120.9826	1	21	-99	-99	1	51	0
122.0158	1	10	243.3	243.3	1	51	1
123.1824	1	10	244.7	244.7	1	51	2
124.4158	1	10	291.5	291.5	1	51	3
125.6824	1	10	336.8	336.8	1	51	4
126.9322	1	10	302.9	302.9	1	51	5
128.0988	1	10	272.3	272.3	1	51	6
129.3654	1	10	333.7	333.7	1	51	7
130.632	1	21	251	251	1	51	0
131.882	1	10	297	297	1	51	1
133.082	1	10	249.1	249.1	1	51	2
134.3484	1	10	278.5	278.5	1	51	3
135.4152	1	10	299.8	299.8	1	51	4
136.4984	1	10	288.5	288.5	1	51	5
137.5816	1	21	-99	-99	1	51	0
138.715	1	10	247.9	247.9	1	51	1
139.8482	1	21	-99	-99	1	51	0
140.9038	1	81	n/a	n/a	1	0	0
141.1038	1	81	n/a	n/a	1	0	0
141.3038	1	81	n/a	n/a	1	0	0
141.5038	1	81	n/a	n/a	1	0	0
141.7038	1	81	n/a	n/a	1	0	0
141.9038	1	81	n/a	n/a	1	0	0
142.1038	1	81	n/a	n/a	1	0	0
142.3038	1	81	n/a	n/a	1	0	0
142.5038	1	81	n/a	n/a	1	0	0
142.7038	1	81	n/a	n/a	1	0	0
144.048	1	10	418.8	418.8	1	51	1
145.2146	1	10	276.2	276.2	1	51	2
146.4478	1	10	242.9	242.9	1	51	3
147.631	1	10	227.7	227.7	1	51	4
148.731	1	10	247.7	247.7	1	51	5
149.831	1	21	-99	-99	1	51	0
151.0142	1	10	300.4	300.4	1	51	1
152.1974	1	21	269.1	269.1	1	51	0
153.264	1	10	274.5	274.5	1	51	1
154.4306	1	10	307.8	307.8	1	51	2
155.4806	1	10	297.9	297.9	1	51	3
156.7638	1	10	310.6	310.6	1	51	4
157.8638	1	10	282.6	282.6	1	51	5
158.9638	1	21	-99	-99	1	51	0
160.1136	1	10	288.7	288.7	1	51	1
161.2636	1	21	-99	-99	1	51	0
162.3136	1	10	312.9	312.9	1	51	1
163.4968	1	10	265.5	265.5	1	51	2
164.78	1	10	262.2	262.2	1	51	3
166.0634	1	10	243	243	1	51	4
167.0408	1	81	n/a	n/a	1	0	0
167.2408	1	81	n/a	n/a	1	0	0
167.4408	1	81	n/a	n/a	1	0	0
167.6408	1	81	n/a	n/a	1	0	0
167.8408	1	81	n/a	n/a	1	0	0
168.0408	1	81	n/a	n/a	1	0	0
168.2408	1	81	n/a	n/a	1	0	0
168.4408	1	81	n/a	n/a	1	0	0
168.6408	1	81	n/a	n/a	1	0	0
168.8408	1	81	n/a	n/a	1	0	0
170.0798	1	10	338.4	338.4	1	51	1
171.2296	1	21	-99	-99	1	51	0
172.313	1	10	297.2	297.2	1	51	1
173.3962	1	21	317.9	317.9	1	51	0
174.7128	1	10	249.3	249.3	1	51	1
175.896	1	10	282	282	1	51	2
176.996	1	10	254	254	1	51	3
178.096	1	21	-99	-99	1	51	0
179.4126	1	10	253.4	253.4	1	51	1
180.5124	1	10	257.5	257.5	1	51	2
181.8124	1	10	285.5	285.5	1	51	3
182.979	1	10	254.9	254.9	1	51	4
184.179	1	10	255	255	1	51	5
185.3456	1	10	240.3	240.3	1	51	6
186.3954	1	10	278.3	278.3	1	51	7
187.4454	1	21	-99	-99	1	51	0
188.512	1	10	289.8	289.8	1	51	1
189.662	1	10	227.8	227.8	1	51	2
190.8452	1	10	260.5	260.5	1	51	3
191.9952	1	10	246.5	246.5	1	51	4
192.9336	1	81	n/a	n/a	1	0	0
193.1336	1	81	n/a	n/a	1	0	0
193.3336	1	81	n/a	n/a	1	0	0
193.5336	1	81	n/a	n/a	1	0	0
193.7336	1	81	n/a	n/a	1	0	0
193.9336	1	81	n/a	n/a	1	0	0
194.1336	1	81	n/a	n/a	1	0	0
194.3336	1	81	n/a	n/a	1	0	0
194.5336	1	81	n/a	n/a	1	0	0
194.7336	1	81	n/a	n/a	1	0	0
196.0282	1	10	325.3	325.3	1	51	1
197.2282	1	21	-99	-99	1	51	0
198.4114	1	10	262.1	262.1	1	51	1
199.5614	1	10	296.2	296.2	1	51	2
200.778	1	10	231.5	231.5	1	51	3
201.9946	1	21	214.9	214.9	1	51	0
203.0612	1	10	268.3	268.3	1	51	1
204.2444	1	10	285	285	1	51	2
205.511	1	10	282.3	282.3	1	51	3
206.661	1	10	284.4	284.4	1	51	4
207.9276	1	10	265.8	265.8	1	51	5
208.9942	1	10	287.2	287.2	1	51	6
210.0274	1	10	277.8	277.8	1	51	7
211.0606	1	21	-99	-99	1	51	0
212.1106	1	10	242.6	242.6	1	51	1
213.1606	1	21	248.7	248.7	1	51	0
214.4604	1	10	244.7	244.7	1	51	1
215.5438	1	10	297.4	297.4	1	51	2
216.8604	1	10	292.8	292.8	1	51	3
218.177	1	21	-99	-99	1	51	0
218.9546	1	81	n/a	n/a	1	0	0
219.1546	1	81	n/a	n/a	1	0	0
219.3546	1	81	n/a	n/a	1	0	0
219.5546	1	81	n/a	n/a	1	0	0
219.7546	1	81	n/a	n/a	1	0	0
219.9546	1	81	n/a	n/a	1	0	0
220.1546	1	81	n/a	n/a	1	0	0
220.3546	1	81	n/a	n/a	1	0	0
220.5546	1	81	n/a	n/a	1	0	0
220.7546	1	81	n/a	n/a	1	0	0
221.9266	1	10	506.3	506.3	1	51	1
223.0432	1	10	317.7	317.7	1	51	2
224.1766	1	10	320.4	320.4	1	51	3
225.2932	1	10	291.7	291.7	1	51	4
226.543	1	10	321.8	321.8	1	51	5
227.7764	1	10	272.6	272.6	1	51	6
229.0262	1	10	366.5	366.5	1	51	7
230.2762	1	21	-99	-99	1	51	0
231.3262	1	10	274.7	274.7	1	51	1
232.376	1	21	-99	-99	1	51	0
233.5426	1	10	282	282	1	51	1
234.6092	1	10	255.4	255.4	1	51	2
235.6592	1	10	277.5	277.5	1	51	3
236.9592	1	10	257.6	257.6	1	51	4
238.1758	1	10	320.9	320.9	1	51	5
239.359	1	10	273.6	273.6	1	51	6
240.5422	1	10	290.3	290.3	1	51	7
241.7256	1	21	-99	-99	1	51	0
242.8754	1	10	277	277	1	51	1
244.092	1	10	228.4	228.4	1	51	2
256.0602	1	82	n/a	n/a	1	0	0
256.3402	1	82	n/a	n/a	1	0	0
256.4002	1	82	n/a	n/a	1	0	0
256.5632	1	82	n/a	n/a	1	0	0
256.9792	1	82	n/a	n/a	1	0	0
257.0602	1	82	n/a	n/a	1	0	0
257.1762	1	82	n/a	n/a	1	0	0
257.6062	1	82	n/a	n/a	1	0	0
257.8832	1	82	n/a	n/a	1	0	0
257.9172	1	82	n/a	n/a	1	0	0
259.0746	1	10	333.7	333.7	1	50	1
260.2744	1	10	269.7	269.7	1	50	2
261.491	1	10	237	237	1	50	3
262.6076	1	10	320.4	320.4	1	50	4
263.9242	1	10	283.8	283.8	1	50	5
265.2408	1	21	-99	-99	1	50	0
266.5074	1	10	292.6	292.6	1	50	1
267.574	1	10	297.9	297.9	1	50	2
268.824	1	10	280	280	1	50	3
270.0738	1	10	294.1	294.1	1	50	4
271.4072	1	10	256.7	256.7	1	50	5
272.7404	1	21	-99	-99	1	50	0
273.807	1	10	256.9	256.9	1	50	1
275.0902	1	10	253.5	253.5	1	50	2
276.2402	1	10	303.6	303.6	1	50	3
277.3568	1	10	259	259	1	50	4
278.59	1	10	257.7	257.7	1	50	5
279.64	1	10	263.8	263.8	1	50	6
280.7898	1	10	281.7	281.7	1	50	7
281.9398	1	21	-99	-99	1	50	0
282.9196	1	82	n/a	n/a	1	0	0
282.9866	1	82	n/a	n/a	1	0	0
283.3626	1	82	n/a	n/a	1	0	0
283.6186	1	82	n/a	n/a	1	0	0
283.7256	1	82	n/a	n/a	1	0	0
283.9196	1	82	n/a	n/a	1	0	0
283.9886	1	82	n/a	n/a	1	0	0
284.3366	1	82	n/a	n/a	1	0	0
284.3706	1	82	n/a	n/a	1	0	0
284.7596	1	82	n/a	n/a	1	0	0
286.0896	1	10	293.9	293.9	1	50	1
287.3728	1	21	-99	-99	1	50	0
288.5894	1	10	242.1	242.1	1	50	1
289.6728	1	10	262.7	262.7	1	50	2
290.806	1	10	217.5	217.5	1	50	3
291.9392	1	21	-99	-99	1	50	0
293.1724	1	10	234.9	234.9	1	50	1
294.289	1	10	238.2	238.2	1	50	2
295.3224	1	10	276.9	276.9	1	50	3
296.3556	1	21	-99	-99	1	50	0
297.6556	1	10	247.7	247.7	1	50	1
298.9388	1	10	244.4	244.4	1	50	2
300.022	1	10	249.1	249.1	1	50	3
301.1054	1	21	-99	-99	1	50	0
302.4052	1	10	281.9	281.9	1	50	1
303.5718	1	10	283.2	283.2	1	50	2
304.6052	1	10	273.9	273.9	1	50	3
305.6384	1	21	-99	-99	1	50	0
306.6884	1	10	398.7	398.7	1	50	1
307.7384	1	21	244.7	244.7	1	50	0
308.8228	1	82	n/a	n/a	1	0	0
309.1268	1	82	n/a	n/a	1	0	0
309.1968	1	82	n/a	n/a	1	0	0
309.4028	1	82	n/a	n/a	1	0	0
309.5698	1	82	n/a	n/a	1	0	0
309.8228	1	82	n/a	n/a	1	0	0
309.9378	1	82	n/a	n/a	1	0	0
309.9778	1	82	n/a	n/a	1	0	0
310.2988	1	82	n/a	n/a	1	0	0
310.3658	1	82	n/a	n/a	1	0	0
311.988	1	10	378.9	378.9	1	50	1
313.2546	1	21	-99	-99	1	50	0
314.5546	1	10	260.3	260.3	1	50	1
315.8546	1	21	-99	-99	1	50	0
317.0544	1	10	288.5	288.5	1	50	1
318.2544	1	21	-99	-99	1	50	0
319.521	1	10	317.8	317.8	1	50	1
320.7376	1	10	301.2	301.2	1	50	2
322.0208	1	10	298	298	1	50	3
323.304	1	21	-99	-99	1	50	0
324.4706	1	10	296	296	1	50	1
325.5872	1	10	283.4	283.4	1	50	2
326.6538	1	10	272.7	272.7	1	50	3
327.7204	1	21	-99	-99	1	50	0
328.8538	1	10	264.8	264.8	1	50	1
329.987	1	10	283.6	283.6	1	50	2
331.3036	1	10	310.9	310.9	1	50	3
332.3536	1	10	284.9	284.9	1	50	4
333.5034	1	10	271	271	1	50	5
334.6534	1	21	-99	-99	1	50	0
335.578	1	82	n/a	n/a	1	0	0
335.681	1	82	n/a	n/a	1	0	0
335.757	1	82	n/a	n/a	1	0	0
335.902	1	82	n/a	n/a	1	0	0
336.026	1	82	n/a	n/a	1	0	0
336.5782	1	82	n/a	n/a	1	0	0
336.9672	1	82	n/a	n/a	1	0	0
337.2812	1	82	n/a	n/a	1	0	0
337.3882	1	82	n/a	n/a	1	0	0
337.5332	1	82	n/a	n/a	1	0	0
338.6198	1	10	274.5	274.5	1	50	1
339.6698	1	10	296.6	296.6	1	50	2
340.9196	1	10	294.6	294.6	1	50	3
342.0862	1	10	280	280	1	50	4
343.1196	1	10	286.7	286.7	1	50	5
344.1528	1	21	-99	-99	1	50	0
345.4528	1	10	241.5	241.5	1	50	1
346.7026	1	10	255.5	255.5	1	50	2
347.786	1	10	244.2	244.2	1	50	3
348.8358	1	10	282.3	282.3	1	50	4
350.0692	1	10	264.9	264.9	1	50	5
351.3024	1	21	-99	-99	1	50	0
352.519	1	10	231	231	1	50	1
353.819	1	10	243.1	243.1	1	50	2
354.9356	1	10	246.4	246.4	1	50	3
356.1522	1	10	261.8	261.8	1	50	4
357.2854	1	10	264.5	264.5	1	50	5
358.5686	1	10	245.3	245.3	1	50	6
359.852	1	10	257.9	257.9	1	50	7
361.1352	1	21	302.7	302.7	1	50	0
362.0216	1	82	n/a	n/a	1	0	0
362.1566	1	82	n/a	n/a	1	0	0
362.3946	1	82	n/a	n/a	1	0	0
362.5026	1	82	n/a	n/a	1	0	0
362.5526	1	82	n/a	n/a	1	0	0
363.0216	1	82	n/a	n/a	1	0	0
363.1936	1	82	n/a	n/a	1	0	0
363.3416	1	82	n/a	n/a	1	0	0
363.6806	1	82	n/a	n/a	1	0	0
363.7576	1	82	n/a	n/a	1	0	0
365.0516	1	10	402.1	402.1	1	50	1
366.2016	1	10	260.2	260.2	1	50	2
367.4848	1	10	288.9	288.9	1	50	3
368.768	1	21	269.6	269.6	1	50	0
370.0846	1	10	265	265	1	50	1
371.4012	1	21	-99	-99	1	50	0
372.4512	1	10	346.5	346.5	1	50	1
373.6512	1	10	282.4	282.4	1	50	2
374.901	1	10	296.5	296.5	1	50	3
375.9676	1	10	317.9	317.9	1	50	4
377.0342	1	10	339.3	339.3	1	50	5
378.1008	1	21	-99	-99	1	50	0
379.2842	1	10	281.3	281.3	1	50	1
380.3508	1	10	270.7	270.7	1	50	2
381.4506	1	10	290.8	290.8	1	50	3
382.7672	1	10	302.1	302.1	1	50	4
383.9004	1	10	320.8	320.8	1	50	5
385.0338	1	21	-99	-99	1	50	0
386.1338	1	10	263.6	263.6	1	50	1
387.167	1	10	270.3	270.3	1	50	2
420.1154	1	82	n/a	n/a	1	0	0
420.1574	1	82	n/a	n/a	1	0	0
420.4434	1	82	n/a	n/a	1	0	0
420.6844	1	82	n/a	n/a	1	0	0
420.8584	1	82	n/a	n/a	1	0	0
421.1154	1	82	n/a	n/a	1	0	0
421.1784	1	82	n/a	n/a	1	0	0
421.5524	1	82	n/a	n/a	1	0	0
421.7154	1	82	n/a	n/a	1	0	0
421.7524	1	82	n/a	n/a	1	0	0
423.2648	1	10	411.6	411.6	1	52	1
424.4982	1	10	266.4	266.4	1	52	2
425.798	1	10	278.3	278.3	1	52	3
426.9646	1	10	247.7	247.7	1	52	4
428.098	1	10	250.5	250.5	1	52	5
429.3978	1	10	198.5	198.5	1	52	6
430.4978	1	10	234.5	234.5	1	52	7
431.5978	1	21	-99	-99	1	52	0
432.8976	1	10	266.6	266.6	1	52	1
434.0808	1	10	251.3	251.3	1	52	2
435.1308	1	10	257.3	257.3	1	52	3
436.2308	1	10	325.4	325.4	1	52	4
437.514	1	10	306.1	306.1	1	52	5
438.7972	1	21	286.8	286.8	1	52	0
439.9138	1	10	274.2	274.2	1	52	1
441.0304	1	21	261.6	261.6	1	52	0
442.197	1	10	263	263	1	52	1
443.3636	1	10	280.4	280.4	1	52	2
444.5802	1	10	263.7	263.7	1	52	3
445.7636	1	10	328.4	328.4	1	52	4
446.733	1	82	n/a	n/a	1	0	0
447.015	1	82	n/a	n/a	1	0	0
447.097	1	82	n/a	n/a	1	0	0
447.246	1	82	n/a	n/a	1	0	0
447.672	1	82	n/a	n/a	1	0	0
447.733	1	82	n/a	n/a	1	0	0
447.85	1	82	n/a	n/a	1	0	0
448.137	1	82	n/a	n/a	1	0	0
448.36	1	82	n/a	n/a	1	0	0
448.62	1	82	n/a	n/a	1	0	0
449.78	1	10	343.9	343.9	1	52	1
451.0298	1	10	501.9	501.9	1	52	2
452.1798	1	10	296	296	1	52	3
453.213	1	10	334.6	334.6	1	52	4
454.4296	1	10	302	302	1	52	5
455.463	1	10	324.8	324.8	1	52	6
456.5296	1	10	282.2	282.2	1	52	7
457.5962	1	21	287.5	287.5	1	52	0
458.6794	1	10	260.2	260.2	1	52	1
459.7128	1	10	266.9	266.9	1	52	2
460.8126	1	10	271	271	1	52	3
461.846	1	10	293.7	293.7	1	52	4
463.1126	1	10	339	339	1	52	5
464.3792	1	21	-99	-99	1	52	0
465.4458	1	10	229.8	229.8	1	52	1
466.5124	1	21	-99	-99	1	52	0
467.6956	1	10	251.8	251.8	1	52	1
468.8788	1	21	-99	-99	1	52	0
469.9788	1	10	256.6	256.6	1	52	1
471.0788	1	21	276.7	276.7	1	52	0
472.1342	1	82	n/a	n/a	1	0	0
472.2342	1	82	n/a	n/a	1	0	0
472.4102	1	82	n/a	n/a	1	0	0
472.6852	1	82	n/a	n/a	1	0	0
473.0752	1	82	n/a	n/a	1	0	0
473.1342	1	82	n/a	n/a	1	0	0
473.1922	1	82	n/a	n/a	1	0	0
473.2252	1	82	n/a	n/a	1	0	0
473.6282	1	82	n/a	n/a	1	0	0
473.7562	1	82	n/a	n/a	1	0	0
475.0618	1	10	453.5	453.5	1	52	1
476.1118	1	10	283.6	283.6	1	52	2
477.395	1	10	296.2	296.2	1	52	3
478.5782	1	10	264.9	264.9	1	52	4
479.6948	1	10	284.3	284.3	1	52	5
480.9114	1	10	299.6	299.6	1	52	6
482.228	1	10	247	247	1	52	7
483.5446	1	21	-99	-99	1	52	0
484.628	1	10	263.2	263.2	1	52	1
485.9444	1	10	418.5	418.5	1	52	2
487.211	1	10	287.9	287.9	1	52	3
488.2444	1	10	310.6	310.6	1	52	4
489.311	1	10	284	284	1	52	5
490.3442	1	10	290.6	290.6	1	52	6
491.5776	1	10	273.4	273.4	1	52	7
492.8108	1	21	-99	-99	1	52	0
493.944	1	10	274.8	274.8	1	52	1
495.0774	1	21	277.5	277.5	1	52	0
496.1772	1	10	265.5	265.5	1	52	1
497.2772	1	21	-99	-99	1	52	0
498.2138	1	82	n/a	n/a	1	0	0
498.2988	1	82	n/a	n/a	1	0	0
498.5298	1	82	n/a	n/a	1	0	0
498.5508	1	82	n/a	n/a	1	0	0
498.9418	1	82	n/a	n/a	1	0	0
499.214	1	82	n/a	n/a	1	0	0
499.281	1	82	n/a	n/a	1	0	0
499.636	1	82	n/a	n/a	1	0	0
499.768	1	82	n/a	n/a	1	0	0
500.007	1	82	n/a	n/a	1	0	0
501.2102	1	10	272.4	272.4	1	52	1
502.2768	1	10	261.8	261.8	1	52	2
503.5934	1	10	289.2	289.2	1	52	3
504.71	1	10	260.5	260.5	1	52	4
505.8934	1	10	261.2	261.2	1	52	5
507.0766	1	21	294	294	1	52	0
508.1598	1	10	234.7	234.7	1	52	1
509.3264	1	10	284	284	1	52	2
510.3598	1	10	322.7	322.7	1	52	3
511.4264	1	10	312.1	312.1	1	52	4
512.6596	1	10	246.9	246.9	1	52	5
513.8928	1	21	261.6	261.6	1	52	0
514.9262	1	10	284.2	284.2	1	52	1
516.026	1	10	272.3	272.3	1	52	2
517.1926	1	10	289.7	289.7	1	52	3
518.4426	1	10	367.8	367.8	1	52	4
519.7592	1	10	315.1	315.1	1	52	5
520.9258	1	10	252.5	252.5	1	52	6
521.959	1	10	291.2	291.2	1	52	7
522.9924	1	21	-99	-99	1	52	0
523.774	1	82	n/a	n/a	1	0	0
523.805	1	82	n/a	n/a	1	0	0
524.202	1	82	n/a	n/a	1	0	0
524.279	1	82	n/a	n/a	1	0	0
524.382	1	82	n/a	n/a	1	0	0
524.774	1	82	n/a	n/a	1	0	0
525.071	1	82	n/a	n/a	1	0	0
525.19	1	82	n/a	n/a	1	0	0
525.403	1	82	n/a	n/a	1	0	0
525.453	1	82	n/a	n/a	1	0	0
526.7088	1	10	293.4	293.4	1	52	1
527.992	1	10	258	258	1	52	2
529.2752	1	10	318.7	318.7	1	52	3
530.5586	1	21	-99	-99	1	52	0
531.6584	1	10	239.5	239.5	1	52	1
532.7584	1	10	307.5	307.5	1	52	2
533.9416	1	10	244.2	244.2	1	52	3
535.0582	1	10	263.6	263.6	1	52	4
536.3748	1	10	291.1	291.1	1	52	5
537.4082	1	10	313.7	313.7	1	52	6
538.5748	1	10	251.1	251.1	1	52	7
539.7414	1	21	-99	-99	1	52	0
540.8746	1	10	271.2	271.2	1	52	1
542.0912	1	10	238.5	238.5	1	52	2
543.2744	1	10	239.2	239.2	1	52	3
544.541	1	10	300.7	300.7	1	52	4
545.841	1	10	248.7	248.7	1	52	5
547.0242	1	10	281.4	281.4	1	52	6
548.2242	1	10	265.4	265.4	1	52	7
549.4242	1	21	329.5	329.5	1	52	0
670.7068	1	82	n/a	n/a	1	0	0
670.8708	1	82	n/a	n/a	1	0	0
671.2248	1	82	n/a	n/a	1	0	0
671.3588	1	82	n/a	n/a	1	0	0
671.3928	1	82	n/a	n/a	1	0	0
671.7068	1	82	n/a	n/a	1	0	0
671.9598	1	82	n/a	n/a	1	0	0
672.3828	1	82	n/a	n/a	1	0	0
672.4218	1	82	n/a	n/a	1	0	0
672.5698	1	82	n/a	n/a	1	0	0
673.8168	1	10	302	302	1	52	1
674.8668	1	10	260	260	1	52	2
676.0666	1	10	244.1	244.1	1	52	3
677.2666	1	21	-99	-99	1	52	0
678.4998	1	10	130.8	130.8	1	52	1
679.5498	1	10	232.8	232.8	1	52	2
680.6664	1	10	204.2	204.2	1	52	3
681.7496	1	10	257	257	1	52	4
682.783	1	10	295.6	295.6	1	52	5
683.8162	1	21	286.3	286.3	1	52	0
684.8496	1	10	229.1	229.1	1	52	1
685.8828	1	21	-99	-99	1	52	0
686.9994	1	10	239.1	239.1	1	52	1
688.2992	1	10	251.2	251.2	1	52	2
689.5158	1	10	250.6	250.6	1	52	3
690.5992	1	10	255.3	255.3	1	52	4
691.7824	1	10	271.9	271.9	1	52	5
693.0156	1	10	270.7	270.7	1	52	6
694.1656	1	10	288.7	288.7	1	52	7
695.3156	1	21	258.8	258.8	1	52	0
696.204	1	82	n/a	n/a	1	0	0
696.236	1	82	n/a	n/a	1	0	0
696.344	1	82	n/a	n/a	1	0	0
696.474	1	82	n/a	n/a	1	0	0
696.775	1	82	n/a	n/a	1	0	0
697.204	1	82	n/a	n/a	1	0	0
697.243	1	82	n/a	n/a	1	0	0
697.546	1	82	n/a	n/a	1	0	0
697.71	1	82	n/a	n/a	1	0	0
697.964	1	82	n/a	n/a	1	0	0
699.282	1	10	420.3	420.3	1	52	1
700.5152	1	10	243	243	1	52	2
701.7318	1	10	226.3	226.3	1	52	3
702.7984	1	10	263.7	263.7	1	52	4
704.0484	1	10	133.8	133.8	1	52	5
705.1816	1	10	280.5	280.5	1	52	6
706.4816	1	10	228.5	228.5	1	52	7
707.7814	1	21	-99	-99	1	52	0
708.8648	1	10	261.3	261.3	1	52	1
710.1814	1	10	288.7	288.7	1	52	2
711.3312	1	10	290.6	290.6	1	52	3
712.6146	1	10	255.4	255.4	1	52	4
713.7978	1	10	304	304	1	52	5
714.981	1	21	-99	-99	1	52	0
716.1476	1	10	258.2	258.2	1	52	1
717.3142	1	10	227.6	227.6	1	52	2
718.5808	1	10	209	209	1	52	3
719.6142	1	10	295.6	295.6	1	52	4
720.764	1	10	249.7	249.7	1	52	5
721.8806	1	10	237	237	1	52	6
722.6872	1	82	n/a	n/a	1	0	0
722.7632	1	82	n/a	n/a	1	0	0
722.9882	1	82	n/a	n/a	1	0	0
723.3202	1	82	n/a	n/a	1	0	0
723.4852	1	82	n/a	n/a	1	0	0
723.6872	1	82	n/a	n/a	1	0	0
723.7722	1	82	n/a	n/a	1	0	0
723.8082	1	82	n/a	n/a	1	0	0
724.0272	1	82	n/a	n/a	1	0	0
724.1862	1	82	n/a	n/a	1	0	0
725.697	1	10	388.5	388.5	1	52	1
726.8136	1	21	-99	-99	1	52	0
727.947	1	10	218.6	218.6	1	52	1
729.1968	1	10	248.6	248.6	1	52	2
730.4634	1	10	246	246	1	52	3
731.73	1	21	-99	-99	1	52	0
733.0466	1	10	222.8	222.8	1	52	1
734.23	1	10	255.6	255.6	1	52	2
735.5132	1	10	236.2	236.2	1	52	3
736.7964	1	21	-99	-99	1	52	0
737.9796	1	10	265.7	265.7	1	52	1
739.263	1	10	230.3	230.3	1	52	2
740.3296	1	10	235.7	235.7	1	52	3
741.5294	1	10	235.8	235.8	1	52	4
742.646	1	10	223.2	223.2	1	52	5
743.7626	1	21	-99	-99	1	52	0
744.9292	1	10	259.9	259.9	1	52	1
746.1626	1	10	258.6	258.6	1	52	2
747.3124	1	10	260.7	260.7	1	52	3
748.3624	1	10	266.6	266.6	1	52	4
749.332	1	82	n/a	n/a	1	0	0
749.466	1	82	n/a	n/a	1	0	0
749.827	1	82	n/a	n/a	1	0	0
750.041	1	82	n/a	n/a	1	0	0
750.127	1	82	n/a	n/a	1	0	0
750.332	1	82	n/a	n/a	1	0	0
750.51	1	82	n/a	n/a	1	0	0
750.812	1	82	n/a	n/a	1	0	0
751.085	1	82	n/a	n/a	1	0	0
751.231	1	82	n/a	n/a	1	0	0
752.2622	1	10	302.8	302.8	1	52	1
753.2954	1	21	-99	-99	1	52	0
754.3788	1	10	250.2	250.2	1	52	1
755.5954	1	10	249.6	249.6	1	52	2
756.8786	1	10	278.3	278.3	1	52	3
758.1618	1	21	-99	-99	1	52	0
759.2118	1	10	265.1	265.1	1	52	1
760.2784	1	21	254.5	254.5	1	52	0
761.395	1	10	241.9	241.9	1	52	1
762.4616	1	10	295.2	295.2	1	52	2
763.5116	1	10	333.2	333.2	1	52	3
764.5614	1	21	-99	-99	1	52	0
765.6614	1	10	-99	-99	1	52	1
766.7614	1	21	267.3	267.3	1	52	0
767.978	1	10	234.7	234.7	1	52	1
769.2778	1	10	246.8	246.8	1	52	2
770.4278	1	10	248.8	248.8	1	52	3
771.661	1	10	295.5	295.5	1	52	4
772.7944	1	10	234.2	234.2	1	52	5
773.9276	1	21	-99	-99	1	52	0
774.9964	1	82	n/a	n/a	1	0	0
775.0252	1	82	n/a	n/a	1	0	0
775.0912	1	82	n/a	n/a	1	0	0
775.4532	1	82	n/a	n/a	1	0	0
775.6882	1	82	n/a	n/a	1	0	0
775.9964	1	82	n/a	n/a	1	0	0
776.1714	1	82	n/a	n/a	1	0	0
776.5064	1	82	n/a	n/a	1	0	0
776.5804	1	82	n/a	n/a	1	0	0
776.6304	1	82	n/a	n/a	1	0	0
778.1774	1	10	515.1	515.1	1	52	1
779.3106	1	10	245.8	245.8	1	52	2
780.5106	1	10	229.9	229.9	1	52	3
781.6438	1	10	296.5	296.5	1	52	4
782.6938	1	10	238.6	238.6	1	52	5
783.7436	1	21	-99	-99	1	52	0
784.877	1	10	183.4	183.4	1	52	1
785.9768	1	10	267.3	267.3	1	52	2
787.2934	1	10	294.7	294.7	1	52	3
788.3434	1	10	284.8	284.8	1	52	4
789.4266	1	10	257.5	257.5	1	52	5
790.56	1	10	308.2	308.2	1	52	6
791.7598	1	10	340.2	340.2	1	52	7
792.9598	1	21	-99	-99	1	52	0
794.193	1	10	259	259	1	52	1
795.2264	1	10	281.7	281.7	1	52	2
796.2596	1	10	304.4	304.4	1	52	3
797.2928	1	21	-99	-99	1	52	0
798.5428	1	10	245.2	245.2	1	52	1
799.8594	1	10	288.5	288.5	1	52	2
812.7354	1	82	n/a	n/a	1	0	0
812.7634	1	82	n/a	n/a	1	0	0
813.1394	1	82	n/a	n/a	1	0	0
813.2224	1	82	n/a	n/a	1	0	0
813.3704	1	82	n/a	n/a	1	0	0
813.7354	1	82	n/a	n/a	1	0	0
813.8574	1	82	n/a	n/a	1	0	0
813.9474	1	82	n/a	n/a	1	0	0
814.2444	1	82	n/a	n/a	1	0	0
814.6634	1	82	n/a	n/a	1	0	0
815.9084	1	10	287.1	287.1	1	50	1
816.975	1	10	260.5	260.5	1	50	2
818.2084	1	10	259.2	259.2	1	50	3
819.2582	1	10	233.2	233.2	1	50	4
820.4416	1	10	266	266	1	50	5
821.5914	1	10	268	268	1	50	6
822.908	1	10	375.3	375.3	1	50	7
824.2246	1	21	-99	-99	1	50	0
825.3246	1	10	262.8	262.8	1	50	1
826.6078	1	10	291.5	291.5	1	50	2
827.8744	1	10	256.9	256.9	1	50	3
829.141	1	21	254.3	254.3	1	50	0
830.3076	1	10	207.7	207.7	1	50	1
831.6242	1	10	-99	-99	1	50	2
832.9074	1	10	263.7	263.7	1	50	3
833.9908	1	10	268.4	268.4	1	50	4
835.0906	1	10	288.5	288.5	1	50	5
836.1906	1	21	-99	-99	1	50	0
837.2906	1	10	264.5	264.5	1	50	1
838.5404	1	10	246.6	246.6	1	50	2
839.398	1	82	n/a	n/a	1	0	0
839.533	1	82	n/a	n/a	1	0	0
839.887	1	82	n/a	n/a	1	0	0
840.135	1	82	n/a	n/a	1	0	0
840.236	1	82	n/a	n/a	1	0	0
840.398	1	82	n/a	n/a	1	0	0
840.836	1	82	n/a	n/a	1	0	0
840.914	1	82	n/a	n/a	1	0	0
841.141	1	82	n/a	n/a	1	0	0
841.27	1	82	n/a	n/a	1	0	0
842.3236	1	10	335.4	335.4	1	50	1
843.6234	1	10	107.5	107.5	1	50	2
844.6568	1	10	258.2	258.2	1	50	3
845.7734	1	10	213.5	213.5	1	50	4
846.99	1	10	260.9	260.9	1	50	5
848.2066	1	21	276.3	276.3	1	50	0
849.2732	1	10	249.7	249.7	1	50	1
850.4064	1	10	412.3	412.3	1	50	2
851.473	1	10	289.7	289.7	1	50	3
852.5396	1	10	327.1	327.1	1	50	4
853.723	1	10	295.8	295.8	1	50	5
854.9562	1	10	262.6	262.6	1	50	6
856.206	1	10	276.5	276.5	1	50	7
857.456	1	21	-99	-99	1	50	0
858.506	1	10	248.7	248.7	1	50	1
859.7058	1	10	248.8	248.8	1	50	2
860.8892	1	10	249.4	249.4	1	50	3
862.1224	1	10	232.1	232.1	1	50	4
863.4056	1	10	260.9	260.9	1	50	5
864.689	1	21	289.6	289.6	1	50	0
865.6624	1	82	n/a	n/a	1	0	0
865.7434	1	82	n/a	n/a	1	0	0
866.0954	1	82	n/a	n/a	1	0	0
866.2944	1	82	n/a	n/a	1	0	0
866.5524	1	82	n/a	n/a	1	0	0
866.6624	1	82	n/a	n/a	1	0	0
867.0314	1	82	n/a	n/a	1	0	0
867.0704	1	82	n/a	n/a	1	0	0
867.1974	1	82	n/a	n/a	1	0	0
867.6224	1	82	n/a	n/a	1	0	0
868.6886	1	10	369.7	369.7	1	50	1
869.822	1	21	-99	-99	1	50	0
871.0552	1	10	243.1	243.1	1	50	1
872.3052	1	10	241.2	241.2	1	50	2
873.6218	1	10	236.6	236.6	1	50	3
874.7884	1	10	270	270	1	50	4
876.0216	1	10	268.6	268.6	1	50	5
877.2548	1	21	251.4	251.4	1	50	0
878.4882	1	10	218.1	218.1	1	50	1
879.5548	1	10	255.4	255.4	1	50	2
880.738	1	10	240.1	240.1	1	50	3
882.0546	1	10	299.5	299.5	1	50	4
883.2212	1	10	268.8	268.8	1	50	5
884.3878	1	21	254.2	254.2	1	50	0
885.5876	1	10	254.3	254.3	1	50	1
886.7876	1	10	286.4	286.4	1	50	2
888.0376	1	10	284.4	284.4	1	50	3
889.2874	1	21	-99	-99	1	50	0
890.4374	1	10	316.5	316.5	1	50	1
891.7206	1	10	265.2	265.2	1	50	2
892.7342	1	82	n/a	n/a	1	0	0
892.9122	1	82	n/a	n/a	1	0	0
893.2552	1	82	n/a	n/a	1	0	0
893.4892	1	82	n/a	n/a	1	0	0
893.5852	1	82	n/a	n/a	1	0	0
893.7342	1	82	n/a	n/a	1	0	0
893.8242	1	82	n/a	n/a	1	0	0
893.9352	1	82	n/a	n/a	1	0	0
894.0022	1	82	n/a	n/a	1	0	0
894.4222	1	82	n/a	n/a	1	0	0
895.7038	1	10	298	298	1	50	1
896.887	1	10	282.8	282.8	1	50	2
898.1036	1	10	314.1	314.1	1	50	3
899.1368	1	10	320.8	320.8	1	50	4
900.3368	1	10	288.9	288.9	1	50	5
901.5368	1	21	-99	-99	1	50	0
902.7366	1	10	240.9	240.9	1	50	1
903.9366	1	21	-99	-99	1	50	0
905.2532	1	10	220.4	220.4	1	50	1
906.5698	1	21	-99	-99	1	50	0
907.7698	1	10	279.8	279.8	1	50	1
908.9696	1	21	-99	-99	1	50	0
910.0196	1	10	333.9	333.9	1	50	1
911.0696	1	21	-99	-99	1	50	0
912.3862	1	10	495.2	495.2	1	50	1
913.5528	1	10	240.6	240.6	1	50	2
914.686	1	10	259.4	259.4	1	50	3
915.8192	1	21	-99	-99	1	50	0
916.9192	1	10	362.1	362.1	1	50	1
918.0692	1	10	252.1	252.1	1	50	2
918.9596	1	82	n/a	n/a	1	0	0
919.3496	1	82	n/a	n/a	1	0	0
919.6356	1	82	n/a	n/a	1	0	0
919.7286	1	82	n/a	n/a	1	0	0
919.8646	1	82	n/a	n/a	1	0	0
919.9596	1	82	n/a	n/a	1	0	0
920.1146	1	82	n/a	n/a	1	0	0
920.4256	1	82	n/a	n/a	1	0	0
920.5376	1	82	n/a	n/a	1	0	0
920.7726	1	82	n/a	n/a	1	0	0
922.0522	1	10	508.9	508.9	1	50	1
923.1022	1	10	307	307	1	50	2
924.3854	1	10	255.7	255.7	1	50	3
925.6686	1	21	268.5	268.5	1	50	0
926.752	1	10	257.1	257.1	1	50	1
927.7852	1	10	311.8	311.8	1	50	2
929.0852	1	10	259.9	259.9	1	50	3
930.235	1	10	469.9	469.9	1	50	4
931.285	1	10	235.9	235.9	1	50	5
932.335	1	21	258	258	1	50	0
933.3848	1	10	184.1	184.1	1	50	1
934.4348	1	21	-99	-99	1	50	0
935.568	1	10	288.7	288.7	1	50	1
936.7014	1	10	259.5	259.5	1	50	2
937.8346	1	10	230.2	230.2	1	50	3
939.0512	1	10	309.6	309.6	1	50	4
940.2012	1	10	247.6	247.6	1	50	5
941.401	1	10	295.7	295.7	1	50	6
942.5176	1	10	267	267	1	50	7
943.6342	1	21	-99	-99	1	50	0
973.0436	1	81	n/a	n/a	1	0	0
973.2436	1	81	n/a	n/a	1	0	0
973.4436	1	81	n/a	n/a	1	0	0
973.6436	1	81	n/a	n/a	1	0	0
973.8436	1	81	n/a	n/a	1	0	0
974.0436	1	81	n/a	n/a	1	0	0
974.2436	1	81	n/a	n/a	1	0	0
974.4436	1	81	n/a	n/a	1	0	0
974.6436	1	81	n/a	n/a	1	0	0
974.8436	1	81	n/a	n/a	1	0	0
975.9824	1	10	321.6	321.6	1	51	1
977.0324	1	10	247.6	247.6	1	51	2
978.1656	1	10	218.3	218.3	1	51	3
979.2988	1	21	237	237	1	51	0
980.6154	1	10	88.4	88.4	1	51	1
981.932	1	21	179.7	179.7	1	51	0
983.1152	1	10	244.5	244.5	1	51	1
984.2986	1	21	-99	-99	1	51	0
985.3318	1	10	267.9	267.9	1	51	1
986.615	1	10	232.6	232.6	1	51	2
987.6484	1	10	271.3	271.3	1	51	3
988.765	1	10	258.7	258.7	1	51	4
989.8648	1	10	262.8	262.8	1	51	5
991.0482	1	10	263.5	263.5	1	51	6
992.348	1	10	275.5	275.5	1	51	7
993.648	1	21	-99	-99	1	51	0
994.698	1	10	277.6	277.6	1	51	1
995.8646	1	10	230.9	230.9	1	51	2
997.0644	1	10	39	39	1	51	3
998.3144	1	10	261.1	261.1	1	51	4
999.2958	1	81	n/a	n/a	1	0	0
999.4958	1	81	n/a	n/a	1	0	0
999.6958	1	81	n/a	n/a	1	0	0
999.8958	1	81	n/a	n/a	1	0	0
1000.0958	1	81	n/a	n/a	1	0	0
1000.2958	1	81	n/a	n/a	1	0	0
1000.4958	1	81	n/a	n/a	1	0	0
1000.6958	1	81	n/a	n/a	1	0	0
1000.8958	1	81	n/a	n/a	1	0	0
1001.0958	1	81	n/a	n/a	1	0	0
1002.2308	1	10	296.5	296.5	1	51	1
1003.3474	1	10	283.9	283.9	1	51	2
1004.4474	1	10	287.9	287.9	1	51	3
1005.5474	1	21	-99	-99	1	51	0
1006.7972	1	10	130	130	1	51	1
1008.0472	1	21	112.1	112.1	1	51	0
1009.247	1	10	224.2	224.2	1	51	1
1010.547	1	10	348.1	348.1	1	51	2
1011.847	1	10	312.2	312.2	1	51	3
1013.1136	1	10	261.6	261.6	1	51	4
1014.2468	1	10	312.2	312.2	1	51	5
1015.4634	1	10	247.6	247.6	1	51	6
1016.78	1	10	227.1	227.1	1	51	7
1018.0966	1	21	254.5	254.5	1	51	0
1019.2464	1	10	208.4	208.4	1	51	1
1020.413	1	10	289.8	289.8	1	51	2
1021.463	1	10	295.9	295.9	1	51	3
1022.6962	1	10	310.6	310.6	1	51	4
1023.8128	1	10	250	250	1	51	5
1025.0794	1	10	295.3	295.3	1	51	6
1026.1168	1	81	n/a	n/a	1	0	0
1026.3168	1	81	n/a	n/a	1	0	0
1026.5168	1	81	n/a	n/a	1	0	0
1026.7168	1	81	n/a	n/a	1	0	0
1026.9168	1	81	n/a	n/a	1	0	0
1027.1168	1	81	n/a	n/a	1	0	0
1027.3168	1	81	n/a	n/a	1	0	0
1027.5168	1	81	n/a	n/a	1	0	0
1027.7168	1	81	n/a	n/a	1	0	0
1027.9168	1	81	n/a	n/a	1	0	0
1029.0792	1	10	327.5	327.5	1	51	1
1030.2626	1	10	312.2	312.2	1	51	2
1031.4792	1	10	215.6	215.6	1	51	3
1032.7958	1	10	290.9	290.9	1	51	4
1033.8456	1	10	265	265	1	51	5
1034.8956	1	21	271	271	1	51	0
1036.0122	1	10	242.4	242.4	1	51	1
1037.1288	1	21	213.8	213.8	1	51	0
1038.1954	1	10	251.1	251.1	1	51	1
1039.3286	1	10	333.9	333.9	1	51	2
1040.6452	1	10	281.3	281.3	1	51	3
1041.9618	1	21	260.7	260.7	1	51	0
1043.045	1	10	281.3	281.3	1	51	1
1044.3616	1	10	260.7	260.7	1	51	2
1045.6616	1	10	256.8	256.8	1	51	3
1046.9448	1	10	317.5	317.5	1	51	4
1047.9948	1	10	291.5	291.5	1	51	5
1049.078	1	10	280.2	280.2	1	51	6
1050.3446	1	10	293.6	293.6	1	51	7
1051.6112	1	21	-99	-99	1	51	0
1052.609	1	81	n/a	n/a	1	0	0
1052.809	1	81	n/a	n/a	1	0	0
1053.009	1	81	n/a	n/a	1	0	0
1053.209	1	81	n/a	n/a	1	0	0
1053.409	1	81	n/a	n/a	1	0	0
1053.609	1	81	n/a	n/a	1	0	0
1053.809	1	81	n/a	n/a	1	0	0
1054.009	1	81	n/a	n/a	1	0	0
1054.209	1	81	n/a	n/a	1	0	0
1054.409	1	81	n/a	n/a	1	0	0
1055.6276	1	10	434.5	434.5	1	51	1
1056.6942	1	10	295.8	295.8	1	51	2
1057.7608	1	10	221.2	221.2	1	51	3
1058.8276	1	21	-99	-99	1	51	0
1059.9774	1	10	228.6	228.6	1	51	1
1061.294	1	10	240.1	240.1	1	51	2
1062.394	1	10	244	244	1	51	3
1063.4938	1	21	-99	-99	1	51	0
1064.7772	1	10	244.8	244.8	1	51	1
1066.0104	1	10	211.5	211.5	1	51	2
1067.327	1	10	238.9	238.9	1	51	3
1068.627	1	10	378.9	378.9	1	51	4
1069.7602	1	10	237.7	237.7	1	51	5
1070.8934	1	21	256.4	256.4	1	51	0
1072.0768	1	10	177	177	1	51	1
1073.1766	1	10	293.1	293.1	1	51	2
1074.31	1	10	247.8	247.8	1	51	3
1075.5266	1	10	247.2	247.2	1	51	4
1076.7264	1	10	215.2	215.2	1	51	5
1077.9264	1	21	247.3	247.3	1	51	0
1078.8398	1	81	n/a	n/a	1	0	0
1079.0398	1	81	n/a	n/a	1	0	0
1079.2398	1	81	n/a	n/a	1	0	0
1079.4398	1	81	n/a	n/a	1	0	0
1079.6398	1	81	n/a	n/a	1	0	0
1079.8398	1	81	n/a	n/a	1	0	0
1080.0398	1	81	n/a	n/a	1	0	0
1080.2398	1	81	n/a	n/a	1	0	0
1080.4398	1	81	n/a	n/a	1	0	0
1080.6398	1	81	n/a	n/a	1	0	0
1081.9428	1	10	374.7	374.7	1	51	1
1082.9928	1	10	252.8	252.8	1	51	2
1084.1426	1	10	270.9	270.9	1	51	3
1085.4426	1	10	234.8	234.8	1	51	4
1086.5926	1	10	300.9	300.9	1	51	5
1087.7424	1	21	239	239	1	51	0
1088.9424	1	10	239	239	1	51	1
1090.0756	1	10	241.7	241.7	1	51	2
1091.3756	1	10	253.7	253.7	1	51	3
1092.5422	1	10	223.1	223.1	1	51	4
1093.6754	1	10	257.9	257.9	1	51	5
1094.8088	1	21	244.5	244.5	1	51	0
1095.942	1	10	199.2	199.2	1	51	1
1097.0752	1	21	-99	-99	1	51	0
1098.2752	1	10	10	10	1	51	1
1099.3418	1	10	143.3	143.3	1	51	2
1100.6418	1	10	203.4	203.4	1	51	3
1101.925	1	10	248.2	248.2	1	51	4
1103.0416	1	10	251.6	251.6	1	51	5
1104.1416	1	10	239.5	239.5	1	51	6
1253.1198	1	82	n/a	n/a	1	0	0
1253.2918	1	82	n/a	n/a	1	0	0
1253.4358	1	82	n/a	n/a	1	0	0
1253.4618	1	82	n/a	n/a	1	0	0
1253.8898	1	82	n/a	n/a	1	0	0
1254.1198	1	82	n/a	n/a	1	0	0
1254.1398	1	82	n/a	n/a	1	0	0
1254.5588	1	82	n/a	n/a	1	0	0
1254.9118	1	82	n/a	n/a	1	0	0
1254.9608	1	82	n/a	n/a	1	0	0
1256.2992	1	10	366.4	366.4	1	52	1
1257.4324	1	10	241.1	241.1	1	52	2
1258.699	1	10	238.4	238.4	1	52	3
1259.9324	1	10	253.2	253.2	1	52	4
1261.049	1	10	240.6	240.6	1	52	5
1262.2822	1	10	143.3	143.3	1	52	6
1263.3488	1	10	244.6	244.6	1	52	7
1264.4154	1	21	250	250	1	52	0
1265.4654	1	10	240.1	240.1	1	52	1
1266.5152	1	10	262.1	262.1	1	52	2
1267.5652	1	10	268.1	268.1	1	52	3
1268.6152	1	21	242.1	242.1	1	52	0
1269.865	1	10	240.2	240.2	1	52	1
1271.115	1	21	270.3	270.3	1	52	0
1272.415	1	10	234.3	234.3	1	52	1
1273.6648	1	10	328.3	328.3	1	52	2
1274.9314	1	10	245.7	245.7	1	52	3
1276.198	1	21	275.2	275.2	1	52	0
1277.348	1	10	261.1	261.1	1	52	1
1278.498	1	21	-99	-99	1	52	0
1279.5286	1	82	n/a	n/a	1	0	0
1279.8096	1	82	n/a	n/a	1	0	0
1280.2346	1	82	n/a	n/a	1	0	0
1280.2746	1	82	n/a	n/a	1	0	0
1280.4276	1	82	n/a	n/a	1	0	0
1280.5286	1	82	n/a	n/a	1	0	0
1280.7006	1	82	n/a	n/a	1	0	0
1281.1306	1	82	n/a	n/a	1	0	0
1281.4656	1	82	n/a	n/a	1	0	0
1281.4926	1	82	n/a	n/a	1	0	0
1282.6976	1	10	287.3	287.3	1	52	1
1283.9142	1	10	254.7	254.7	1	52	2
1284.9476	1	10	277.5	277.5	1	52	3
1285.9808	1	10	252.1	252.1	1	52	4
1287.164	1	10	252.8	252.8	1	52	5
1288.3474	1	21	-99	-99	1	52	0
1289.6306	1	10	218.3	218.3	1	52	1
1290.9138	1	21	-99	-99	1	52	0
1292.2304	1	10	130.3	130.3	1	52	1
1293.547	1	21	269.7	269.7	1	52	0
1294.7302	1	10	254.5	254.5	1	52	1
1295.8636	1	10	337.1	337.1	1	52	2
1296.9136	1	10	263.2	263.2	1	52	3
1297.9802	1	10	268.6	268.6	1	52	4
1299.03	1	10	322.6	322.6	1	52	5
1300.3466	1	10	285.9	285.9	1	52	6
1301.6632	1	10	297.3	297.3	1	52	7
1302.9798	1	21	-99	-99	1	52	0
1304.0798	1	10	312.8	312.8	1	52	1
1305.1796	1	21	252.8	252.8	1	52	0
1306.0012	1	82	n/a	n/a	1	0	0
1306.0422	1	82	n/a	n/a	1	0	0
1306.3942	1	82	n/a	n/a	1	0	0
1306.4942	1	82	n/a	n/a	1	0	0
1306.8222	1	82	n/a	n/a	1	0	0
1307.0012	1	82	n/a	n/a	1	0	0
1307.1032	1	82	n/a	n/a	1	0	0
1307.4852	1	82	n/a	n/a	1	0	0
1307.6112	1	82	n/a	n/a	1	0	0
1307.6322	1	82	n/a	n/a	1	0	0
1308.9462	1	10	278.3	278.3	1	52	1
1309.996	1	21	-99	-99	1	52	0
1311.096	1	10	272.4	272.4	1	52	1
1312.196	1	21	-99	-99	1	52	0
1313.3958	1	10	244.5	244.5	1	52	1
1314.5124	1	10	311.8	311.8	1	52	2
1315.5958	1	10	300.5	300.5	1	52	3
1316.8956	1	10	264.6	264.6	1	52	4
1318.079	1	10	265.2	265.2	1	52	5
1319.2622	1	10	234	234	1	52	6
1320.4788	1	10	281.4	281.4	1	52	7
1321.6954	1	21	-99	-99	1	52	0
1322.8954	1	10	248.8	248.8	1	52	1
1324.0952	1	21	-99	-99	1	52	0
1325.3784	1	10	261.5	261.5	1	52	1
1326.4118	1	10	316.3	316.3	1	52	2
1327.445	1	10	275	275	1	52	3
1328.4784	1	21	-99	-99	1	52	0
1329.695	1	10	281	281	1	52	1
1330.7282	1	10	255.8	255.8	1	52	2
1331.7828	1	82	n/a	n/a	1	0	0
1331.8528	1	82	n/a	n/a	1	0	0
1331.9008	1	82	n/a	n/a	1	0	0
1332.3328	1	82	n/a	n/a	1	0	0
1332.4328	1	82	n/a	n/a	1	0	0
1332.7828	1	82	n/a	n/a	1	0	0
1333.0548	1	82	n/a	n/a	1	0	0
1333.2188	1	82	n/a	n/a	1	0	0
1333.3558	1	82	n/a	n/a	1	0	0
1333.7198	1	82	n/a	n/a	1	0	0
1334.928	1	10	375.9	375.9	1	52	1
1336.1778	1	10	294	294	1	52	2
1337.2278	1	10	268	268	1	52	3
1338.4778	1	10	234	234	1	52	4
1339.561	1	10	270.7	270.7	1	52	5
1340.6442	1	21	-99	-99	1	52	0
1341.6776	1	10	298.2	298.2	1	52	1
1342.9108	1	10	280.8	280.8	1	52	2
1344.0774	1	10	250.2	250.2	1	52	3
1345.294	1	10	233.6	233.6	1	52	4
1346.5606	1	10	295	295	1	52	5
1347.6438	1	10	251.7	251.7	1	52	6
1348.9604	1	10	247.1	247.1	1	52	7
1350.277	1	21	-99	-99	1	52	0
1351.5602	1	10	223.1	223.1	1	52	1
1352.7268	1	10	256.5	256.5	1	52	2
1353.8602	1	10	227.3	227.3	1	52	3
1354.9434	1	10	264	264	1	52	4
1356.2266	1	10	292.6	292.6	1	52	5
1357.4766	1	10	274.7	274.7	1	52	6
1358.4352	1	82	n/a	n/a	1	0	0
1358.5092	1	82	n/a	n/a	1	0	0
1358.8502	1	82	n/a	n/a	1	0	0
1358.9002	1	82	n/a	n/a	1	0	0
1359.1542	1	82	n/a	n/a	1	0	0
1359.4352	1	82	n/a	n/a	1	0	0
1359.6982	1	82	n/a	n/a	1	0	0
1359.7702	1	82	n/a	n/a	1	0	0
1360.2022	1	82	n/a	n/a	1	0	0
1360.3582	1	82	n/a	n/a	1	0	0
1361.643	1	10	268.2	268.2	1	52	1
1362.9596	1	21	215.6	215.6	1	52	0
1364.1262	1	10	233	233	1	52	1
1365.3928	1	10	262.4	262.4	1	52	2
1366.4928	1	10	250.3	250.3	1	52	3
1367.776	1	10	247.1	247.1	1	52	4
1369.0926	1	10	274.5	274.5	1	52	5
1370.2426	1	10	228.5	228.5	1	52	6
1371.4424	1	10	292.5	292.5	1	52	7
1372.6424	1	21	-99	-99	1	52	0
1373.909	1	10	194	194	1	52	1
1375.0756	1	10	291.3	291.3	1	52	2
1376.1756	1	10	295.4	295.4	1	52	3
1377.3588	1	10	280.1	280.1	1	52	4
1378.4254	1	10	253.5	253.5	1	52	5
1379.492	1	21	274.8	274.8	1	52	0
1380.5586	1	10	232.2	232.2	1	52	1
1381.6752	1	10	251.6	251.6	1	52	2
1382.8252	1	10	221.7	221.7	1	52	3
1383.975	1	21	-99	-99	1	52	0
1394.7538	1	81	n/a	n/a	1	0	0
1394.9538	1	81	n/a	n/a	1	0	0
1395.1538	1	81	n/a	n/a	1	0	0
1395.3538	1	81	n/a	n/a	1	0	0
1395.5538	1	81	n/a	n/a	1	0	0
1395.7538	1	81	n/a	n/a	1	0	0
1395.9538	1	81	n/a	n/a	1	0	0
1396.1538	1	81	n/a	n/a	1	0	0
1396.3538	1	81	n/a	n/a	1	0	0
1396.5538	1	81	n/a	n/a	1	0	0
1397.7242	1	10	282.2	282.2	1	50	1
1398.9742	1	10	296.2	296.2	1	50	2
1400.3074	1	10	338.9	338.9	1	50	3
1401.5074	1	10	259	259	1	50	4
1402.674	1	10	388.4	388.4	1	50	5
1403.8406	1	10	277.7	277.7	1	50	6
1405.0072	1	10	263.1	263.1	1	50	7
1406.1738	1	21	232.5	232.5	1	50	0
1407.3736	1	10	232.6	232.6	1	50	1
1408.507	1	10	267.2	267.2	1	50	2
1409.6902	1	10	267.9	267.9	1	50	3
1410.8734	1	10	268.7	268.7	1	50	4
1412.1568	1	10	249.4	249.4	1	50	5
1413.44	1	21	-99	-99	1	50	0
1414.74	1	10	242.1	242.1	1	50	1
1416.0398	1	21	286.2	286.2	1	50	0
1417.323	1	10	266.8	266.8	1	50	1
1418.3896	1	10	272.2	272.2	1	50	2
1419.6562	1	10	317.6	317.6	1	50	3
1420.7728	1	10	273	273	1	50	4
1421.8084	1	81	n/a	n/a	1	0	0
1422.0084	1	81	n/a	n/a	1	0	0
1422.2084	1	81	n/a	n/a	1	0	0
1422.4084	1	81	n/a	n/a	1	0	0
1422.6084	1	81	n/a	n/a	1	0	0
1422.8084	1	81	n/a	n/a	1	0	0
1423.0084	1	81	n/a	n/a	1	0	0
1423.2084	1	81	n/a	n/a	1	0	0
1423.4084	1	81	n/a	n/a	1	0	0
1423.6084	1	81	n/a	n/a	1	0	0
1424.9726	1	10	281.2	281.2	1	50	1
1426.2392	1	21	-99	-99	1	50	0
1427.4224	1	10	215.2	215.2	1	50	1
1428.4558	1	10	285.9	285.9	1	50	2
1429.5724	1	10	257.3	257.3	1	50	3
1430.6724	1	10	229.3	229.3	1	50	4
1431.739	1	10	266.7	266.7	1	50	5
1432.8056	1	21	240.1	240.1	1	50	0
1434.0722	1	10	77.5	77.5	1	50	1
1435.172	1	10	241.6	241.6	1	50	2
1436.222	1	10	247.5	247.5	1	50	3
1437.272	1	21	-99	-99	1	50	0
1438.4552	1	10	174.3	174.3	1	50	1
1439.5218	1	10	275.7	275.7	1	50	2
1440.6718	1	10	229.7	229.7	1	50	3
1441.705	1	10	220.4	220.4	1	50	4
1442.755	1	10	306.5	306.5	1	50	5
1443.8048	1	21	216.5	216.5	1	50	0
1444.9214	1	10	251.9	251.9	1	50	1
1446.238	1	10	279.2	279.2	1	50	2
1447.1184	1	81	n/a	n/a	1	0	0
1447.3184	1	81	n/a	n/a	1	0	0
1447.5184	1	81	n/a	n/a	1	0	0
1447.7184	1	81	n/a	n/a	1	0	0
1447.9184	1	81	n/a	n/a	1	0	0
1448.1184	1	81	n/a	n/a	1	0	0
1448.3184	1	81	n/a	n/a	1	0	0
1448.5184	1	81	n/a	n/a	1	0	0
1448.7184	1	81	n/a	n/a	1	0	0
1448.9184	1	81	n/a	n/a	1	0	0
1450.0378	1	10	239.3	239.3	1	50	1
1451.0712	1	21	262.1	262.1	1	50	0
1452.2878	1	10	53.5	53.5	1	50	1
1453.521	1	10	404.2	404.2	1	50	2
1454.6876	1	10	261.5	261.5	1	50	3
1455.8542	1	21	262.9	262.9	1	50	0
1457.054	1	10	199	199	1	50	1
1458.1706	1	10	266.4	266.4	1	50	2
1459.3372	1	10	363.7	363.7	1	50	3
1460.5706	1	10	282.4	282.4	1	50	4
1461.6538	1	10	255.2	255.2	1	50	5
1462.7704	1	10	274.6	274.6	1	50	6
1463.887	1	10	341.8	341.8	1	50	7
1465.0036	1	21	-99	-99	1	50	0
1466.2536	1	10	247.3	247.3	1	50	1
1467.2868	1	10	270	270	1	50	2
1468.5034	1	10	221.3	221.3	1	50	3
1469.72	1	21	300.8	300.8	1	50	0
1470.8866	1	10	222.2	222.2	1	50	1
1472.0532	1	10	271.5	271.5	1	50	2
1473.0216	1	81	n/a	n/a	1	0	0
1473.2216	1	81	n/a	n/a	1	0	0
1473.4216	1	81	n/a	n/a	1	0	0
1473.6216	1	81	n/a	n/a	1	0	0
1473.8216	1	81	n/a	n/a	1	0	0
1474.0216	1	81	n/a	n/a	1	0	0
1474.2216	1	81	n/a	n/a	1	0	0
1474.4216	1	81	n/a	n/a	1	0	0
1474.6216	1	81	n/a	n/a	1	0	0
1474.8216	1	81	n/a	n/a	1	0	0
1476.153	1	10	283.7	283.7	1	50	1
1477.3862	1	21	-99	-99	1	50	0
1478.6194	1	10	233.1	233.1	1	50	1
1479.9028	1	10	-99	-99	1	50	2
1481.2194	1	10	273.2	273.2	1	50	3
1482.5026	1	10	253.8	253.8	1	50	4
1483.5526	1	10	291.9	291.9	1	50	5
1484.6024	1	21	234	234	1	50	0
1485.869	1	10	247.4	247.4	1	50	1
1487.0356	1	10	264.8	264.8	1	50	2
1488.169	1	10	299.4	299.4	1	50	3
1489.3022	1	21	-99	-99	1	50	0
1490.4688	1	10	287.5	287.5	1	50	1
1491.7354	1	10	220.8	220.8	1	50	2
1492.8186	1	10	225.6	225.6	1	50	3
1493.902	1	21	262.3	262.3	1	50	0
1495.0352	1	10	217	217	1	50	1
1496.1684	1	21	-99	-99	1	50	0
1497.4018	1	10	250.4	250.4	1	50	1
1498.685	1	10	263.1	263.1	1	50	2
1499.5614	1	81	n/a	n/a	1	0	0
1499.7614	1	81	n/a	n/a	1	0	0
1499.9614	1	81	n/a	n/a	1	0	0
1500.1614	1	81	n/a	n/a	1	0	0
1500.3614	1	81	n/a	n/a	1	0	0
1500.5614	1	81	n/a	n/a	1	0	0
1500.7614	1	81	n/a	n/a	1	0	0
1500.9614	1	81	n/a	n/a	1	0	0
1501.1614	1	81	n/a	n/a	1	0	0
1501.3614	1	81	n/a	n/a	1	0	0
1502.6348	1	10	329.3	329.3	1	50	1
1503.7346	1	10	333.3	333.3	1	50	2
1504.9512	1	10	316.7	316.7	1	50	3
1506.2346	1	10	281.4	281.4	1	50	4
1507.3012	1	10	302.8	302.8	1	50	5
1508.3344	1	10	277.5	277.5	1	50	6
1509.651	1	10	288.9	288.9	1	50	7
1510.9676	1	21	268.2	268.2	1	50	0
1512.2342	1	10	249.6	249.6	1	50	1
1513.534	1	10	261.7	261.7	1	50	2
1514.584	1	10	315.8	315.8	1	50	3
1515.9006	1	10	279.1	279.1	1	50	4
1517.1672	1	10	292.5	292.5	1	50	5
1518.4338	1	21	-99	-99	1	50	0
1519.5004	1	10	295.3	295.3	1	50	1
1520.817	1	10	322.6	322.6	1	50	2
1522.067	1	10	256.7	256.7	1	50	3
1523.2836	1	10	240.1	240.1	1	50	4
1524.3668	1	10	308.7	308.7	1	50	5
1525.45	1	21	-99	-99	1	50	0
1545.5832	1	81	n/a	n/a	1	0	0
1545.7832	1	81	n/a	n/a	1	0	0
1545.9832	1	81	n/a	n/a	1	0	0
1546.1832	1	81	n/a	n/a	1	0	0
1546.3832	1	81	n/a	n/a	1	0	0
1546.5832	1	81	n/a	n/a	1	0	0
1546.7832	1	81	n/a	n/a	1	0	0
1546.9832	1	81	n/a	n/a	1	0	0
1547.1832	1	81	n/a	n/a	1	0	0
1547.3832	1	81	n/a	n/a	1	0	0
1548.732	1	10	326.9	326.9	1	51	1
1549.982	1	21	-99	-99	1	51	0
1551.1486	1	10	214.4	214.4	1	51	1
1552.4318	1	10	291.1	291.1	1	51	2
1553.715	1	10	255.8	255.8	1	51	3
1554.9984	1	21	236.5	236.5	1	51	0
1556.115	1	10	255.9	255.9	1	51	1
1557.2316	1	21	-99	-99	1	51	0
1558.2814	1	10	329.3	329.3	1	51	1
1559.3314	1	10	383.3	383.3	1	51	2
1560.4314	1	10	259.4	259.4	1	51	3
1561.5312	1	21	-99	-99	1	51	0
1562.6146	1	10	284.1	284.1	1	51	1
1563.9312	1	10	247.5	247.5	1	51	2
1564.9978	1	10	284.9	284.9	1	51	3
1566.0644	1	21	274.3	274.3	1	51	0
1567.3142	1	10	48.3	48.3	1	51	1
1568.3976	1	10	277	277	1	51	2
1569.5808	1	10	261.7	261.7	1	51	3
1570.714	1	10	232.5	232.5	1	51	4
1571.5794	1	81	n/a	n/a	1	0	0
1571.7794	1	81	n/a	n/a	1	0	0
1571.9794	1	81	n/a	n/a	1	0	0
1572.1794	1	81	n/a	n/a	1	0	0
1572.3794	1	81	n/a	n/a	1	0	0
1572.5796	1	81	n/a	n/a	1	0	0
1572.7796	1	81	n/a	n/a	1	0	0
1572.9796	1	81	n/a	n/a	1	0	0
1573.1796	1	81	n/a	n/a	1	0	0
1573.3796	1	81	n/a	n/a	1	0	0
1574.5806	1	10	253.9	253.9	1	51	1
1575.6804	1	21	-99	-99	1	51	0
1576.747	1	10	247.3	247.3	1	51	1
1577.847	1	10	315.3	315.3	1	51	2
1579.147	1	10	231.4	231.4	1	51	3
1580.4136	1	10	276.8	276.8	1	51	4
1581.4468	1	10	283.4	283.4	1	51	5
1582.48	1	21	-99	-99	1	51	0
1583.7466	1	10	239.6	239.6	1	51	1
1585.0132	1	21	285	285	1	51	0
1586.2798	1	10	234.3	234.3	1	51	1
1587.4464	1	10	315.7	315.7	1	51	2
1588.663	1	10	267.1	267.1	1	51	3
1589.8796	1	21	-99	-99	1	51	0
1590.9296	1	10	272.5	272.5	1	51	1
1592.1628	1	10	287.2	287.2	1	51	2
1593.246	1	10	291.9	291.9	1	51	3
1594.3294	1	21	264.7	264.7	1	51	0
1595.6292	1	10	244.6	244.6	1	51	1
1596.9292	1	21	-99	-99	1	51	0
1597.7338	1	81	n/a	n/a	1	0	0
1597.9338	1	81	n/a	n/a	1	0	0
1598.1338	1	81	n/a	n/a	1	0	0
1598.3338	1	81	n/a	n/a	1	0	0
1598.5338	1	81	n/a	n/a	1	0	0
1598.7338	1	81	n/a	n/a	1	0	0
1598.9338	1	81	n/a	n/a	1	0	0
1599.1338	1	81	n/a	n/a	1	0	0
1599.3338	1	81	n/a	n/a	1	0	0
1599.5338	1	81	n/a	n/a	1	0	0
1600.7624	1	10	599.5	599.5	1	51	1
1601.8956	1	21	-99	-99	1	51	0
1602.9788	1	10	334.9	334.9	1	51	1
1604.1288	1	10	305	305	1	51	2
1605.2954	1	10	322.4	322.4	1	51	3
1606.462	1	10	307.7	307.7	1	51	4
1607.7452	1	10	304.5	304.5	1	51	5
1608.9452	1	10	288.4	288.4	1	51	6
1610.095	1	10	274.5	274.5	1	51	7
1611.245	1	21	-99	-99	1	51	0
1612.395	1	10	294.6	294.6	1	51	1
1613.5948	1	10	246.6	246.6	1	51	2
1614.6614	1	10	316	316	1	51	3
1615.9114	1	10	218.1	218.1	1	51	4
1616.9614	1	10	288.1	288.1	1	51	5
1618.2112	1	10	350.1	350.1	1	51	6
1619.4112	1	10	238.2	238.2	1	51	7
1620.6112	1	21	-99	-99	1	51	0
1621.7778	1	10	255.6	255.6	1	51	1
1623.061	1	10	252.3	252.3	1	51	2
1623.9364	1	81	n/a	n/a	1	0	0
1624.1364	1	81	n/a	n/a	1	0	0
1624.3364	1	81	n/a	n/a	1	0	0
1624.5364	1	81	n/a	n/a	1	0	0
1624.7364	1	81	n/a	n/a	1	0	0
1624.9364	1	81	n/a	n/a	1	0	0
1625.1364	1	81	n/a	n/a	1	0	0
1625.3364	1	81	n/a	n/a	1	0	0
1625.5364	1	81	n/a	n/a	1	0	0
1625.7364	1	81	n/a	n/a	1	0	0
1627.094	1	10	283.2	283.2	1	51	1
1628.3606	1	21	-99	-99	1	51	0
1629.494	1	10	299.2	299.2	1	51	1
1630.6272	1	10	269.9	269.9	1	51	2
1631.6938	1	10	275.3	275.3	1	51	3
1632.9438	1	10	289.3	289.3	1	51	4
1634.0104	1	10	278.7	278.7	1	51	5
1635.077	1	21	-99	-99	1	51	0
1636.1936	1	10	271.5	271.5	1	51	1
1637.4602	1	10	300.8	300.8	1	51	2
1638.5934	1	10	223.5	223.5	1	51	3
1639.86	1	10	268.9	268.9	1	51	4
1641.01	1	10	287	287	1	51	5
1642.1598	1	21	-99	-99	1	51	0
1643.4764	1	10	252.4	252.4	1	51	1
1644.693	1	10	283.8	283.8	1	51	2
1645.8264	1	10	302.4	302.4	1	51	3
1646.943	1	10	273.9	273.9	1	51	4
1648.1596	1	10	257.2	257.2	1	51	5
1649.3762	1	21	-99	-99	1	51	0
1650.1118	1	81	n/a	n/a	1	0	0
1650.3118	1	81	n/a	n/a	1	0	0
1650.5118	1	81	n/a	n/a	1	0	0
1650.7118	1	81	n/a	n/a	1	0	0
1650.9118	1	81	n/a	n/a	1	0	0
1651.1118	1	81	n/a	n/a	1	0	0
1651.3118	1	81	n/a	n/a	1	0	0
1651.5118	1	81	n/a	n/a	1	0	0
1651.7118	1	81	n/a	n/a	1	0	0
1651.9118	1	81	n/a	n/a	1	0	0
1653.2592	1	10	277.4	277.4	1	51	1
1654.4758	1	10	244.8	244.8	1	51	2
1655.659	1	10	197.5	197.5	1	51	3
1656.7756	1	10	280.8	280.8	1	51	4
1658.0922	1	10	228.3	228.3	1	51	5
1659.1422	1	10	282.3	282.3	1	51	6
1660.3422	1	10	266.4	266.4	1	51	7
1661.542	1	21	-99	-99	1	51	0
1662.792	1	10	248.4	248.4	1	51	1
1663.9086	1	10	267.8	267.8	1	51	2
1664.9752	1	10	273.2	273.2	1	51	3
1666.1584	1	10	273.9	273.9	1	51	4
1667.2584	1	10	293.9	293.9	1	51	5
1668.3584	1	21	266	266	1	51	0
1669.6582	1	10	262.1	262.1	1	51	1
1670.9582	1	21	-99	-99	1	51	0
1672.0748	1	10	293.4	293.4	1	51	1
1673.1914	1	21	-99	-99	1	51	0
1674.2246	1	10	271.5	271.5	1	51	1
1675.258	1	10	262.2	262.2	1	51	2
1735.7668	1	82	n/a	n/a	1	0	0
1735.9888	1	82	n/a	n/a	1	0	0
1736.3298	1	82	n/a	n/a	1	0	0
1736.4828	1	82	n/a	n/a	1	0	0
1736.5048	1	82	n/a	n/a	1	0	0
1736.7668	1	82	n/a	n/a	1	0	0
1736.9278	1	82	n/a	n/a	1	0	0
1736.9658	1	82	n/a	n/a	1	0	0
1737.3468	1	82	n/a	n/a	1	0	0
1737.7048	1	82	n/a	n/a	1	0	0
1738.8082	1	10	312.3	312.3	1	52	1
1739.958	1	21	250.3	250.3	1	52	0
1741.2746	1	10	245.6	245.6	1	52	1
1742.5912	1	21	-99	-99	1	52	0
1743.6746	1	10	277.8	277.8	1	52	1
1744.7578	1	21	282.5	282.5	1	52	0
1745.9078	1	10	300.5	300.5	1	52	1
1747.1076	1	10	300.5	300.5	1	52	2
1748.3408	1	10	251.3	251.3	1	52	3
1749.4908	1	10	461.3	461.3	1	52	4
1750.524	1	10	276	276	1	52	5
1751.6574	1	10	326.7	326.7	1	52	6
1752.9572	1	10	290.8	290.8	1	52	7
1754.2572	1	21	270.7	270.7	1	52	0
1755.5572	1	10	58.8	58.8	1	52	1
1756.6904	1	10	237.6	237.6	1	52	2
1757.9404	1	10	267.5	267.5	1	52	3
1759.1902	1	21	281.6	281.6	1	52	0
1760.3902	1	10	233.7	233.7	1	52	1
1761.5734	1	10	298.4	298.4	1	52	2
1762.611	1	82	n/a	n/a	1	0	0
1762.903	1	82	n/a	n/a	1	0	0
1763.038	1	82	n/a	n/a	1	0	0
1763.081	1	82	n/a	n/a	1	0	0
1763.43	1	82	n/a	n/a	1	0	0
1763.611	1	82	n/a	n/a	1	0	0
1763.631	1	82	n/a	n/a	1	0	0
1763.934	1	82	n/a	n/a	1	0	0
1764.026	1	82	n/a	n/a	1	0	0
1764.262	1	82	n/a	n/a	1	0	0
1765.7398	1	10	307.9	307.9	1	52	1
1766.7898	1	10	313.9	313.9	1	52	2
1767.9064	1	10	285.3	285.3	1	52	3
1769.173	1	10	282.6	282.6	1	52	4
1770.4396	1	10	280	280	1	52	5
1771.7062	1	21	-99	-99	1	52	0
1772.8062	1	10	265.4	265.4	1	52	1
1774.0728	1	10	246.8	246.8	1	52	2
1775.206	1	10	249.6	249.6	1	52	3
1776.3392	1	21	268.3	268.3	1	52	0
1777.4058	1	10	337.6	337.6	1	52	1
1778.4558	1	10	327.6	327.6	1	52	2
1779.5724	1	10	331	331	1	52	3
1780.739	1	10	300.4	300.4	1	52	4
1781.889	1	10	302.4	302.4	1	52	5
1783.0388	1	21	-99	-99	1	52	0
1784.2388	1	10	272.5	272.5	1	52	1
1785.3388	1	10	308.6	308.6	1	52	2
1786.6386	1	10	240.7	240.7	1	52	3
1787.9386	1	21	444.7	444.7	1	52	0
1789.025	1	82	n/a	n/a	1	0	0
1789.36	1	82	n/a	n/a	1	0	0
1789.412	1	82	n/a	n/a	1	0	0
1789.532	1	82	n/a	n/a	1	0	0
1789.806	1	82	n/a	n/a	1	0	0
1790.025	1	82	n/a	n/a	1	0	0
1790.323	1	82	n/a	n/a	1	0	0
1790.463	1	82	n/a	n/a	1	0	0
1790.49	1	82	n/a	n/a	1	0	0
1790.725	1	82	n/a	n/a	1	0	0
1791.955	1	10	556.1	556.1	1	52	1
1793.005	1	21	-99	-99	1	52	0
1794.2216	1	10	273.6	273.6	1	52	1
1795.2882	1	10	327	327	1	52	2
1796.3548	1	10	316.3	316.3	1	52	3
1797.388	1	10	275	275	1	52	4
1798.6546	1	10	304.4	304.4	1	52	5
1799.9212	1	21	-99	-99	1	52	0
1801.2378	1	10	265.1	265.1	1	52	1
1802.4044	1	10	298.5	298.5	1	52	2
1803.6044	1	10	266.6	266.6	1	52	3
1804.7042	1	10	302.6	302.6	1	52	4
1805.8208	1	10	274	274	1	52	5
1807.1374	1	10	269.4	269.4	1	52	6
1808.2874	1	10	271.4	271.4	1	52	7
1809.4374	1	21	273.5	273.5	1	52	0
1810.554	1	10	228.8	228.8	1	52	1
1811.7706	1	10	276.2	276.2	1	52	2
1812.937	1	10	309.6	309.6	1	52	3
1814.237	1	10	241.7	241.7	1	52	4
1815.0254	1	82	n/a	n/a	1	0	0
1815.2714	1	82	n/a	n/a	1	0	0
1815.6144	1	82	n/a	n/a	1	0	0
1815.7084	1	82	n/a	n/a	1	0	0
1815.8244	1	82	n/a	n/a	1	0	0
1816.0254	1	82	n/a	n/a	1	0	0
1816.2884	1	82	n/a	n/a	1	0	0
1816.3094	1	82	n/a	n/a	1	0	0
1816.4314	1	82	n/a	n/a	1	0	0
1816.6614	1	82	n/a	n/a	1	0	0
1817.9868	1	10	251.8	251.8	1	52	1
1819.0534	1	21	-99	-99	1	52	0
1820.3034	1	10	287.1	287.1	1	52	1
1821.37	1	10	324.5	324.5	1	52	2
1822.4032	1	10	299.3	299.3	1	52	3
1823.7032	1	10	327.3	327.3	1	52	4
1824.7698	1	10	316.6	316.6	1	52	5
1825.8364	1	21	-99	-99	1	52	0
1827.003	1	10	243.4	243.4	1	52	1
1828.1696	1	21	-99	-99	1	52	0
1829.3694	1	10	260.8	260.8	1	52	1
1830.4194	1	10	298.9	298.9	1	52	2
1831.486	1	10	304.3	304.3	1	52	3
1832.536	1	10	342.3	342.3	1	52	4
1833.8192	1	10	291	291	1	52	5
1835.1192	1	10	319	319	1	52	6
1836.3024	1	10	239.8	239.8	1	52	7
1837.4856	1	21	-99	-99	1	52	0
1838.5856	1	10	260.5	260.5	1	52	1
1839.6188	1	10	315.2	315.2	1	52	2
1840.6614	1	82	n/a	n/a	1	0	0
1840.9854	1	82	n/a	n/a	1	0	0
1841.4034	1	82	n/a	n/a	1	0	0
1841.4784	1	82	n/a	n/a	1	0	0
1841.5044	1	82	n/a	n/a	1	0	0
1841.6614	1	82	n/a	n/a	1	0	0
1841.8054	1	82	n/a	n/a	1	0	0
1841.8664	1	82	n/a	n/a	1	0	0
1842.0754	1	82	n/a	n/a	1	0	0
1842.4024	1	82	n/a	n/a	1	0	0
1843.7186	1	10	391.3	391.3	1	52	1
1844.8686	1	10	313.4	313.4	1	52	2
1845.9184	1	10	319.5	319.5	1	52	3
1846.9684	1	21	-99	-99	1	52	0
1848.2516	1	10	274.2	274.2	1	52	1
1849.5516	1	21	-99	-99	1	52	0
1850.7682	1	10	237.6	237.6	1	52	1
1851.9848	1	10	253	253	1	52	2
1853.1348	1	10	335	335	1	52	3
1854.2846	1	21	273.1	273.1	1	52	0
1855.318	1	10	263.8	263.8	1	52	1
1856.5678	1	10	277.9	277.9	1	52	2
1857.6178	1	10	299.8	299.8	1	52	3
1858.851	1	10	314.6	314.6	1	52	4
1860.101	1	10	280.6	280.6	1	52	5
1861.351	1	21	214.7	214.7	1	52	0
1862.6176	1	10	260	260	1	52	1
1863.8842	1	21	-99	-99	1	52	0
1865.1174	1	10	272.2	272.2	1	52	1
1866.434	1	10	267.5	267.5	1	52	2
1878.736	1	81	n/a	n/a	1	0	0
1878.936	1	81	n/a	n/a	1	0	0
1879.136	1	81	n/a	n/a	1	0	0
1879.336	1	81	n/a	n/a	1	0	0
1879.536	1	81	n/a	n/a	1	0	0
1879.736	1	81	n/a	n/a	1	0	0
1879.936	1	81	n/a	n/a	1	0	0
1880.136	1	81	n/a	n/a	1	0	0
1880.336	1	81	n/a	n/a	1	0	0
1880.536	1	81	n/a	n/a	1	0	0
1881.7998	1	10	277.4	277.4	1	50	1
1882.9664	1	21	-99	-99	1	50	0
1884.0662	1	10	282.8	282.8	1	50	1
1885.1496	1	10	303.5	303.5	1	50	2
1886.3828	1	10	286.2	286.2	1	50	3
1887.616	1	21	-99	-99	1	50	0
1888.8494	1	10	251.7	251.7	1	50	1
1890.0492	1	10	299.7	299.7	1	50	2
1891.2492	1	10	251.7	251.7	1	50	3
1892.4158	1	10	317.1	317.1	1	50	4
1893.699	1	10	281.9	281.9	1	50	5
1894.999	1	10	149.8	149.8	1	50	6
1896.1656	1	10	231.2	231.2	1	50	7
1897.3322	1	21	-99	-99	1	50	0
1898.4488	1	10	283.9	283.9	1	50	1
1899.732	1	10	264.7	264.7	1	50	2
1900.832	1	10	236.7	236.7	1	50	3
1901.9318	1	21	272.8	272.8	1	50	0
1903.1484	1	10	272.2	272.2	1	50	1
1904.4484	1	10	268.2	268.2	1	50	2
1905.4748	1	81	n/a	n/a	1	0	0
1905.6748	1	81	n/a	n/a	1	0	0
1905.8748	1	81	n/a	n/a	1	0	0
1906.0748	1	81	n/a	n/a	1	0	0
1906.2748	1	81	n/a	n/a	1	0	0
1906.4748	1	81	n/a	n/a	1	0	0
1906.6748	1	81	n/a	n/a	1	0	0
1906.8748	1	81	n/a	n/a	1	0	0
1907.0748	1	81	n/a	n/a	1	0	0
1907.2748	1	81	n/a	n/a	1	0	0
1908.4482	1	10	268.3	268.3	1	50	1
1909.5314	1	21	-99	-99	1	50	0
1910.6146	1	10	261.8	261.8	1	50	1
1911.9312	1	10	257.2	257.2	1	50	2
1913.1312	1	10	257.2	257.2	1	50	3
1914.4144	1	10	365.9	365.9	1	50	4
1915.481	1	10	339.3	339.3	1	50	5
1916.5476	1	21	-99	-99	1	50	0
1917.5976	1	10	254.7	254.7	1	50	1
1918.8476	1	10	380.7	380.7	1	50	2
1919.9142	1	10	290.1	290.1	1	50	3
1921.114	1	10	258.2	258.2	1	50	4
1922.1474	1	10	328.9	328.9	1	50	5
1923.1806	1	21	-99	-99	1	50	0
1924.3972	1	10	254.9	254.9	1	50	1
1925.6138	1	21	286.3	286.3	1	50	0
1926.847	1	10	109.1	109.1	1	50	1
1928.0804	1	21	267.7	267.7	1	50	0
1929.297	1	10	251.1	251.1	1	50	1
1930.3302	1	10	465.8	465.8	1	50	2
1931.1276	1	81	n/a	n/a	1	0	0
1931.3276	1	81	n/a	n/a	1	0	0
1931.5276	1	81	n/a	n/a	1	0	0
1931.7276	1	81	n/a	n/a	1	0	0
1931.9276	1	81	n/a	n/a	1	0	0
1932.1276	1	81	n/a	n/a	1	0	0
1932.3276	1	81	n/a	n/a	1	0	0
1932.5276	1	81	n/a	n/a	1	0	0
1932.7276	1	81	n/a	n/a	1	0	0
1932.9276	1	81	n/a	n/a	1	0	0
1934.13	1	10	362	362	1	50	1
1935.2466	1	21	-99	-99	1	50	0
1936.3132	1	10	274.8	274.8	1	50	1
1937.3798	1	21	-99	-99	1	50	0
1938.563	1	10	232.8	232.8	1	50	1
1939.7464	1	21	-99	-99	1	50	0
1940.813	1	10	254.9	254.9	1	50	1
1941.8796	1	21	-99	-99	1	50	0
1942.9628	1	10	248.9	248.9	1	50	1
1943.996	1	10	351.7	351.7	1	50	2
1945.146	1	10	273.7	273.7	1	50	3
1946.1792	1	10	296.5	296.5	1	50	4
1947.2626	1	10	317.1	317.1	1	50	5
1948.3458	1	21	241.8	241.8	1	50	0
1949.529	1	10	242.5	242.5	1	50	1
1950.679	1	10	324.5	324.5	1	50	2
1951.729	1	10	298.6	298.6	1	50	3
1952.7788	1	21	-99	-99	1	50	0
1953.8122	1	10	295.4	295.4	1	50	1
1954.862	1	10	237.4	237.4	1	50	2
1955.6174	1	81	n/a	n/a	1	0	0
1955.8174	1	81	n/a	n/a	1	0	0
1956.0174	1	81	n/a	n/a	1	0	0
1956.2174	1	81	n/a	n/a	1	0	0
1956.4174	1	81	n/a	n/a	1	0	0
1956.6174	1	81	n/a	n/a	1	0	0
1956.8174	1	81	n/a	n/a	1	0	0
1957.0174	1	81	n/a	n/a	1	0	0
1957.2174	1	81	n/a	n/a	1	0	0
1957.4174	1	81	n/a	n/a	1	0	0
1958.6952	1	10	308.2	308.2	1	50	1
1959.8284	1	10	390.9	390.9	1	50	2
1961.0784	1	10	212.9	212.9	1	50	3
1962.3284	1	21	243	243	1	50	0
1963.6282	1	10	15.1	15.1	1	50	1
1964.7948	1	10	320.4	320.4	1	50	2
1965.9282	1	10	275.1	275.1	1	50	3
1967.0614	1	21	341.8	341.8	1	50	0
1968.3946	1	10	192.6	192.6	1	50	1
1969.4278	1	10	327.2	327.2	1	50	2
1970.4778	1	10	301.2	301.2	1	50	3
1971.6612	1	10	270	270	1	50	4
1972.761	1	10	290	290	1	50	5
1973.811	1	10	296.1	296.1	1	50	6
1974.961	1	10	346.1	346.1	1	50	7
1976.1108	1	21	-99	-99	1	50	0
1977.4108	1	10	200.2	200.2	1	50	1
1978.644	1	10	230.9	230.9	1	50	2
1979.944	1	10	226.9	226.9	1	50	3
1981.0106	1	10	280.3	280.3	1	50	4
1982.041	1	81	n/a	n/a	1	0	0
1982.241	1	81	n/a	n/a	1	0	0
1982.441	1	81	n/a	n/a	1	0	0
1982.641	1	81	n/a	n/a	1	0	0
1982.841	1	81	n/a	n/a	1	0	0
1983.041	1	81	n/a	n/a	1	0	0
1983.241	1	81	n/a	n/a	1	0	0
1983.441	1	81	n/a	n/a	1	0	0
1983.641	1	81	n/a	n/a	1	0	0
1983.841	1	81	n/a	n/a	1	0	0
1985.1104	1	10	692.5	692.5	1	50	1
1986.3602	1	10	242.5	242.5	1	50	2
1987.4602	1	10	278.5	278.5	1	50	3
1988.6434	1	10	87.2	87.2	1	50	4
1989.9434	1	10	291.3	291.3	1	50	5
1991.2432	1	21	-99	-99	1	50	0
1992.5098	1	10	236.7	236.7	1	50	1
1993.6098	1	10	176.7	176.7	1	50	2
1994.843	1	10	271.5	271.5	1	50	3
1996.1596	1	10	202.9	202.9	1	50	4
1997.4096	1	10	248.9	248.9	1	50	5
1998.6928	1	10	245.6	245.6	1	50	6
1999.8762	1	10	262.3	262.3	1	50	7
2001.0594	1	21	-99	-99	1	50	0
2002.3094	1	10	229	229	1	50	1
2003.426	1	10	232.4	232.4	1	50	2
2004.4758	1	10	254.5	254.5	1	50	3
2005.5758	1	10	242.6	242.6	1	50	4
2006.6924	1	10	166	166	1	50	5
2007.809	1	21	233.3	233.3	1	50	0
2027.0808	1	81	n/a	n/a	1	0	0
2027.2808	1	81	n/a	n/a	1	0	0
2027.4808	1	81	n/a	n/a	1	0	0
2027.6808	1	81	n/a	n/a	1	0	0
2027.8808	1	81	n/a	n/a	1	0	0
2028.081	1	81	n/a	n/a	1	0	0
2028.281	1	81	n/a	n/a	1	0	0
2028.481	1	81	n/a	n/a	1	0	0
2028.681	1	81	n/a	n/a	1	0	0
2028.881	1	81	n/a	n/a	1	0	0
2030.041	1	10	288.7	288.7	1	51	1
2031.291	1	10	302.8	302.8	1	51	2
2032.5576	1	10	252.2	252.2	1	51	3
2033.8242	1	21	265.6	265.6	1	51	0
2035.0074	1	10	234.2	234.2	1	51	1
2036.2906	1	10	439	439	1	51	2
2037.3406	1	10	237	237	1	51	3
2038.4906	1	10	255.1	255.1	1	51	4
2039.5738	1	10	275.7	275.7	1	51	5
2040.707	1	10	246.5	246.5	1	51	6
2041.757	1	10	268.5	268.5	1	51	7
2042.807	1	21	-99	-99	1	51	0
2044.1236	1	10	333.9	333.9	1	51	1
2045.34	1	10	253.3	253.3	1	51	2
2046.5734	1	10	92	92	1	51	3
2047.8732	1	10	216.1	216.1	1	51	4
2049.1398	1	10	213.4	213.4	1	51	5
2050.3564	1	10	100.8	100.8	1	51	6
2051.4398	1	10	233.5	233.5	1	51	7
2052.523	1	21	-99	-99	1	51	0
2053.5606	1	81	n/a	n/a	1	0	0
2053.7606	1	81	n/a	n/a	1	0	0
2053.9606	1	81	n/a	n/a	1	0	0
2054.1606	1	81	n/a	n/a	1	0	0
2054.3606	1	81	n/a	n/a	1	0	0
2054.5606	1	81	n/a	n/a	1	0	0
2054.7606	1	81	n/a	n/a	1	0	0
2054.9606	1	81	n/a	n/a	1	0	0
2055.1606	1	81	n/a	n/a	1	0	0
2055.3606	1	81	n/a	n/a	1	0	0
2056.706	1	10	391.1	391.1	1	51	1
2057.8394	1	10	233.8	233.8	1	51	2
2058.906	1	10	271.1	271.1	1	51	3
2059.9726	1	21	-99	-99	1	51	0
2061.2226	1	10	50.6	50.6	1	51	1
2062.5058	1	10	255.2	255.2	1	51	2
2063.6056	1	10	259.3	259.3	1	51	3
2064.639	1	10	282	282	1	51	4
2065.6722	1	10	272.7	272.7	1	51	5
2066.7056	1	21	-99	-99	1	51	0
2067.9054	1	10	167.4	167.4	1	51	1
2069.072	1	10	264.8	264.8	1	51	2
2070.1886	1	10	204.2	204.2	1	51	3
2071.3052	1	21	-99	-99	1	51	0
2072.3386	1	10	230.3	230.3	1	51	1
2073.5884	1	10	244.3	244.3	1	51	2
2074.6884	1	10	216.4	216.4	1	51	3
2075.7716	1	10	285.1	285.1	1	51	4
2076.9382	1	10	286.4	286.4	1	51	5
2078.1548	1	10	237.8	237.8	1	51	6
2079.0922	1	81	n/a	n/a	1	0	0
2079.2922	1	81	n/a	n/a	1	0	0
2079.4922	1	81	n/a	n/a	1	0	0
2079.6922	1	81	n/a	n/a	1	0	0
2079.8922	1	81	n/a	n/a	1	0	0
2080.0922	1	81	n/a	n/a	1	0	0
2080.2922	1	81	n/a	n/a	1	0	0
2080.4922	1	81	n/a	n/a	1	0	0
2080.6922	1	81	n/a	n/a	1	0	0
2080.8922	1	81	n/a	n/a	1	0	0
2082.3046	1	10	360	360	1	51	1
2083.6212	1	21	-99	-99	1	51	0
2084.9044	1	10	128.1	128.1	1	51	1
2085.971	1	10	293.4	293.4	1	51	2
2087.071	1	10	249.5	249.5	1	51	3
2088.171	1	21	237.5	237.5	1	51	0
2089.2542	1	10	114.3	114.3	1	51	1
2090.3374	1	21	-99	-99	1	51	0
2091.4874	1	10	296.9	296.9	1	51	1
2092.7374	1	10	247	247	1	51	2
2093.7706	1	10	285.7	285.7	1	51	3
2094.9872	1	10	237.1	237.1	1	51	4
2096.0538	1	10	274.4	274.4	1	51	5
2097.1204	1	21	-99	-99	1	51	0
2098.3704	1	10	101	101	1	51	1
2099.5702	1	10	294	294	1	51	2
2100.7868	1	10	261.3	261.3	1	51	3
2102.0034	1	21	68.7	68.7	1	51	0
2103.1034	1	10	104.7	104.7	1	51	1
2104.32	1	10	328.2	328.2	1	51	2
2105.2344	1	81	n/a	n/a	1	0	0
2105.4344	1	81	n/a	n/a	1	0	0
2105.6344	1	81	n/a	n/a	1	0	0
2105.8344	1	81	n/a	n/a	1	0	0
2106.0344	1	81	n/a	n/a	1	0	0
2106.2344	1	81	n/a	n/a	1	0	0
2106.4344	1	81	n/a	n/a	1	0	0
2106.6344	1	81	n/a	n/a	1	0	0
2106.8344	1	81	n/a	n/a	1	0	0
2107.0344	1	81	n/a	n/a	1	0	0
2108.3364	1	10	263.6	263.6	1	51	1
2109.603	1	10	261	261	1	51	2
2110.703	1	10	233	233	1	51	3
2111.9028	1	10	137.1	137.1	1	51	4
2112.9362	1	10	271.8	271.8	1	51	5
2113.9694	1	21	-99	-99	1	51	0
2115.1026	1	10	89.1	89.1	1	51	1
2116.4192	1	10	228.5	228.5	1	51	2
2117.7192	1	10	144.6	144.6	1	51	3
2119.0192	1	21	236.6	236.6	1	51	0
2120.1024	1	10	225.3	225.3	1	51	1
2121.419	1	10	268.7	268.7	1	51	2
2122.7188	1	10	232.8	232.8	1	51	3
2124.0188	1	21	228.8	228.8	1	51	0
2125.1688	1	10	246.9	246.9	1	51	1
2126.3186	1	21	-99	-99	1	51	0
2127.5186	1	10	249	249	1	51	1
2128.7852	1	10	-99	-99	1	51	2
2129.9852	1	10	262.4	262.4	1	51	3
2131.0518	1	10	283.8	283.8	1	51	4
2132.0742	1	81	n/a	n/a	1	0	0
2132.2742	1	81	n/a	n/a	1	0	0
2132.4742	1	81	n/a	n/a	1	0	0
2132.6742	1	81	n/a	n/a	1	0	0
2132.8742	1	81	n/a	n/a	1	0	0
2133.0742	1	81	n/a	n/a	1	0	0
2133.2742	1	81	n/a	n/a	1	0	0
2133.4742	1	81	n/a	n/a	1	0	0
2133.6742	1	81	n/a	n/a	1	0	0
2133.8742	1	81	n/a	n/a	1	0	0
2135.2514	1	10	291.9	291.9	1	51	1
2136.418	1	10	309.3	309.3	1	51	2
2137.5346	1	10	216.7	216.7	1	51	3
2138.6512	1	21	-99	-99	1	51	0
2139.7846	1	10	238.7	238.7	1	51	1
2140.9344	1	10	272.8	272.8	1	51	2
2142.1844	1	10	206.9	206.9	1	51	3
2143.301	1	10	242.2	242.2	1	51	4
2144.3342	1	10	264.9	264.9	1	51	5
2145.3676	1	21	-99	-99	1	51	0
2146.6342	1	10	13	13	1	51	1
2147.934	1	10	249	249	1	51	2
2149.1006	1	10	186.4	186.4	1	51	3
2150.2672	1	21	251.8	251.8	1	51	0
2151.4506	1	10	92.4	92.4	1	51	1
2152.6338	1	21	205.2	205.2	1	51	0
2153.7504	1	10	240.6	240.6	1	51	1
2154.9336	1	10	305.3	305.3	1	51	2
2156.1502	1	10	288.7	288.7	1	51	3
2157.2502	1	10	228.7	228.7	1	51	4
