onset	duration	value	response	rt	good	TMS	seq
154.2188	1	82	n/a	n/a	1	0	0
154.4448	1	82	n/a	n/a	1	0	0
154.5508	1	82	n/a	n/a	1	0	0
154.9478	1	82	n/a	n/a	1	0	0
155.0748	1	82	n/a	n/a	1	0	0
155.219	1	82	n/a	n/a	1	0	0
155.32	1	82	n/a	n/a	1	0	0
155.396	1	82	n/a	n/a	1	0	0
155.578	1	82	n/a	n/a	1	0	0
155.9098	1	82	n/a	n/a	1	0	0
157.356	1	10	402.5	402.5	1	52	1
158.3892	1	10	345.1	345.1	1	52	2
159.4724	1	10	237.8	237.8	1	52	3
160.5058	1	10	244.6	244.6	1	52	4
161.7056	1	10	276.6	276.6	1	52	5
162.9556	1	10	226.7	226.7	1	52	6
164.0556	1	10	246.7	246.7	1	52	7
165.1554	1	21	-99	-99	1	52	0
166.4388	1	10	231.4	231.4	1	52	1
167.5886	1	10	233.5	233.5	1	52	2
168.872	1	10	262.2	262.2	1	52	3
170.1552	1	21	-99	-99	1	52	0
171.4718	1	10	222.3	222.3	1	52	1
172.5384	1	10	227.6	227.6	1	52	2
173.605	1	10	233	233	1	52	3
174.8382	1	10	231.8	231.8	1	52	4
176.1216	1	10	276.5	276.5	1	52	5
177.4048	1	21	257.2	257.2	1	52	0
178.5548	1	10	259.2	259.2	1	52	1
179.7546	1	10	259.3	259.3	1	52	2
180.806	1	82	n/a	n/a	1	0	0
180.879	1	82	n/a	n/a	1	0	0
181.2	1	82	n/a	n/a	1	0	0
181.617	1	82	n/a	n/a	1	0	0
181.661	1	82	n/a	n/a	1	0	0
181.806	1	82	n/a	n/a	1	0	0
181.923	1	82	n/a	n/a	1	0	0
182.2	1	82	n/a	n/a	1	0	0
182.548	1	82	n/a	n/a	1	0	0
182.711	1	82	n/a	n/a	1	0	0
183.8378	1	10	368	368	1	52	1
184.971	1	21	-99	-99	1	52	0
186.2376	1	10	256.2	256.2	1	52	1
187.4376	1	10	240.2	240.2	1	52	2
188.5042	1	10	245.6	245.6	1	52	3
189.7374	1	10	340.3	340.3	1	52	4
190.9374	1	10	276.3	276.3	1	52	5
192.1372	1	21	-99	-99	1	52	0
193.2872	1	10	246.4	246.4	1	52	1
194.487	1	10	278.5	278.5	1	52	2
195.5704	1	10	283.2	283.2	1	52	3
196.6536	1	10	287.8	287.8	1	52	4
197.9536	1	10	395.9	395.9	1	52	5
199.2534	1	21	264	264	1	52	0
200.5034	1	10	246	246	1	52	1
201.7534	1	21	-99	-99	1	52	0
202.8866	1	10	246.7	246.7	1	52	1
204.0198	1	10	265.5	265.5	1	52	2
205.2532	1	10	248.2	248.2	1	52	3
206.4864	1	21	262.9	262.9	1	52	0
207.5668	1	82	n/a	n/a	1	0	0
207.7918	1	82	n/a	n/a	1	0	0
207.8158	1	82	n/a	n/a	1	0	0
207.9968	1	82	n/a	n/a	1	0	0
208.1208	1	82	n/a	n/a	1	0	0
208.5668	1	82	n/a	n/a	1	0	0
208.8388	1	82	n/a	n/a	1	0	0
209.0088	1	82	n/a	n/a	1	0	0
209.3138	1	82	n/a	n/a	1	0	0
209.4498	1	82	n/a	n/a	1	0	0
210.6528	1	10	304.4	304.4	1	52	1
211.686	1	10	295.1	295.1	1	52	2
212.9694	1	10	291.8	291.8	1	52	3
214.136	1	10	277.2	277.2	1	52	4
215.2026	1	10	282.6	282.6	1	52	5
216.2692	1	21	-99	-99	1	52	0
217.5858	1	10	235.3	235.3	1	52	1
218.7024	1	10	254.7	254.7	1	52	2
219.8356	1	10	273.4	273.4	1	52	3
220.9188	1	10	310.1	310.1	1	52	4
222.0022	1	10	314.8	314.8	1	52	5
223.0854	1	10	271.5	271.5	1	52	6
224.2354	1	10	401.5	401.5	1	52	7
225.3852	1	21	-99	-99	1	52	0
226.7018	1	10	271	271	1	52	1
228.0018	1	10	267	267	1	52	2
229.1018	1	10	255	255	1	52	3
230.3516	1	10	301.1	301.1	1	52	4
231.5182	1	10	366.5	366.5	1	52	5
232.8182	1	10	266.6	266.6	1	52	6
233.5786	1	82	n/a	n/a	1	0	0
233.8626	1	82	n/a	n/a	1	0	0
233.8886	1	82	n/a	n/a	1	0	0
234.2286	1	82	n/a	n/a	1	0	0
234.3346	1	82	n/a	n/a	1	0	0
234.5786	1	82	n/a	n/a	1	0	0
234.6006	1	82	n/a	n/a	1	0	0
234.9626	1	82	n/a	n/a	1	0	0
235.1376	1	82	n/a	n/a	1	0	0
235.4536	1	82	n/a	n/a	1	0	0
236.718	1	10	318.7	318.7	1	52	1
237.8846	1	10	240.1	240.1	1	52	2
238.9344	1	10	294.1	294.1	1	52	3
240.051	1	10	265.5	265.5	1	52	4
241.0844	1	10	272.1	272.1	1	52	5
242.2676	1	10	288.9	288.9	1	52	6
243.5008	1	10	255.6	255.6	1	52	7
244.7342	1	21	302.3	302.3	1	52	0
246.034	1	10	378.4	378.4	1	52	1
247.1174	1	10	271	271	1	52	2
248.184	1	10	292.4	292.4	1	52	3
249.4672	1	10	273.1	273.1	1	52	4
250.7672	1	10	285.2	285.2	1	52	5
252.067	1	21	265.3	265.3	1	52	0
253.2336	1	10	346.7	346.7	1	52	1
254.4002	1	21	-99	-99	1	52	0
255.5168	1	10	271.4	271.4	1	52	1
256.6334	1	10	274.7	274.7	1	52	2
257.7334	1	10	278.8	278.8	1	52	3
258.9	1	10	264.2	264.2	1	52	4
259.8224	1	82	n/a	n/a	1	0	0
259.9024	1	82	n/a	n/a	1	0	0
259.9334	1	82	n/a	n/a	1	0	0
260.2014	1	82	n/a	n/a	1	0	0
260.5044	1	82	n/a	n/a	1	0	0
260.8224	1	82	n/a	n/a	1	0	0
261.1504	1	82	n/a	n/a	1	0	0
261.1764	1	82	n/a	n/a	1	0	0
261.5584	1	82	n/a	n/a	1	0	0
261.7064	1	82	n/a	n/a	1	0	0
262.7998	1	10	284.3	284.3	1	52	1
264.0664	1	10	281.7	281.7	1	52	2
265.233	1	10	267	267	1	52	3
266.4162	1	10	283.7	283.7	1	52	4
267.6494	1	10	282.4	282.4	1	52	5
268.8826	1	21	-99	-99	1	52	0
269.9326	1	10	271.2	271.2	1	52	1
270.9826	1	21	-99	-99	1	52	0
272.1992	1	10	244.7	244.7	1	52	1
273.4658	1	10	274	274	1	52	2
274.799	1	10	252.7	252.7	1	52	3
276.1156	1	10	264.1	264.1	1	52	4
277.1656	1	10	302.2	302.2	1	52	5
278.3322	1	10	319.6	319.6	1	52	6
279.4654	1	10	290.2	290.2	1	52	7
280.5986	1	21	-99	-99	1	52	0
281.7986	1	10	277	277	1	52	1
282.9152	1	10	280.4	280.4	1	52	2
284.1652	1	10	262.4	262.4	1	52	3
285.2318	1	10	283.7	283.7	1	52	4
298.412	1	81	n/a	n/a	1	0	0
298.612	1	81	n/a	n/a	1	0	0
298.812	1	81	n/a	n/a	1	0	0
299.012	1	81	n/a	n/a	1	0	0
299.212	1	81	n/a	n/a	1	0	0
299.412	1	81	n/a	n/a	1	0	0
299.612	1	81	n/a	n/a	1	0	0
299.812	1	81	n/a	n/a	1	0	0
300.012	1	81	n/a	n/a	1	0	0
300.212	1	81	n/a	n/a	1	0	0
301.5974	1	10	445.7	445.7	1	50	1
302.714	1	10	289.1	289.1	1	50	2
303.7472	1	10	263.8	263.8	1	50	3
304.7806	1	21	238.5	238.5	1	50	0
305.9806	1	10	254.5	254.5	1	50	1
307.0804	1	10	338.6	338.6	1	50	2
308.2804	1	10	290.6	290.6	1	50	3
309.397	1	10	294	294	1	50	4
310.6468	1	10	308	308	1	50	5
311.7802	1	10	278.7	278.7	1	50	6
312.8468	1	10	316.1	316.1	1	50	7
313.9134	1	21	273.5	273.5	1	50	0
315.0466	1	10	244.2	244.2	1	50	1
316.1798	1	21	-99	-99	1	50	0
317.4632	1	10	307.6	307.6	1	50	1
318.7964	1	10	270.3	270.3	1	50	2
320.0964	1	10	314.4	314.4	1	50	3
321.3796	1	10	297	297	1	50	4
322.6128	1	10	261.9	261.9	1	50	5
323.8462	1	10	276.5	276.5	1	50	6
324.8754	1	81	n/a	n/a	1	0	0
325.0754	1	81	n/a	n/a	1	0	0
325.2754	1	81	n/a	n/a	1	0	0
325.4754	1	81	n/a	n/a	1	0	0
325.6754	1	81	n/a	n/a	1	0	0
325.8756	1	81	n/a	n/a	1	0	0
326.0756	1	81	n/a	n/a	1	0	0
326.2756	1	81	n/a	n/a	1	0	0
326.4754	1	81	n/a	n/a	1	0	0
326.6754	1	81	n/a	n/a	1	0	0
327.9292	1	10	417.4	417.4	1	50	1
329.2124	1	10	318	318	1	50	2
330.2958	1	10	274.7	274.7	1	50	3
331.579	1	10	255.5	255.5	1	50	4
332.7622	1	10	368.2	368.2	1	50	5
333.9456	1	21	240.9	240.9	1	50	0
335.0288	1	10	261.5	261.5	1	50	1
336.1954	1	10	278.9	278.9	1	50	2
337.262	1	10	284.3	284.3	1	50	3
338.5952	1	10	263.1	263.1	1	50	4
339.6952	1	10	299.1	299.1	1	50	5
340.7952	1	21	-99	-99	1	50	0
341.945	1	10	257.1	257.1	1	50	1
343.095	1	21	259.2	259.2	1	50	0
344.295	1	10	227.3	227.3	1	50	1
345.5614	1	10	256.7	256.7	1	50	2
346.778	1	10	240.1	240.1	1	50	3
347.8446	1	10	309.4	309.4	1	50	4
348.9446	1	10	249.4	249.4	1	50	5
350.0446	1	21	-99	-99	1	50	0
350.9662	1	81	n/a	n/a	1	0	0
351.1662	1	81	n/a	n/a	1	0	0
351.3662	1	81	n/a	n/a	1	0	0
351.5662	1	81	n/a	n/a	1	0	0
351.7662	1	81	n/a	n/a	1	0	0
351.9662	1	81	n/a	n/a	1	0	0
352.1662	1	81	n/a	n/a	1	0	0
352.3662	1	81	n/a	n/a	1	0	0
352.5662	1	81	n/a	n/a	1	0	0
352.7662	1	81	n/a	n/a	1	0	0
353.961	1	10	257	257	1	50	1
355.111	1	10	243	243	1	50	2
356.2442	1	10	245.7	245.7	1	50	3
357.3442	1	10	233.7	233.7	1	50	4
358.5774	1	10	280.5	280.5	1	50	5
359.844	1	10	245.9	245.9	1	50	6
361.1272	1	10	258.5	258.5	1	50	7
362.4104	1	21	-99	-99	1	50	0
363.727	1	10	282.6	282.6	1	50	1
365.0436	1	21	262	262	1	50	0
366.2436	1	10	262.1	262.1	1	50	1
367.5436	1	10	274.1	274.1	1	50	2
368.7434	1	10	290.1	290.1	1	50	3
370.0434	1	10	270.2	270.2	1	50	4
371.0766	1	10	276.9	276.9	1	50	5
372.2432	1	10	294.3	294.3	1	50	6
373.5432	1	10	258.3	258.3	1	50	7
374.843	1	21	-99	-99	1	50	0
375.993	1	10	240.4	240.4	1	50	1
377.143	1	21	258.5	258.5	1	50	0
377.9164	1	81	n/a	n/a	1	0	0
378.1164	1	81	n/a	n/a	1	0	0
378.3164	1	81	n/a	n/a	1	0	0
378.5164	1	81	n/a	n/a	1	0	0
378.7164	1	81	n/a	n/a	1	0	0
378.9164	1	81	n/a	n/a	1	0	0
379.1164	1	81	n/a	n/a	1	0	0
379.3164	1	81	n/a	n/a	1	0	0
379.5164	1	81	n/a	n/a	1	0	0
379.7164	1	81	n/a	n/a	1	0	0
381.026	1	10	263.2	263.2	1	50	1
382.1094	1	10	300	300	1	50	2
383.1426	1	10	274.7	274.7	1	50	3
384.3092	1	10	276.1	276.1	1	50	4
385.4424	1	10	262.8	262.8	1	50	5
386.609	1	10	264.1	264.1	1	50	6
387.7924	1	10	328.8	328.8	1	50	7
388.9756	1	21	-99	-99	1	50	0
390.2256	1	10	263.6	263.6	1	50	1
391.5422	1	10	291	291	1	50	2
392.642	1	10	279	279	1	50	3
393.742	1	21	-99	-99	1	50	0
394.792	1	10	257.1	257.1	1	50	1
395.8252	1	10	279.8	279.8	1	50	2
397.0752	1	10	261.9	261.9	1	50	3
398.325	1	21	-99	-99	1	50	0
399.5082	1	10	228.6	228.6	1	50	1
400.8248	1	10	272	272	1	50	2
402.1582	1	10	268.5	268.5	1	50	3
403.258	1	10	334.8	334.8	1	50	4
404.1294	1	81	n/a	n/a	1	0	0
404.3294	1	81	n/a	n/a	1	0	0
404.5294	1	81	n/a	n/a	1	0	0
404.7294	1	81	n/a	n/a	1	0	0
404.9294	1	81	n/a	n/a	1	0	0
405.1296	1	81	n/a	n/a	1	0	0
405.3294	1	81	n/a	n/a	1	0	0
405.5294	1	81	n/a	n/a	1	0	0
405.7294	1	81	n/a	n/a	1	0	0
405.9294	1	81	n/a	n/a	1	0	0
407.2746	1	10	334.2	334.2	1	50	1
408.5412	1	10	267.6	267.6	1	50	2
409.691	1	10	285.7	285.7	1	50	3
410.841	1	10	239.7	239.7	1	50	4
412.1576	1	10	267	267	1	50	5
413.4742	1	21	-99	-99	1	50	0
414.674	1	10	246.5	246.5	1	50	1
415.7406	1	10	283.9	283.9	1	50	2
416.7906	1	10	321.9	321.9	1	50	3
417.8406	1	21	-99	-99	1	50	0
419.0738	1	10	246.6	246.6	1	50	1
420.157	1	10	219.4	219.4	1	50	2
421.2236	1	10	272.7	272.7	1	50	3
422.2902	1	21	-99	-99	1	50	0
423.5236	1	10	228.9	228.9	1	50	1
424.7568	1	21	-99	-99	1	50	0
425.9234	1	10	244.9	244.9	1	50	1
427.09	1	21	-99	-99	1	50	0
428.34	1	10	228.4	228.4	1	50	1
429.4232	1	10	249.1	249.1	1	50	2
470.5704	1	81	n/a	n/a	1	0	0
470.7704	1	81	n/a	n/a	1	0	0
470.9704	1	81	n/a	n/a	1	0	0
471.1704	1	81	n/a	n/a	1	0	0
471.3704	1	81	n/a	n/a	1	0	0
471.5704	1	81	n/a	n/a	1	0	0
471.7704	1	81	n/a	n/a	1	0	0
471.9704	1	81	n/a	n/a	1	0	0
472.1704	1	81	n/a	n/a	1	0	0
472.3704	1	81	n/a	n/a	1	0	0
473.5206	1	10	438.7	438.7	1	51	1
474.5706	1	21	268.6	268.6	1	51	0
475.6372	1	10	258	258	1	51	1
476.7538	1	10	293.4	293.4	1	51	2
478.0704	1	10	368.8	368.8	1	51	3
479.387	1	10	284.2	284.2	1	51	4
480.5702	1	10	253	253	1	51	5
481.7534	1	21	-99	-99	1	51	0
482.92	1	10	255	255	1	51	1
484.0034	1	10	275.7	275.7	1	51	2
485.2366	1	10	258.4	258.4	1	51	3
486.4698	1	21	-99	-99	1	51	0
487.6864	1	10	240.5	240.5	1	51	1
488.9196	1	10	255.2	255.2	1	51	2
489.953	1	10	261.9	261.9	1	51	3
491.0528	1	10	250	250	1	51	4
492.2194	1	10	251.4	251.4	1	51	5
493.386	1	21	-99	-99	1	51	0
494.636	1	10	234.7	234.7	1	51	1
495.886	1	21	264.8	264.8	1	51	0
496.7424	1	81	n/a	n/a	1	0	0
496.9424	1	81	n/a	n/a	1	0	0
497.1424	1	81	n/a	n/a	1	0	0
497.3424	1	81	n/a	n/a	1	0	0
497.5424	1	81	n/a	n/a	1	0	0
497.7424	1	81	n/a	n/a	1	0	0
497.9424	1	81	n/a	n/a	1	0	0
498.1424	1	81	n/a	n/a	1	0	0
498.3424	1	81	n/a	n/a	1	0	0
498.5424	1	81	n/a	n/a	1	0	0
499.9356	1	10	342.9	342.9	1	51	1
501.169	1	10	245.6	245.6	1	51	2
502.3856	1	10	309	309	1	51	3
503.5522	1	10	246.4	246.4	1	51	4
504.5854	1	10	317.1	317.1	1	51	5
505.8186	1	10	331.9	331.9	1	51	6
506.9186	1	10	287.8	287.8	1	51	7
508.0186	1	21	-99	-99	1	51	0
509.2352	1	10	307.3	307.3	1	51	1
510.4184	1	10	292	292	1	51	2
511.6016	1	10	292.7	292.7	1	51	3
512.635	1	10	347.4	347.4	1	51	4
513.9682	1	10	327.9	327.9	1	51	5
515.0182	1	10	300.1	300.1	1	51	6
516.0514	1	10	274.9	274.9	1	51	7
517.0846	1	21	-99	-99	1	51	0
518.1346	1	10	271.6	271.6	1	51	1
519.1846	1	21	277.6	277.6	1	51	0
520.3678	1	10	230.3	230.3	1	51	1
521.5678	1	10	262.4	262.4	1	51	2
522.329	1	81	n/a	n/a	1	0	0
522.529	1	81	n/a	n/a	1	0	0
522.729	1	81	n/a	n/a	1	0	0
522.929	1	81	n/a	n/a	1	0	0
523.129	1	81	n/a	n/a	1	0	0
523.329	1	81	n/a	n/a	1	0	0
523.529	1	81	n/a	n/a	1	0	0
523.729	1	81	n/a	n/a	1	0	0
523.929	1	81	n/a	n/a	1	0	0
524.129	1	81	n/a	n/a	1	0	0
525.4508	1	10	315.2	315.2	1	51	1
526.784	1	10	245.9	245.9	1	51	2
527.9674	1	10	230.6	230.6	1	51	3
529.234	1	10	244	244	1	51	4
530.2672	1	10	298.7	298.7	1	51	5
531.5338	1	10	248	248	1	51	6
532.7338	1	10	264.1	264.1	1	51	7
533.9336	1	21	264.2	264.2	1	51	0
535.1336	1	10	248.2	248.2	1	51	1
536.3002	1	10	345.6	345.6	1	51	2
537.5834	1	10	326.4	326.4	1	51	3
538.8668	1	21	-99	-99	1	51	0
539.9166	1	10	297.1	297.1	1	51	1
541.1332	1	10	248.5	248.5	1	51	2
542.3832	1	10	262.5	262.5	1	51	3
543.5164	1	10	265.2	265.2	1	51	4
544.7664	1	10	311.2	311.2	1	51	5
546.0662	1	10	275.3	275.3	1	51	6
547.2828	1	10	274.7	274.7	1	51	7
548.4994	1	21	274.1	274.1	1	51	0
549.2278	1	81	n/a	n/a	1	0	0
549.4278	1	81	n/a	n/a	1	0	0
549.6278	1	81	n/a	n/a	1	0	0
549.8278	1	81	n/a	n/a	1	0	0
550.0278	1	81	n/a	n/a	1	0	0
550.228	1	81	n/a	n/a	1	0	0
550.428	1	81	n/a	n/a	1	0	0
550.628	1	81	n/a	n/a	1	0	0
550.8278	1	81	n/a	n/a	1	0	0
551.0278	1	81	n/a	n/a	1	0	0
552.1992	1	10	350.2	350.2	1	51	1
553.4158	1	10	269.6	269.6	1	51	2
554.5992	1	10	286.3	286.3	1	51	3
555.749	1	10	288.3	288.3	1	51	4
556.849	1	10	260.3	260.3	1	51	5
557.949	1	21	-99	-99	1	51	0
559.0822	1	10	235.1	235.1	1	51	1
560.1154	1	10	241.8	241.8	1	51	2
561.2654	1	10	243.9	243.9	1	51	3
562.4154	1	21	-99	-99	1	51	0
563.582	1	10	231.2	231.2	1	51	1
564.8818	1	10	275.3	275.3	1	51	2
566.1818	1	10	271.4	271.4	1	51	3
567.4816	1	21	-99	-99	1	51	0
568.5816	1	10	287.5	287.5	1	51	1
569.6816	1	21	275.4	275.4	1	51	0
570.8482	1	10	292.8	292.8	1	51	1
572.0148	1	21	-99	-99	1	51	0
573.0814	1	10	283.6	283.6	1	51	1
574.1312	1	10	241.7	241.7	1	51	2
575.1566	1	81	n/a	n/a	1	0	0
575.3566	1	81	n/a	n/a	1	0	0
575.5566	1	81	n/a	n/a	1	0	0
575.7566	1	81	n/a	n/a	1	0	0
575.9566	1	81	n/a	n/a	1	0	0
576.1568	1	81	n/a	n/a	1	0	0
576.3568	1	81	n/a	n/a	1	0	0
576.5566	1	81	n/a	n/a	1	0	0
576.7566	1	81	n/a	n/a	1	0	0
576.9566	1	81	n/a	n/a	1	0	0
578.2978	1	10	347.1	347.1	1	51	1
579.4976	1	10	235.2	235.2	1	51	2
580.5476	1	10	257.2	257.2	1	51	3
581.8142	1	10	270.6	270.6	1	51	4
582.9142	1	10	290.6	290.6	1	51	5
584.014	1	21	-99	-99	1	51	0
585.3306	1	10	290.1	290.1	1	51	1
586.5806	1	10	368.1	368.1	1	51	2
587.8304	1	10	270.2	270.2	1	51	3
589.147	1	10	313.5	313.5	1	51	4
590.297	1	10	315.6	315.6	1	51	5
591.447	1	21	-99	-99	1	51	0
592.6468	1	10	253.7	253.7	1	51	1
593.7802	1	10	240.4	240.4	1	51	2
595.0468	1	10	269.7	269.7	1	51	3
596.08	1	10	308.4	308.4	1	51	4
597.28	1	10	276.5	276.5	1	51	5
598.4798	1	21	-99	-99	1	51	0
599.6464	1	10	245.9	245.9	1	51	1
600.813	1	21	247.3	247.3	1	51	0
698.0924	1	82	n/a	n/a	1	0	0
698.1494	1	82	n/a	n/a	1	0	0
698.2854	1	82	n/a	n/a	1	0	0
698.5064	1	82	n/a	n/a	1	0	0
698.8834	1	82	n/a	n/a	1	0	0
699.0924	1	82	n/a	n/a	1	0	0
699.3634	1	82	n/a	n/a	1	0	0
699.7304	1	82	n/a	n/a	1	0	0
699.9184	1	82	n/a	n/a	1	0	0
699.9514	1	82	n/a	n/a	1	0	0
701.1738	1	10	364.3	364.3	1	52	1
702.4736	1	10	248.3	248.3	1	52	2
703.557	1	10	237	237	1	52	3
704.6402	1	21	241.7	241.7	1	52	0
705.7902	1	10	227.8	227.8	1	52	1
706.9234	1	10	278.5	278.5	1	52	2
708.09	1	10	231.9	231.9	1	52	3
709.24	1	10	249.9	249.9	1	52	4
710.3898	1	10	315.9	315.9	1	52	5
711.6898	1	10	264	264	1	52	6
712.9564	1	10	229.4	229.4	1	52	7
714.223	1	21	242.8	242.8	1	52	0
715.373	1	10	244.8	244.8	1	52	1
716.5396	1	10	262.2	262.2	1	52	2
717.6562	1	10	265.6	265.6	1	52	3
718.6894	1	10	272.3	272.3	1	52	4
719.8894	1	10	240.3	240.3	1	52	5
721.1226	1	10	335	335	1	52	6
722.3226	1	10	271	271	1	52	7
723.5224	1	21	-99	-99	1	52	0
724.5802	1	82	n/a	n/a	1	0	0
724.8152	1	82	n/a	n/a	1	0	0
725.0892	1	82	n/a	n/a	1	0	0
725.2942	1	82	n/a	n/a	1	0	0
725.3892	1	82	n/a	n/a	1	0	0
725.5802	1	82	n/a	n/a	1	0	0
725.9102	1	82	n/a	n/a	1	0	0
725.9762	1	82	n/a	n/a	1	0	0
726.2822	1	82	n/a	n/a	1	0	0
726.4222	1	82	n/a	n/a	1	0	0
727.6056	1	10	283.9	283.9	1	52	1
728.7888	1	10	236.6	236.6	1	52	2
729.9888	1	10	252.7	252.7	1	52	3
731.122	1	10	255.4	255.4	1	52	4
732.4052	1	10	252.1	252.1	1	52	5
733.5886	1	10	252.7	252.7	1	52	6
734.6718	1	10	289.5	289.5	1	52	7
735.755	1	21	-99	-99	1	52	0
736.9884	1	10	244.9	244.9	1	52	1
738.0382	1	10	235	235	1	52	2
739.0882	1	10	241.1	241.1	1	52	3
740.1382	1	21	279	279	1	52	0
741.4548	1	10	258.4	258.4	1	52	1
742.488	1	10	313.1	313.1	1	52	2
743.7212	1	10	247.8	247.8	1	52	3
744.8546	1	10	266.6	266.6	1	52	4
746.1044	1	10	328.5	328.5	1	52	5
747.3544	1	21	262.6	262.6	1	52	0
748.6376	1	10	291.3	291.3	1	52	1
749.9542	1	10	222.7	222.7	1	52	2
751.0026	1	82	n/a	n/a	1	0	0
751.1556	1	82	n/a	n/a	1	0	0
751.4266	1	82	n/a	n/a	1	0	0
751.6096	1	82	n/a	n/a	1	0	0
751.9616	1	82	n/a	n/a	1	0	0
752.0026	1	82	n/a	n/a	1	0	0
752.3606	1	82	n/a	n/a	1	0	0
752.4406	1	82	n/a	n/a	1	0	0
752.5916	1	82	n/a	n/a	1	0	0
752.9136	1	82	n/a	n/a	1	0	0
754.1206	1	10	280.2	280.2	1	52	1
755.2706	1	10	266.3	266.3	1	52	2
756.4372	1	10	219.6	219.6	1	52	3
757.587	1	10	301.7	301.7	1	52	4
758.687	1	10	257.8	257.8	1	52	5
759.787	1	21	-99	-99	1	52	0
760.9702	1	10	230.5	230.5	1	52	1
762.1534	1	21	279.2	279.2	1	52	0
763.2368	1	10	251.9	251.9	1	52	1
764.32	1	21	-99	-99	1	52	0
765.6366	1	10	219.9	219.9	1	52	1
766.9532	1	21	247.3	247.3	1	52	0
767.9864	1	10	302	302	1	52	1
769.0198	1	21	-99	-99	1	52	0
770.153	1	10	263.5	263.5	1	52	1
771.4696	1	10	354.8	354.8	1	52	2
772.7196	1	10	288.9	288.9	1	52	3
773.8362	1	10	324.3	324.3	1	52	4
774.986	1	10	310.3	310.3	1	52	5
776.136	1	21	-99	-99	1	52	0
776.9068	1	82	n/a	n/a	1	0	0
777.1738	1	82	n/a	n/a	1	0	0
777.5058	1	82	n/a	n/a	1	0	0
777.5598	1	82	n/a	n/a	1	0	0
777.6458	1	82	n/a	n/a	1	0	0
777.9068	1	82	n/a	n/a	1	0	0
778.1728	1	82	n/a	n/a	1	0	0
778.2728	1	82	n/a	n/a	1	0	0
778.3108	1	82	n/a	n/a	1	0	0
778.6688	1	82	n/a	n/a	1	0	0
780.119	1	10	297.2	297.2	1	52	1
781.2524	1	10	251.9	251.9	1	52	2
782.519	1	10	281.3	281.3	1	52	3
783.7856	1	21	-99	-99	1	52	0
784.8354	1	10	252.6	252.6	1	52	1
785.8854	1	21	-99	-99	1	52	0
787.1354	1	10	272.8	272.8	1	52	1
788.4352	1	10	332.8	332.8	1	52	2
789.7352	1	10	296.9	296.9	1	52	3
791.0352	1	21	-99	-99	1	52	0
792.0684	1	10	267.6	267.6	1	52	1
793.1016	1	21	-99	-99	1	52	0
794.2682	1	10	243.7	243.7	1	52	1
795.4516	1	10	276.4	276.4	1	52	2
796.4848	1	10	331.1	331.1	1	52	3
797.6514	1	10	300.4	300.4	1	52	4
798.768	1	10	319.8	319.8	1	52	5
800.0512	1	10	300.6	300.6	1	52	6
801.2512	1	10	316.6	316.6	1	52	7
802.451	1	21	-99	-99	1	52	0
803.4288	1	82	n/a	n/a	1	0	0
803.5978	1	82	n/a	n/a	1	0	0
803.9938	1	82	n/a	n/a	1	0	0
804.0378	1	82	n/a	n/a	1	0	0
804.3228	1	82	n/a	n/a	1	0	0
804.4288	1	82	n/a	n/a	1	0	0
804.7158	1	82	n/a	n/a	1	0	0
804.9618	1	82	n/a	n/a	1	0	0
805.3368	1	82	n/a	n/a	1	0	0
805.3818	1	82	n/a	n/a	1	0	0
806.6342	1	10	341.5	341.5	1	52	1
807.8008	1	10	438.9	438.9	1	52	2
808.8508	1	10	284.9	284.9	1	52	3
809.9006	1	21	-99	-99	1	52	0
811.2006	1	10	254.9	254.9	1	52	1
812.3006	1	10	259	259	1	52	2
813.6172	1	10	286.4	286.4	1	52	3
814.7004	1	10	307.1	307.1	1	52	4
815.7336	1	10	329.8	329.8	1	52	5
816.9336	1	10	281.8	281.8	1	52	6
818.0836	1	10	331.9	331.9	1	52	7
819.2334	1	21	-99	-99	1	52	0
820.5	1	10	267.3	267.3	1	52	1
821.7	1	10	267.3	267.3	1	52	2
822.7332	1	10	290	290	1	52	3
823.8498	1	10	309.4	309.4	1	52	4
824.8832	1	10	300.1	300.1	1	52	5
826.083	1	10	252.2	252.2	1	52	6
827.283	1	10	252.3	252.3	1	52	7
828.4828	1	21	-99	-99	1	52	0
838.462	1	81	n/a	n/a	1	0	0
838.662	1	81	n/a	n/a	1	0	0
838.862	1	81	n/a	n/a	1	0	0
839.062	1	81	n/a	n/a	1	0	0
839.262	1	81	n/a	n/a	1	0	0
839.462	1	81	n/a	n/a	1	0	0
839.662	1	81	n/a	n/a	1	0	0
839.862	1	81	n/a	n/a	1	0	0
840.062	1	81	n/a	n/a	1	0	0
840.262	1	81	n/a	n/a	1	0	0
841.5654	1	10	305.4	305.4	1	50	1
842.8988	1	10	188.1	188.1	1	50	2
844.132	1	10	234.8	234.8	1	50	3
845.2152	1	10	223.6	223.6	1	50	4
846.5318	1	10	331	331	1	50	5
847.5818	1	10	288.9	288.9	1	50	6
848.615	1	10	279.6	279.6	1	50	7
849.6484	1	21	302.4	302.4	1	50	0
850.9648	1	10	265.8	265.8	1	50	1
852.2814	1	21	-99	-99	1	50	0
853.448	1	10	262.6	262.6	1	50	1
854.5814	1	10	281.2	281.2	1	50	2
855.648	1	10	270.6	270.6	1	50	3
856.8312	1	10	255.3	255.3	1	50	4
858.1478	1	10	234.7	234.7	1	50	5
859.4644	1	21	-99	-99	1	50	0
860.5144	1	10	236.1	236.1	1	50	1
861.7142	1	10	252.1	252.1	1	50	2
862.9808	1	10	329.5	329.5	1	50	3
864.0474	1	10	270.9	270.9	1	50	4
865.0908	1	81	n/a	n/a	1	0	0
865.2908	1	81	n/a	n/a	1	0	0
865.4908	1	81	n/a	n/a	1	0	0
865.6908	1	81	n/a	n/a	1	0	0
865.8908	1	81	n/a	n/a	1	0	0
866.0908	1	81	n/a	n/a	1	0	0
866.2908	1	81	n/a	n/a	1	0	0
866.4908	1	81	n/a	n/a	1	0	0
866.6908	1	81	n/a	n/a	1	0	0
866.8908	1	81	n/a	n/a	1	0	0
868.2806	1	10	277.7	277.7	1	50	1
869.4138	1	10	264.4	264.4	1	50	2
870.597	1	10	267	267	1	50	3
871.7304	1	21	267.9	267.9	1	50	0
872.7802	1	10	257.8	257.8	1	50	1
873.8302	1	21	-99	-99	1	50	0
874.9134	1	10	284.6	284.6	1	50	1
876.0968	1	10	237.3	237.3	1	50	2
877.28	1	10	270.1	270.1	1	50	3
878.38	1	10	290.1	290.1	1	50	4
879.5466	1	10	259.4	259.4	1	50	5
880.7132	1	10	372.8	372.8	1	50	6
881.913	1	10	292.9	292.9	1	50	7
883.113	1	21	292.9	292.9	1	50	0
884.3962	1	10	401.7	401.7	1	50	1
885.7128	1	10	237	237	1	50	2
886.796	1	10	257.7	257.7	1	50	3
888.046	1	10	271.8	271.8	1	50	4
889.1292	1	10	276.5	276.5	1	50	5
890.2126	1	21	313.2	313.2	1	50	0
891.232	1	81	n/a	n/a	1	0	0
891.432	1	81	n/a	n/a	1	0	0
891.632	1	81	n/a	n/a	1	0	0
891.832	1	81	n/a	n/a	1	0	0
892.032	1	81	n/a	n/a	1	0	0
892.232	1	81	n/a	n/a	1	0	0
892.432	1	81	n/a	n/a	1	0	0
892.632	1	81	n/a	n/a	1	0	0
892.832	1	81	n/a	n/a	1	0	0
893.032	1	81	n/a	n/a	1	0	0
894.3956	1	10	242	242	1	50	1
895.629	1	10	288.7	288.7	1	50	2
896.9454	1	10	284.1	284.1	1	50	3
897.9954	1	10	258.1	258.1	1	50	4
899.262	1	10	255.5	255.5	1	50	5
900.362	1	10	291.5	291.5	1	50	6
901.6118	1	10	337.6	337.6	1	50	7
902.8618	1	21	271.7	271.7	1	50	0
904.0118	1	10	257.8	257.8	1	50	1
905.2784	1	10	127	127	1	50	2
906.5782	1	10	251.1	251.1	1	50	3
907.8782	1	21	263.2	263.2	1	50	0
908.9282	1	10	301.2	301.2	1	50	1
910.0114	1	10	290	290	1	50	2
911.3114	1	10	285.9	285.9	1	50	3
912.6112	1	21	-99	-99	1	50	0
913.6946	1	10	270.7	270.7	1	50	1
914.8944	1	10	238.8	238.8	1	50	2
916.1944	1	10	250.8	250.8	1	50	3
917.3942	1	10	266.8	266.8	1	50	4
918.2206	1	81	n/a	n/a	1	0	0
918.4206	1	81	n/a	n/a	1	0	0
918.6206	1	81	n/a	n/a	1	0	0
918.8206	1	81	n/a	n/a	1	0	0
919.0206	1	81	n/a	n/a	1	0	0
919.2206	1	81	n/a	n/a	1	0	0
919.4206	1	81	n/a	n/a	1	0	0
919.6206	1	81	n/a	n/a	1	0	0
919.8206	1	81	n/a	n/a	1	0	0
920.0206	1	81	n/a	n/a	1	0	0
921.144	1	10	341	341	1	50	1
922.3606	1	10	228.4	228.4	1	50	2
923.4272	1	10	281.7	281.7	1	50	3
924.4938	1	10	271.1	271.1	1	50	4
925.6604	1	10	256.5	256.5	1	50	5
926.8438	1	10	275	275	1	50	6
927.9604	1	10	324.6	324.6	1	50	7
929.1102	1	21	-99	-99	1	50	0
930.2602	1	10	264.6	264.6	1	50	1
931.5434	1	10	261.3	261.3	1	50	2
932.6768	1	10	248.1	248.1	1	50	3
933.7934	1	10	283.5	283.5	1	50	4
934.9266	1	10	334.2	334.2	1	50	5
936.1098	1	10	302.8	302.8	1	50	6
937.2932	1	10	271.5	271.5	1	50	7
938.4764	1	21	-99	-99	1	50	0
939.5764	1	10	244.3	244.3	1	50	1
940.6762	1	21	264.4	264.4	1	50	0
941.8428	1	10	217.7	217.7	1	50	1
943.0094	1	21	-99	-99	1	50	0
943.966	1	81	n/a	n/a	1	0	0
944.166	1	81	n/a	n/a	1	0	0
944.366	1	81	n/a	n/a	1	0	0
944.566	1	81	n/a	n/a	1	0	0
944.766	1	81	n/a	n/a	1	0	0
944.966	1	81	n/a	n/a	1	0	0
945.166	1	81	n/a	n/a	1	0	0
945.366	1	81	n/a	n/a	1	0	0
945.566	1	81	n/a	n/a	1	0	0
945.766	1	81	n/a	n/a	1	0	0
947.1426	1	10	438	438	1	50	1
948.3758	1	10	262.5	262.5	1	50	2
949.3758	1	10	252.6	252.6	1	50	3
950.4256	1	10	274.7	274.7	1	50	4
951.6422	1	10	242.1	242.1	1	50	5
952.8588	1	21	-99	-99	1	50	0
953.8922	1	10	232.2	232.2	1	50	1
955.142	1	10	342.2	342.2	1	50	2
956.2754	1	10	296.9	296.9	1	50	3
957.4752	1	10	281	281	1	50	4
958.6752	1	10	281	281	1	50	5
959.8418	1	10	314.4	314.4	1	50	6
961.1584	1	10	293.7	293.7	1	50	7
962.475	1	21	-99	-99	1	50	0
963.6582	1	10	305.9	305.9	1	50	1
964.7414	1	10	246.6	246.6	1	50	2
965.8248	1	10	251.3	251.3	1	50	3
966.908	1	21	-99	-99	1	50	0
968.1246	1	10	239.3	239.3	1	50	1
969.3412	1	10	238.7	238.7	1	50	2
994.3268	1	81	n/a	n/a	1	0	0
994.5268	1	81	n/a	n/a	1	0	0
994.7268	1	81	n/a	n/a	1	0	0
994.9268	1	81	n/a	n/a	1	0	0
995.1268	1	81	n/a	n/a	1	0	0
995.3268	1	81	n/a	n/a	1	0	0
995.5268	1	81	n/a	n/a	1	0	0
995.7268	1	81	n/a	n/a	1	0	0
995.9268	1	81	n/a	n/a	1	0	0
996.1268	1	81	n/a	n/a	1	0	0
997.4396	1	10	283.8	283.8	1	51	1
998.6562	1	21	235.2	235.2	1	51	0
999.806	1	10	253.2	253.2	1	51	1
1000.8894	1	10	289.9	289.9	1	51	2
1001.9226	1	10	280.6	280.6	1	51	3
1003.0392	1	10	268	268	1	51	4
1004.2058	1	10	253.4	253.4	1	51	5
1005.3724	1	10	398.7	398.7	1	51	6
1006.5224	1	10	288.7	288.7	1	51	7
1007.6722	1	21	-99	-99	1	51	0
1008.7722	1	10	246.8	246.8	1	51	1
1009.9222	1	10	248.9	248.9	1	51	2
1011.022	1	10	253	253	1	51	3
1012.122	1	21	272.9	272.9	1	51	0
1013.2052	1	10	231.4	231.4	1	51	1
1014.2386	1	10	284.4	284.4	1	51	2
1015.5552	1	10	263.8	263.8	1	51	3
1016.6718	1	10	251.2	251.2	1	51	4
1017.9216	1	10	217.1	217.1	1	51	5
1019.155	1	10	311.9	311.9	1	51	6
1020.0454	1	81	n/a	n/a	1	0	0
1020.2454	1	81	n/a	n/a	1	0	0
1020.4454	1	81	n/a	n/a	1	0	0
1020.6454	1	81	n/a	n/a	1	0	0
1020.8454	1	81	n/a	n/a	1	0	0
1021.0454	1	81	n/a	n/a	1	0	0
1021.2454	1	81	n/a	n/a	1	0	0
1021.4454	1	81	n/a	n/a	1	0	0
1021.6454	1	81	n/a	n/a	1	0	0
1021.8454	1	81	n/a	n/a	1	0	0
1022.9714	1	10	319.4	319.4	1	51	1
1024.088	1	10	274.8	274.8	1	51	2
1025.1546	1	10	280.1	280.1	1	51	3
1026.2212	1	21	-99	-99	1	51	0
1027.4044	1	10	78.2	78.2	1	51	1
1028.5876	1	21	-99	-99	1	51	0
1029.821	1	10	221.7	221.7	1	51	1
1030.9542	1	10	240.3	240.3	1	51	2
1032.0374	1	10	261	261	1	51	3
1033.2874	1	10	275.1	275.1	1	51	4
1034.5874	1	10	271.1	271.1	1	51	5
1035.8872	1	21	-99	-99	1	51	0
1037.1206	1	10	73.9	73.9	1	51	1
1038.3704	1	10	231.9	231.9	1	51	2
1039.6538	1	10	244.6	244.6	1	51	3
1040.8536	1	10	212.7	212.7	1	51	4
1042.1036	1	10	290.8	290.8	1	51	5
1043.4368	1	10	269.4	269.4	1	51	6
1044.52	1	10	242.1	242.1	1	51	7
1045.6034	1	21	-99	-99	1	51	0
1046.349	1	81	n/a	n/a	1	0	0
1046.549	1	81	n/a	n/a	1	0	0
1046.749	1	81	n/a	n/a	1	0	0
1046.949	1	81	n/a	n/a	1	0	0
1047.149	1	81	n/a	n/a	1	0	0
1047.349	1	81	n/a	n/a	1	0	0
1047.549	1	81	n/a	n/a	1	0	0
1047.749	1	81	n/a	n/a	1	0	0
1047.949	1	81	n/a	n/a	1	0	0
1048.149	1	81	n/a	n/a	1	0	0
1049.3364	1	10	273.7	273.7	1	51	1
1050.403	1	10	183	183	1	51	2
1051.5364	1	10	105.7	105.7	1	51	3
1052.7862	1	10	231.8	231.8	1	51	4
1054.0028	1	10	247.2	247.2	1	51	5
1055.2194	1	21	230.6	230.6	1	51	0
1056.3194	1	10	234.5	234.5	1	51	1
1057.4526	1	10	221.3	221.3	1	51	2
1058.6192	1	10	222.7	222.7	1	51	3
1059.7858	1	21	256.1	256.1	1	51	0
1060.9024	1	10	259.4	259.4	1	51	1
1061.9524	1	10	265.4	265.4	1	51	2
1063.2522	1	10	293.5	293.5	1	51	3
1064.469	1	10	372.9	372.9	1	51	4
1065.7688	1	10	368.9	368.9	1	51	5
1067.0688	1	21	-99	-99	1	51	0
1068.352	1	10	201.7	201.7	1	51	1
1069.552	1	10	265.7	265.7	1	51	2
1070.8186	1	10	279.1	279.1	1	51	3
1072.0518	1	10	293.8	293.8	1	51	4
1072.7962	1	81	n/a	n/a	1	0	0
1072.9962	1	81	n/a	n/a	1	0	0
1073.1962	1	81	n/a	n/a	1	0	0
1073.3962	1	81	n/a	n/a	1	0	0
1073.5962	1	81	n/a	n/a	1	0	0
1073.7962	1	81	n/a	n/a	1	0	0
1073.9962	1	81	n/a	n/a	1	0	0
1074.1962	1	81	n/a	n/a	1	0	0
1074.3962	1	81	n/a	n/a	1	0	0
1074.5962	1	81	n/a	n/a	1	0	0
1075.8348	1	10	318.6	318.6	1	51	1
1076.9182	1	10	259.3	259.3	1	51	2
1078.118	1	10	227.4	227.4	1	51	3
1079.218	1	10	263.4	263.4	1	51	4
1080.368	1	10	233.5	233.5	1	51	5
1081.4178	1	10	287.5	287.5	1	51	6
1082.7344	1	10	330.9	330.9	1	51	7
1084.051	1	21	278.3	278.3	1	51	0
1085.0844	1	10	317	317	1	51	1
1086.301	1	10	268.4	268.4	1	51	2
1087.5842	1	10	249	249	1	51	3
1088.7174	1	10	267.7	267.7	1	51	4
1089.934	1	10	267.1	267.1	1	51	5
1091.1506	1	21	-99	-99	1	51	0
1092.3506	1	10	250.6	250.6	1	51	1
1093.6504	1	10	246.7	246.7	1	51	2
1094.7172	1	10	267.9	267.9	1	51	3
1095.7838	1	21	-99	-99	1	51	0
1096.8336	1	10	247.4	247.4	1	51	1
1098.0836	1	10	229.5	229.5	1	51	2
1099.036	1	81	n/a	n/a	1	0	0
1099.236	1	81	n/a	n/a	1	0	0
1099.436	1	81	n/a	n/a	1	0	0
1099.636	1	81	n/a	n/a	1	0	0
1099.836	1	81	n/a	n/a	1	0	0
1100.036	1	81	n/a	n/a	1	0	0
1100.236	1	81	n/a	n/a	1	0	0
1100.436	1	81	n/a	n/a	1	0	0
1100.636	1	81	n/a	n/a	1	0	0
1100.836	1	81	n/a	n/a	1	0	0
1102.1334	1	10	307.6	307.6	1	51	1
1103.3332	1	21	243.6	243.6	1	51	0
1104.5332	1	10	227.7	227.7	1	51	1
1105.5998	1	10	281.1	281.1	1	51	2
1106.8998	1	10	261.1	261.1	1	51	3
1107.9496	1	10	299.1	299.1	1	51	4
1109.1662	1	10	346.5	346.5	1	51	5
1110.2828	1	10	333.9	333.9	1	51	6
1111.4994	1	10	349.3	349.3	1	51	7
1112.716	1	21	-99	-99	1	51	0
1113.9326	1	10	268	268	1	51	1
1115.1492	1	21	283.4	283.4	1	51	0
1116.2992	1	10	269.4	269.4	1	51	1
1117.5658	1	10	266.8	266.8	1	51	2
1118.8156	1	10	264.9	264.9	1	51	3
1120.0656	1	21	-99	-99	1	51	0
1121.3822	1	10	242.3	242.3	1	51	1
1122.5154	1	10	309	309	1	51	2
1123.8154	1	10	273.1	273.1	1	51	3
1125.0654	1	10	287.1	287.1	1	51	4
1235.2398	1	82	n/a	n/a	1	0	0
1235.5908	1	82	n/a	n/a	1	0	0
1235.6158	1	82	n/a	n/a	1	0	0
1235.9068	1	82	n/a	n/a	1	0	0
1236.0328	1	82	n/a	n/a	1	0	0
1236.2398	1	82	n/a	n/a	1	0	0
1236.4138	1	82	n/a	n/a	1	0	0
1236.4918	1	82	n/a	n/a	1	0	0
1236.7448	1	82	n/a	n/a	1	0	0
1237.0208	1	82	n/a	n/a	1	0	0
1238.2938	1	10	446.5	446.5	1	52	1
1239.5938	1	10	250.5	250.5	1	52	2
1240.727	1	10	237.2	237.2	1	52	3
1241.8602	1	21	239.9	239.9	1	52	0
1242.9936	1	10	194.7	194.7	1	52	1
1244.2768	1	10	79.4	79.4	1	52	2
1245.4434	1	10	208.7	208.7	1	52	3
1246.71	1	10	238.1	238.1	1	52	4
1247.7932	1	10	322.8	322.8	1	52	5
1248.8766	1	21	-99	-99	1	52	0
1250.0598	1	10	216.2	216.2	1	52	1
1251.243	1	21	233	233	1	52	0
1252.4596	1	10	248.3	248.3	1	52	1
1253.6428	1	10	265	265	1	52	2
1254.8094	1	10	314.4	314.4	1	52	3
1255.9594	1	10	284.5	284.5	1	52	4
1257.1426	1	10	317.2	317.2	1	52	5
1258.326	1	21	253.8	253.8	1	52	0
1259.5092	1	10	270.6	270.6	1	52	1
1260.6924	1	10	271.3	271.3	1	52	2
1261.551	1	82	n/a	n/a	1	0	0
1261.839	1	82	n/a	n/a	1	0	0
1261.965	1	82	n/a	n/a	1	0	0
1262.12	1	82	n/a	n/a	1	0	0
1262.356	1	82	n/a	n/a	1	0	0
1262.551	1	82	n/a	n/a	1	0	0
1262.671	1	82	n/a	n/a	1	0	0
1262.708	1	82	n/a	n/a	1	0	0
1262.927	1	82	n/a	n/a	1	0	0
1263.183	1	82	n/a	n/a	1	0	0
1264.5256	1	10	310.1	310.1	1	52	1
1265.8256	1	10	306.1	306.1	1	52	2
1267.0922	1	10	287.5	287.5	1	52	3
1268.2088	1	10	322.9	322.9	1	52	4
1269.4752	1	10	256.3	256.3	1	52	5
1270.7418	1	21	-99	-99	1	52	0
1272.0084	1	10	235	235	1	52	1
1273.275	1	21	264.4	264.4	1	52	0
1274.4584	1	10	313.1	313.1	1	52	1
1275.6082	1	10	283.2	283.2	1	52	2
1276.6582	1	10	321.2	321.2	1	52	3
1277.8414	1	10	257.9	257.9	1	52	4
1278.9414	1	10	437.9	437.9	1	52	5
1280.0414	1	21	-99	-99	1	52	0
1281.208	1	10	299.4	299.4	1	52	1
1282.3246	1	10	238.8	238.8	1	52	2
1283.5244	1	10	270.7	270.7	1	52	3
1284.8244	1	10	250.8	250.8	1	52	4
1285.8744	1	10	288.9	288.9	1	52	5
1286.9242	1	21	-99	-99	1	52	0
1288.011	1	82	n/a	n/a	1	0	0
1288.105	1	82	n/a	n/a	1	0	0
1288.243	1	82	n/a	n/a	1	0	0
1288.667	1	82	n/a	n/a	1	0	0
1288.698	1	82	n/a	n/a	1	0	0
1289.011	1	82	n/a	n/a	1	0	0
1289.085	1	82	n/a	n/a	1	0	0
1289.242	1	82	n/a	n/a	1	0	0
1289.651	1	82	n/a	n/a	1	0	0
1289.974	1	82	n/a	n/a	1	0	0
1290.974	1	10	261	261	1	52	1
1292.0406	1	21	250.4	250.4	1	52	0
1293.1738	1	10	237.2	237.2	1	52	1
1294.2072	1	10	259.9	259.9	1	52	2
1295.3904	1	10	244.6	244.6	1	52	3
1296.707	1	10	255.9	255.9	1	52	4
1297.757	1	10	294	294	1	52	5
1299.0568	1	10	242	242	1	52	6
1300.1234	1	10	263.4	263.4	1	52	7
1301.19	1	21	-99	-99	1	52	0
1302.3066	1	10	272.1	272.1	1	52	1
1303.44	1	10	258.8	258.8	1	52	2
1304.6398	1	10	226.9	226.9	1	52	3
1305.8398	1	21	243	243	1	52	0
1306.923	1	10	279.7	279.7	1	52	1
1308.1396	1	10	247.1	247.1	1	52	2
1309.423	1	10	339.7	339.7	1	52	3
1310.7062	1	21	256.4	256.4	1	52	0
1311.7728	1	10	229.8	229.8	1	52	1
1312.8394	1	21	283.2	283.2	1	52	0
1313.6778	1	82	n/a	n/a	1	0	0
1314.0158	1	82	n/a	n/a	1	0	0
1314.0578	1	82	n/a	n/a	1	0	0
1314.1638	1	82	n/a	n/a	1	0	0
1314.4308	1	82	n/a	n/a	1	0	0
1314.6778	1	82	n/a	n/a	1	0	0
1314.8458	1	82	n/a	n/a	1	0	0
1314.9088	1	82	n/a	n/a	1	0	0
1315.1728	1	82	n/a	n/a	1	0	0
1315.2138	1	82	n/a	n/a	1	0	0
1316.6224	1	10	292	292	1	52	1
1317.7724	1	10	278	278	1	52	2
1319.0056	1	10	308.8	308.8	1	52	3
1320.089	1	10	281.5	281.5	1	52	4
1321.3056	1	10	265	265	1	52	5
1322.4054	1	10	316.8	316.8	1	52	6
1323.6554	1	10	458.9	458.9	1	52	7
1324.9054	1	21	-99	-99	1	52	0
1326.0386	1	10	235.7	235.7	1	52	1
1327.1718	1	21	270.3	270.3	1	52	0
1328.4384	1	10	251.7	251.7	1	52	1
1329.5718	1	10	302.5	302.5	1	52	2
1330.8384	1	10	363.9	363.9	1	52	3
1332.005	1	10	349.3	349.3	1	52	4
1333.2048	1	10	269.2	269.2	1	52	5
1334.4048	1	21	-99	-99	1	52	0
1335.638	1	10	252	252	1	52	1
1336.788	1	10	270.1	270.1	1	52	2
1337.9212	1	10	272.8	272.8	1	52	3
1339.0546	1	21	-99	-99	1	52	0
1340.0632	1	82	n/a	n/a	1	0	0
1340.3852	1	82	n/a	n/a	1	0	0
1340.4602	1	82	n/a	n/a	1	0	0
1340.5082	1	82	n/a	n/a	1	0	0
1340.9212	1	82	n/a	n/a	1	0	0
1341.0632	1	82	n/a	n/a	1	0	0
1341.3542	1	82	n/a	n/a	1	0	0
1341.5822	1	82	n/a	n/a	1	0	0
1341.6712	1	82	n/a	n/a	1	0	0
1342.0012	1	82	n/a	n/a	1	0	0
1343.0542	1	10	291.6	291.6	1	52	1
1344.1542	1	21	279.7	279.7	1	52	0
1345.4042	1	10	245.8	245.8	1	52	1
1346.5208	1	10	297.1	297.1	1	52	2
1347.8206	1	10	325.1	325.1	1	52	3
1348.9372	1	10	280.5	280.5	1	52	4
1350.0706	1	10	315.2	315.2	1	52	5
1351.2038	1	21	-99	-99	1	52	0
1352.3538	1	10	240	240	1	52	1
1353.5036	1	21	-99	-99	1	52	0
1354.7202	1	10	225.4	225.4	1	52	1
1355.8702	1	10	227.4	227.4	1	52	2
1357.0368	1	10	244.8	244.8	1	52	3
1358.2034	1	21	262.2	262.2	1	52	0
1359.27	1	10	219.5	219.5	1	52	1
1360.5032	1	10	266.2	266.2	1	52	2
1361.5864	1	10	335	335	1	52	3
1362.6698	1	21	-99	-99	1	52	0
1363.903	1	10	258.4	258.4	1	52	1
1365.1196	1	10	273.7	273.7	1	52	2
1387.385	1	82	n/a	n/a	1	0	0
1387.814	1	82	n/a	n/a	1	0	0
1387.922	1	82	n/a	n/a	1	0	0
1388.08	1	82	n/a	n/a	1	0	0
1388.127	1	82	n/a	n/a	1	0	0
1388.385	1	82	n/a	n/a	1	0	0
1388.474	1	82	n/a	n/a	1	0	0
1388.536	1	82	n/a	n/a	1	0	0
1388.964	1	82	n/a	n/a	1	0	0
1389.247	1	82	n/a	n/a	1	0	0
1390.4848	1	10	284	284	1	50	1
1391.6848	1	21	-99	-99	1	50	0
1392.9346	1	10	234.1	234.1	1	50	1
1394.1346	1	10	266.2	266.2	1	50	2
1395.3844	1	10	264.2	264.2	1	50	3
1396.551	1	10	297.5	297.5	1	50	4
1397.7176	1	10	266.9	266.9	1	50	5
1398.8676	1	10	285	285	1	50	6
1399.9842	1	10	272.4	272.4	1	50	7
1401.1008	1	21	-99	-99	1	50	0
1402.3174	1	10	195.2	195.2	1	50	1
1403.5006	1	10	275.8	275.8	1	50	2
1404.6672	1	10	245.2	245.2	1	50	3
1405.8338	1	10	278.6	278.6	1	50	4
1407.0004	1	10	264	264	1	50	5
1408.167	1	21	297.4	297.4	1	50	0
1409.2336	1	10	254.7	254.7	1	50	1
1410.5002	1	10	316.1	316.1	1	50	2
1411.7002	1	10	300.1	300.1	1	50	3
1412.9002	1	10	316.2	316.2	1	50	4
1413.8476	1	82	n/a	n/a	1	0	0
1413.9486	1	82	n/a	n/a	1	0	0
1414.3576	1	82	n/a	n/a	1	0	0
1414.6986	1	82	n/a	n/a	1	0	0
1414.7636	1	82	n/a	n/a	1	0	0
1414.8476	1	82	n/a	n/a	1	0	0
1415.0076	1	82	n/a	n/a	1	0	0
1415.4176	1	82	n/a	n/a	1	0	0
1415.4376	1	82	n/a	n/a	1	0	0
1415.6606	1	82	n/a	n/a	1	0	0
1416.7832	1	10	273	273	1	50	1
1417.8332	1	21	-99	-99	1	50	0
1418.9998	1	10	232.4	232.4	1	50	1
1420.033	1	10	271.1	271.1	1	50	2
1421.233	1	10	271.1	271.1	1	50	3
1422.283	1	10	293.1	293.1	1	50	4
1423.3496	1	10	362.5	362.5	1	50	5
1424.3994	1	10	304.6	304.6	1	50	6
1425.4828	1	10	293.3	293.3	1	50	7
1426.566	1	21	-99	-99	1	50	0
1427.6492	1	10	254.7	254.7	1	50	1
1428.7326	1	21	-99	-99	1	50	0
1429.8492	1	10	214.8	214.8	1	50	1
1430.8824	1	10	237.5	237.5	1	50	2
1432.1824	1	10	249.6	249.6	1	50	3
1433.4156	1	10	232.3	232.3	1	50	4
1434.6322	1	10	279.6	279.6	1	50	5
1435.8488	1	10	327	327	1	50	6
1437.032	1	10	295.7	295.7	1	50	7
1438.2152	1	21	264.4	264.4	1	50	0
1438.9696	1	82	n/a	n/a	1	0	0
1439.1426	1	82	n/a	n/a	1	0	0
1439.2756	1	82	n/a	n/a	1	0	0
1439.6126	1	82	n/a	n/a	1	0	0
1439.9206	1	82	n/a	n/a	1	0	0
1439.9696	1	82	n/a	n/a	1	0	0
1440.1986	1	82	n/a	n/a	1	0	0
1440.2416	1	82	n/a	n/a	1	0	0
1440.5926	1	82	n/a	n/a	1	0	0
1440.6906	1	82	n/a	n/a	1	0	0
1442.165	1	10	266.5	266.5	1	50	1
1443.215	1	10	336.6	336.6	1	50	2
1444.3482	1	10	291.3	291.3	1	50	3
1445.4816	1	21	-99	-99	1	50	0
1446.6648	1	10	246.8	246.8	1	50	1
1447.9648	1	10	178.8	178.8	1	50	2
1448.998	1	10	265.5	265.5	1	50	3
1450.0312	1	21	-99	-99	1	50	0
1451.0812	1	10	246.2	246.2	1	50	1
1452.3144	1	10	261	261	1	50	2
1453.3644	1	10	251	251	1	50	3
1454.6476	1	10	247.7	247.7	1	50	4
1455.681	1	10	302.4	302.4	1	50	5
1456.7142	1	21	-99	-99	1	50	0
1457.8808	1	10	230.5	230.5	1	50	1
1458.9308	1	10	252.6	252.6	1	50	2
1460.214	1	10	265.2	265.2	1	50	3
1461.3306	1	10	252.6	252.6	1	50	4
1462.5806	1	10	266.6	266.6	1	50	5
1463.8304	1	21	-99	-99	1	50	0
1464.6822	1	82	n/a	n/a	1	0	0
1465.0802	1	82	n/a	n/a	1	0	0
1465.2432	1	82	n/a	n/a	1	0	0
1465.3372	1	82	n/a	n/a	1	0	0
1465.5682	1	82	n/a	n/a	1	0	0
1465.6822	1	82	n/a	n/a	1	0	0
1465.8102	1	82	n/a	n/a	1	0	0
1466.1882	1	82	n/a	n/a	1	0	0
1466.3572	1	82	n/a	n/a	1	0	0
1466.5902	1	82	n/a	n/a	1	0	0
1467.6968	1	10	270.1	270.1	1	50	1
1468.7468	1	10	212.2	212.2	1	50	2
1469.83	1	10	248.9	248.9	1	50	3
1470.88	1	10	319	319	1	50	4
1472.0632	1	10	255.7	255.7	1	50	5
1473.2466	1	21	-99	-99	1	50	0
1474.4964	1	10	110.4	110.4	1	50	1
1475.7464	1	21	252.5	252.5	1	50	0
1477.0796	1	10	247.2	247.2	1	50	1
1478.1962	1	10	282.6	282.6	1	50	2
1479.3962	1	10	282.6	282.6	1	50	3
1480.6462	1	10	280.6	280.6	1	50	4
1481.6794	1	10	271.3	271.3	1	50	5
1482.7626	1	10	292.1	292.1	1	50	6
1483.8626	1	10	296.1	296.1	1	50	7
1484.9626	1	21	-99	-99	1	50	0
1486.0292	1	10	241.5	241.5	1	50	1
1487.0958	1	21	262.9	262.9	1	50	0
1488.2956	1	10	230.9	230.9	1	50	1
1489.4956	1	21	231	231	1	50	0
1490.509	1	82	n/a	n/a	1	0	0
1490.766	1	82	n/a	n/a	1	0	0
1490.847	1	82	n/a	n/a	1	0	0
1491.035	1	82	n/a	n/a	1	0	0
1491.202	1	82	n/a	n/a	1	0	0
1491.509	1	82	n/a	n/a	1	0	0
1491.611	1	82	n/a	n/a	1	0	0
1491.932	1	82	n/a	n/a	1	0	0
1492.119	1	82	n/a	n/a	1	0	0
1492.189	1	82	n/a	n/a	1	0	0
1493.4786	1	10	631.8	631.8	1	50	1
1494.6452	1	10	281.2	281.2	1	50	2
1495.9118	1	10	246.6	246.6	1	50	3
1497.1784	1	21	-99	-99	1	50	0
1498.3618	1	10	244.6	244.6	1	50	1
1499.4616	1	10	264.6	264.6	1	50	2
1500.745	1	10	277.4	277.4	1	50	3
1501.7948	1	10	315.4	315.4	1	50	4
1503.0448	1	10	265.5	265.5	1	50	5
1504.2948	1	21	-99	-99	1	50	0
1505.578	1	10	228.2	228.2	1	50	1
1506.8612	1	21	-99	-99	1	50	0
1508.1612	1	10	157	157	1	50	1
1509.311	1	10	255	255	1	50	2
1510.561	1	10	237	237	1	50	3
1511.811	1	21	235.1	235.1	1	50	0
1512.9276	1	10	270.5	270.5	1	50	1
1514.0774	1	10	304.5	304.5	1	50	2
1515.294	1	10	287.9	287.9	1	50	3
1516.594	1	10	267.9	267.9	1	50	4
1544.3218	1	81	n/a	n/a	1	0	0
1544.5218	1	81	n/a	n/a	1	0	0
1544.7218	1	81	n/a	n/a	1	0	0
1544.9218	1	81	n/a	n/a	1	0	0
1545.1218	1	81	n/a	n/a	1	0	0
1545.3218	1	81	n/a	n/a	1	0	0
1545.5218	1	81	n/a	n/a	1	0	0
1545.7218	1	81	n/a	n/a	1	0	0
1545.9218	1	81	n/a	n/a	1	0	0
1546.1218	1	81	n/a	n/a	1	0	0
1547.2588	1	10	290.4	290.4	1	51	1
1548.292	1	10	249.1	249.1	1	51	2
1549.4754	1	10	233.8	233.8	1	51	3
1550.7086	1	10	248.5	248.5	1	51	4
1552.0418	1	10	277	277	1	51	5
1553.2918	1	10	275.2	275.2	1	51	6
1554.4918	1	10	241.3	241.3	1	51	7
1555.725	1	21	-99	-99	1	51	0
1556.9082	1	10	256.7	256.7	1	51	1
1557.9748	1	10	262.1	262.1	1	51	2
1559.1082	1	10	248.9	248.9	1	51	3
1560.1748	1	10	270.2	270.2	1	51	4
1561.4746	1	10	314.2	314.2	1	51	5
1562.558	1	10	302.9	302.9	1	51	6
1563.6912	1	10	273.7	273.7	1	51	7
1564.8244	1	21	-99	-99	1	51	0
1565.991	1	10	197.8	197.8	1	51	1
1567.1576	1	21	183.2	183.2	1	51	0
1568.391	1	10	213.8	213.8	1	51	1
1569.6074	1	10	261.2	261.2	1	51	2
1570.5708	1	81	n/a	n/a	1	0	0
1570.7708	1	81	n/a	n/a	1	0	0
1570.9708	1	81	n/a	n/a	1	0	0
1571.1708	1	81	n/a	n/a	1	0	0
1571.3708	1	81	n/a	n/a	1	0	0
1571.5708	1	81	n/a	n/a	1	0	0
1571.7708	1	81	n/a	n/a	1	0	0
1571.9708	1	81	n/a	n/a	1	0	0
1572.1708	1	81	n/a	n/a	1	0	0
1572.3708	1	81	n/a	n/a	1	0	0
1573.5906	1	10	278	278	1	51	1
1574.9072	1	10	241.4	241.4	1	51	2
1576.0072	1	10	261.4	261.4	1	51	3
1577.1738	1	10	278.8	278.8	1	51	4
1578.2904	1	10	234.2	234.2	1	51	5
1579.407	1	21	285.6	285.6	1	51	0
1580.5402	1	10	224.2	224.2	1	51	1
1581.7734	1	10	271	271	1	51	2
1582.9734	1	10	335	335	1	51	3
1584.14	1	10	304.4	304.4	1	51	4
1585.2566	1	10	323.8	323.8	1	51	5
1586.5064	1	10	321.8	321.8	1	51	6
1587.6232	1	10	309.2	309.2	1	51	7
1588.7396	1	21	-99	-99	1	51	0
1590.023	1	10	229.3	229.3	1	51	1
1591.1062	1	10	250	250	1	51	2
1592.2062	1	10	286.1	286.1	1	51	3
1593.506	1	10	314.1	314.1	1	51	4
1594.656	1	10	300.1	300.1	1	51	5
1595.7726	1	10	287.5	287.5	1	51	6
1596.728	1	81	n/a	n/a	1	0	0
1596.928	1	81	n/a	n/a	1	0	0
1597.128	1	81	n/a	n/a	1	0	0
1597.328	1	81	n/a	n/a	1	0	0
1597.528	1	81	n/a	n/a	1	0	0
1597.728	1	81	n/a	n/a	1	0	0
1597.928	1	81	n/a	n/a	1	0	0
1598.128	1	81	n/a	n/a	1	0	0
1598.328	1	81	n/a	n/a	1	0	0
1598.528	1	81	n/a	n/a	1	0	0
1599.7224	1	10	321.6	321.6	1	51	1
1600.8556	1	10	228.3	228.3	1	51	2
1602.0556	1	10	196.4	196.4	1	51	3
1603.2556	1	21	-99	-99	1	51	0
1604.2888	1	10	251.2	251.2	1	51	1
1605.322	1	21	273.8	273.8	1	51	0
1606.5886	1	10	255.2	255.2	1	51	1
1607.8886	1	10	267.3	267.3	1	51	2
1609.1884	1	10	295.3	295.3	1	51	3
1610.4884	1	21	-99	-99	1	51	0
1611.7216	1	10	226.1	226.1	1	51	1
1613.0382	1	10	269.5	269.5	1	51	2
1614.3216	1	10	250.2	250.2	1	51	3
1615.3548	1	10	304.9	304.9	1	51	4
1616.6548	1	10	189	189	1	51	5
1617.9546	1	21	-99	-99	1	51	0
1619.1546	1	10	233	233	1	51	1
1620.3044	1	10	251.1	251.1	1	51	2
1621.4878	1	10	283.8	283.8	1	51	3
1622.771	1	10	280.5	280.5	1	51	4
1623.7154	1	81	n/a	n/a	1	0	0
1623.9154	1	81	n/a	n/a	1	0	0
1624.1154	1	81	n/a	n/a	1	0	0
1624.3154	1	81	n/a	n/a	1	0	0
1624.5154	1	81	n/a	n/a	1	0	0
1624.7154	1	81	n/a	n/a	1	0	0
1624.9154	1	81	n/a	n/a	1	0	0
1625.1154	1	81	n/a	n/a	1	0	0
1625.3154	1	81	n/a	n/a	1	0	0
1625.5154	1	81	n/a	n/a	1	0	0
1626.7874	1	10	312	312	1	51	1
1628.0706	1	10	260.7	260.7	1	51	2
1629.204	1	10	263.4	263.4	1	51	3
1630.5038	1	10	259.4	259.4	1	51	4
1631.7704	1	10	288.8	288.8	1	51	5
1632.9204	1	10	290.9	290.9	1	51	6
1634.087	1	10	260.2	260.2	1	51	7
1635.2536	1	21	-99	-99	1	51	0
1636.3868	1	10	296.4	296.4	1	51	1
1637.5368	1	21	-99	-99	1	51	0
1638.82	1	10	215.1	215.1	1	51	1
1640.1034	1	21	-99	-99	1	51	0
1641.17	1	10	281.2	281.2	1	51	1
1642.2366	1	21	-99	-99	1	51	0
1643.2864	1	10	276.5	276.5	1	51	1
1644.3364	1	21	-99	-99	1	51	0
1645.653	1	10	246	246	1	51	1
1646.753	1	10	362	362	1	51	2
1647.8696	1	10	285.4	285.4	1	51	3
1649.1028	1	10	236.2	236.2	1	51	4
1650.0122	1	81	n/a	n/a	1	0	0
1650.2122	1	81	n/a	n/a	1	0	0
1650.4122	1	81	n/a	n/a	1	0	0
1650.6122	1	81	n/a	n/a	1	0	0
1650.8122	1	81	n/a	n/a	1	0	0
1651.0122	1	81	n/a	n/a	1	0	0
1651.2122	1	81	n/a	n/a	1	0	0
1651.4122	1	81	n/a	n/a	1	0	0
1651.6122	1	81	n/a	n/a	1	0	0
1651.8122	1	81	n/a	n/a	1	0	0
1653.0026	1	10	320.3	320.3	1	51	1
1654.1024	1	21	-99	-99	1	51	0
1655.3524	1	10	194.4	194.4	1	51	1
1656.3856	1	10	377	377	1	51	2
1657.6522	1	10	246.4	246.4	1	51	3
1658.8356	1	10	247.1	247.1	1	51	4
1659.9188	1	10	251.9	251.9	1	51	5
1661.102	1	10	172.6	172.6	1	51	6
1662.302	1	10	316.6	316.6	1	51	7
1663.502	1	21	-99	-99	1	51	0
1664.5852	1	10	241.3	241.3	1	51	1
1665.6184	1	10	248.1	248.1	1	51	2
1666.8518	1	10	246.8	246.8	1	51	3
1668.1184	1	10	228.2	228.2	1	51	4
1669.3516	1	10	274.8	274.8	1	51	5
1670.4016	1	10	280.9	280.9	1	51	6
1671.4514	1	10	254.9	254.9	1	51	7
1672.5014	1	21	-99	-99	1	51	0
1673.7514	1	10	211.1	211.1	1	51	1
1674.868	1	10	230.3	230.3	1	51	2
1747.0864	1	82	n/a	n/a	1	0	0
1747.2194	1	82	n/a	n/a	1	0	0
1747.3174	1	82	n/a	n/a	1	0	0
1747.6134	1	82	n/a	n/a	1	0	0
1747.6764	1	82	n/a	n/a	1	0	0
1748.0864	1	82	n/a	n/a	1	0	0
1748.1884	1	82	n/a	n/a	1	0	0
1748.3264	1	82	n/a	n/a	1	0	0
1748.6964	1	82	n/a	n/a	1	0	0
1748.7334	1	82	n/a	n/a	1	0	0
1750.0134	1	10	315.2	315.2	1	52	1
1751.0468	1	21	305.8	305.8	1	52	0
1752.1634	1	10	181.2	181.2	1	52	1
1753.28	1	21	280.6	280.6	1	52	0
1754.5466	1	10	214	214	1	52	1
1755.7632	1	10	261.4	261.4	1	52	2
1757.0464	1	10	242	242	1	52	3
1758.3464	1	10	30.1	30.1	1	52	4
1759.613	1	10	235.5	235.5	1	52	5
1760.8462	1	10	250.2	250.2	1	52	6
1761.9128	1	10	287.6	287.6	1	52	7
1762.9794	1	21	-99	-99	1	52	0
1764.296	1	10	144.3	144.3	1	52	1
1765.6126	1	21	283.7	283.7	1	52	0
1766.7124	1	10	303.8	303.8	1	52	1
1767.779	1	10	341.1	341.1	1	52	2
1768.8624	1	10	345.9	345.9	1	52	3
1769.9456	1	21	-99	-99	1	52	0
1771.2288	1	10	251.2	251.2	1	52	1
1772.2622	1	10	289.9	289.9	1	52	2
1773.1426	1	82	n/a	n/a	1	0	0
1773.4946	1	82	n/a	n/a	1	0	0
1773.6266	1	82	n/a	n/a	1	0	0
1773.8106	1	82	n/a	n/a	1	0	0
1773.8736	1	82	n/a	n/a	1	0	0
1774.1426	1	82	n/a	n/a	1	0	0
1774.5776	1	82	n/a	n/a	1	0	0
1774.6696	1	82	n/a	n/a	1	0	0
1774.8856	1	82	n/a	n/a	1	0	0
1774.9436	1	82	n/a	n/a	1	0	0
1776.312	1	10	320.1	320.1	1	52	1
1777.5118	1	10	288.1	288.1	1	52	2
1778.7118	1	10	288.2	288.2	1	52	3
1779.745	1	10	342.9	342.9	1	52	4
1780.945	1	10	311	311	1	52	5
1782.1448	1	21	-99	-99	1	52	0
1783.3448	1	10	263	263	1	52	1
1784.5448	1	21	-99	-99	1	52	0
1785.7114	1	10	248.4	248.4	1	52	1
1786.9112	1	10	248.5	248.5	1	52	2
1788.0778	1	10	281.9	281.9	1	52	3
1789.1278	1	10	255.9	255.9	1	52	4
1790.3444	1	10	287.3	287.3	1	52	5
1791.561	1	21	286.7	286.7	1	52	0
1792.7942	1	10	221.4	221.4	1	52	1
1794.0276	1	21	-99	-99	1	52	0
1795.1108	1	10	224.7	224.7	1	52	1
1796.4108	1	10	236.8	236.8	1	52	2
1797.6274	1	10	316.2	316.2	1	52	3
1798.7106	1	10	304.9	304.9	1	52	4
1799.502	1	82	n/a	n/a	1	0	0
1799.617	1	82	n/a	n/a	1	0	0
1799.783	1	82	n/a	n/a	1	0	0
1800.118	1	82	n/a	n/a	1	0	0
1800.385	1	82	n/a	n/a	1	0	0
1800.502	1	82	n/a	n/a	1	0	0
1800.527	1	82	n/a	n/a	1	0	0
1800.854	1	82	n/a	n/a	1	0	0
1800.951	1	82	n/a	n/a	1	0	0
1801.218	1	82	n/a	n/a	1	0	0
1802.577	1	10	278.4	278.4	1	52	1
1803.7602	1	21	279.1	279.1	1	52	0
1804.9102	1	10	265.2	265.2	1	52	1
1806.1934	1	10	245.9	245.9	1	52	2
1807.2768	1	10	282.5	282.5	1	52	3
1808.36	1	21	-99	-99	1	52	0
1809.46	1	10	243.3	243.3	1	52	1
1810.5266	1	10	248.7	248.7	1	52	2
1811.6264	1	10	284.7	284.7	1	52	3
1812.8264	1	10	252.8	252.8	1	52	4
1813.9596	1	10	271.4	271.4	1	52	5
1815.093	1	21	-99	-99	1	52	0
1816.1262	1	10	248.9	248.9	1	52	1
1817.1594	1	21	271.6	271.6	1	52	0
1818.326	1	10	241	241	1	52	1
1819.4926	1	10	258.4	258.4	1	52	2
1820.776	1	10	271	271	1	52	3
1821.9592	1	10	255.7	255.7	1	52	4
1823.2592	1	10	283.8	283.8	1	52	5
1824.559	1	21	279.9	279.9	1	52	0
1825.4384	1	82	n/a	n/a	1	0	0
1825.4654	1	82	n/a	n/a	1	0	0
1825.7574	1	82	n/a	n/a	1	0	0
1825.8964	1	82	n/a	n/a	1	0	0
1826.2594	1	82	n/a	n/a	1	0	0
1826.4384	1	82	n/a	n/a	1	0	0
1826.6784	1	82	n/a	n/a	1	0	0
1826.9814	1	82	n/a	n/a	1	0	0
1827.0844	1	82	n/a	n/a	1	0	0
1827.1494	1	82	n/a	n/a	1	0	0
1828.6254	1	10	293.3	293.3	1	52	1
1829.9254	1	21	273.4	273.4	1	52	0
1831.2254	1	10	253.5	253.5	1	52	1
1832.2586	1	10	292.2	292.2	1	52	2
1833.5586	1	10	256.1	256.1	1	52	3
1834.8584	1	21	268.2	268.2	1	52	0
1836.0416	1	10	221	221	1	52	1
1837.075	1	10	275.7	275.7	1	52	2
1838.2916	1	10	227.1	227.1	1	52	3
1839.5582	1	10	336.4	336.4	1	52	4
1840.7748	1	10	239.8	239.8	1	52	5
1841.9914	1	21	-99	-99	1	52	0
1843.2246	1	10	205.9	205.9	1	52	1
1844.4578	1	21	-99	-99	1	52	0
1845.5578	1	10	240.6	240.6	1	52	1
1846.6578	1	21	-99	-99	1	52	0
1847.8244	1	10	246	246	1	52	1
1848.991	1	21	-99	-99	1	52	0
1850.0408	1	10	253.5	253.5	1	52	1
1851.1742	1	10	336.2	336.2	1	52	2
1852.2686	1	82	n/a	n/a	1	0	0
1852.2926	1	82	n/a	n/a	1	0	0
1852.6286	1	82	n/a	n/a	1	0	0
1852.7656	1	82	n/a	n/a	1	0	0
1852.8616	1	82	n/a	n/a	1	0	0
1853.2686	1	82	n/a	n/a	1	0	0
1853.5196	1	82	n/a	n/a	1	0	0
1853.6796	1	82	n/a	n/a	1	0	0
1853.8736	1	82	n/a	n/a	1	0	0
1854.1576	1	82	n/a	n/a	1	0	0
1855.2238	1	10	318.3	318.3	1	52	1
1856.4572	1	10	429.1	429.1	1	52	2
1857.6238	1	10	286.4	286.4	1	52	3
1858.8904	1	10	235.7	235.7	1	52	4
1859.9402	1	10	273.8	273.8	1	52	5
1861.1902	1	10	271.9	271.9	1	52	6
1862.4402	1	10	301.9	301.9	1	52	7
1863.69	1	21	236	236	1	52	0
1864.7566	1	10	241.3	241.3	1	52	1
1865.8232	1	10	326.7	326.7	1	52	2
1866.8898	1	10	300.1	300.1	1	52	3
1868.1898	1	10	408.1	408.1	1	52	4
1869.3564	1	10	313.5	313.5	1	52	5
1870.523	1	21	-99	-99	1	52	0
1871.6396	1	10	254.2	254.2	1	52	1
1872.7562	1	21	273.6	273.6	1	52	0
1874.0228	1	10	239	239	1	52	1
1875.206	1	10	383.7	383.7	1	52	2
1876.4894	1	10	300.5	300.5	1	52	3
1877.6226	1	10	303.1	303.1	1	52	4
1887.388	1	82	n/a	n/a	1	0	0
1887.655	1	82	n/a	n/a	1	0	0
1887.763	1	82	n/a	n/a	1	0	0
1887.937	1	82	n/a	n/a	1	0	0
1888.255	1	82	n/a	n/a	1	0	0
1888.3882	1	82	n/a	n/a	1	0	0
1888.6422	1	82	n/a	n/a	1	0	0
1888.9712	1	82	n/a	n/a	1	0	0
1889.165	1	82	n/a	n/a	1	0	0
1889.308	1	82	n/a	n/a	1	0	0
1890.3718	1	10	257.6	257.6	1	50	1
1891.405	1	10	296.3	296.3	1	50	2
1892.455	1	10	318.3	318.3	1	50	3
1893.7716	1	10	281.7	281.7	1	50	4
1894.8216	1	10	303.8	303.8	1	50	5
1896.1048	1	10	300.4	300.4	1	50	6
1897.3214	1	10	283.8	283.8	1	50	7
1898.538	1	21	-99	-99	1	50	0
1899.6546	1	10	254.6	254.6	1	50	1
1900.8378	1	10	287.3	287.3	1	50	2
1902.1212	1	10	300	300	1	50	3
1903.421	1	10	296	296	1	50	4
1904.571	1	10	298.1	298.1	1	50	5
1905.7208	1	21	-99	-99	1	50	0
1906.9374	1	10	219.6	219.6	1	50	1
1908.104	1	10	269	269	1	50	2
1909.2874	1	10	269.6	269.6	1	50	3
1910.4372	1	10	319.6	319.6	1	50	4
1911.6538	1	10	271	271	1	50	5
1912.9372	1	10	251.8	251.8	1	50	6
1913.8056	1	82	n/a	n/a	1	0	0
1914.2256	1	82	n/a	n/a	1	0	0
1914.3566	1	82	n/a	n/a	1	0	0
1914.5116	1	82	n/a	n/a	1	0	0
1914.7436	1	82	n/a	n/a	1	0	0
1914.8056	1	82	n/a	n/a	1	0	0
1914.9306	1	82	n/a	n/a	1	0	0
1915.1026	1	82	n/a	n/a	1	0	0
1915.4396	1	82	n/a	n/a	1	0	0
1915.4776	1	82	n/a	n/a	1	0	0
1916.987	1	10	297.9	297.9	1	50	1
1918.2702	1	21	-99	-99	1	50	0
1919.4534	1	10	247.3	247.3	1	50	1
1920.6366	1	21	-99	-99	1	50	0
1921.7366	1	10	284	284	1	50	1
1922.7866	1	10	306.1	306.1	1	50	2
1923.8532	1	10	279.5	279.5	1	50	3
1924.9198	1	21	-99	-99	1	50	0
1925.953	1	10	275.6	275.6	1	50	1
1927.0364	1	10	248.2	248.2	1	50	2
1928.1862	1	10	266.4	266.4	1	50	3
1929.4862	1	10	278.3	278.3	1	50	4
1930.5694	1	10	283.1	283.1	1	50	5
1931.6526	1	21	-99	-99	1	50	0
1932.7526	1	10	227.8	227.8	1	50	1
1933.8526	1	21	-99	-99	1	50	0
1934.9692	1	10	251.2	251.2	1	50	1
1936.169	1	10	283.3	283.3	1	50	2
1937.2024	1	10	290	290	1	50	3
1938.2356	1	21	-99	-99	1	50	0
1939.0654	1	82	n/a	n/a	1	0	0
1939.4044	1	82	n/a	n/a	1	0	0
1939.6604	1	82	n/a	n/a	1	0	0
1939.8774	1	82	n/a	n/a	1	0	0
1939.9544	1	82	n/a	n/a	1	0	0
1940.0654	1	82	n/a	n/a	1	0	0
1940.4194	1	82	n/a	n/a	1	0	0
1940.8274	1	82	n/a	n/a	1	0	0
1940.9104	1	82	n/a	n/a	1	0	0
1940.9464	1	82	n/a	n/a	1	0	0
1942.2354	1	10	296.8	296.8	1	50	1
1943.3854	1	10	234.9	234.9	1	50	2
1944.4186	1	10	305.6	305.6	1	50	3
1945.4518	1	10	312.3	312.3	1	50	4
1946.6852	1	10	294.9	294.9	1	50	5
1947.9184	1	21	-99	-99	1	50	0
1949.0184	1	10	297.7	297.7	1	50	1
1950.0682	1	10	303.8	303.8	1	50	2
1951.3182	1	10	269.8	269.8	1	50	3
1952.4014	1	10	324.4	324.4	1	50	4
1953.6848	1	10	383.2	383.2	1	50	5
1955.0014	1	21	378.6	378.6	1	50	0
1956.1012	1	10	222.7	222.7	1	50	1
1957.2512	1	10	352.7	352.7	1	50	2
1958.4512	1	10	320.8	320.8	1	50	3
1959.651	1	21	-99	-99	1	50	0
1960.851	1	10	256.8	256.8	1	50	1
1961.8842	1	10	311.5	311.5	1	50	2
1963.0008	1	10	330.9	330.9	1	50	3
1964.1674	1	10	348.3	348.3	1	50	4
1964.9448	1	82	n/a	n/a	1	0	0
1965.2318	1	82	n/a	n/a	1	0	0
1965.5888	1	82	n/a	n/a	1	0	0
1965.7058	1	82	n/a	n/a	1	0	0
1965.7708	1	82	n/a	n/a	1	0	0
1965.9448	1	82	n/a	n/a	1	0	0
1966.1688	1	82	n/a	n/a	1	0	0
1966.2788	1	82	n/a	n/a	1	0	0
1966.3328	1	82	n/a	n/a	1	0	0
1966.6898	1	82	n/a	n/a	1	0	0
1968.0172	1	10	274.4	274.4	1	50	1
1969.2004	1	21	259.2	259.2	1	50	0
1970.267	1	10	248.5	248.5	1	50	1
1971.4504	1	10	265.2	265.2	1	50	2
1972.6502	1	10	329.2	329.2	1	50	3
1973.8502	1	10	281.3	281.3	1	50	4
1974.9002	1	10	271.3	271.3	1	50	5
1976.0668	1	10	320.7	320.7	1	50	6
1977.1666	1	10	324.8	324.8	1	50	7
1978.2666	1	21	-99	-99	1	50	0
1979.2998	1	10	255.5	255.5	1	50	1
1980.3664	1	10	260.9	260.9	1	50	2
1981.4664	1	10	312.9	312.9	1	50	3
1982.4996	1	10	255.6	255.6	1	50	4
1983.7162	1	10	350.9	350.9	1	50	5
1984.9328	1	21	-99	-99	1	50	0
1986.0994	1	10	255.7	255.7	1	50	1
1987.266	1	21	-99	-99	1	50	0
1988.5326	1	10	110.5	110.5	1	50	1
1989.6992	1	10	319.9	319.9	1	50	2
1990.4286	1	82	n/a	n/a	1	0	0
1990.8136	1	82	n/a	n/a	1	0	0
1991.0666	1	82	n/a	n/a	1	0	0
1991.1846	1	82	n/a	n/a	1	0	0
1991.2816	1	82	n/a	n/a	1	0	0
1991.4286	1	82	n/a	n/a	1	0	0
1991.5906	1	82	n/a	n/a	1	0	0
1991.8736	1	82	n/a	n/a	1	0	0
1991.9576	1	82	n/a	n/a	1	0	0
1992.3556	1	82	n/a	n/a	1	0	0
1993.4824	1	10	296.7	296.7	1	50	1
1994.749	1	10	374.1	374.1	1	50	2
1995.9322	1	10	294.8	294.8	1	50	3
1997.0654	1	10	281.4	281.4	1	50	4
1998.3654	1	10	293.5	293.5	1	50	5
1999.6654	1	21	-99	-99	1	50	0
2000.732	1	10	263	263	1	50	1
2001.8652	1	10	281.7	281.7	1	50	2
2003.0984	1	10	232.4	232.4	1	50	3
2004.3984	1	10	292.4	292.4	1	50	4
2005.4484	1	10	250.4	250.4	1	50	5
2006.4982	1	21	-99	-99	1	50	0
2007.6148	1	10	243.9	243.9	1	50	1
2008.7314	1	21	279.3	279.3	1	50	0
2009.9314	1	10	151.3	151.3	1	50	1
2011.098	1	10	296.6	296.6	1	50	2
2012.3146	1	10	248	248	1	50	3
2013.5312	1	21	247.4	247.4	1	50	0
2014.7978	1	10	52.8	52.8	1	50	1
2015.9476	1	10	310.9	310.9	1	50	2
2034.731	1	81	n/a	n/a	1	0	0
2034.931	1	81	n/a	n/a	1	0	0
2035.131	1	81	n/a	n/a	1	0	0
2035.331	1	81	n/a	n/a	1	0	0
2035.531	1	81	n/a	n/a	1	0	0
2035.731	1	81	n/a	n/a	1	0	0
2035.931	1	81	n/a	n/a	1	0	0
2036.131	1	81	n/a	n/a	1	0	0
2036.331	1	81	n/a	n/a	1	0	0
2036.531	1	81	n/a	n/a	1	0	0
2037.813	1	10	269	269	1	51	1
2039.063	1	10	315	315	1	51	2
2040.1462	1	10	271.8	271.8	1	51	3
2041.2296	1	21	244.4	244.4	1	51	0
2042.3628	1	10	151.1	151.1	1	51	1
2043.496	1	21	-99	-99	1	51	0
2044.7794	1	10	70.6	70.6	1	51	1
2045.946	1	10	248	248	1	51	2
2047.0458	1	10	284	284	1	51	3
2048.1292	1	10	304.6	304.6	1	51	4
2049.1958	1	10	326	326	1	51	5
2050.2624	1	21	-99	-99	1	51	0
2051.529	1	10	200.8	200.8	1	51	1
2052.7622	1	10	215.6	215.6	1	51	2
2053.8454	1	10	268.2	268.2	1	51	3
2054.8954	1	10	242.2	242.2	1	51	4
2056.162	1	10	303.6	303.6	1	51	5
2057.4286	1	21	-99	-99	1	51	0
2058.7118	1	10	105.8	105.8	1	51	1
2059.745	1	10	224.5	224.5	1	51	2
2060.6536	1	81	n/a	n/a	1	0	0
2060.8536	1	81	n/a	n/a	1	0	0
2061.0534	1	81	n/a	n/a	1	0	0
2061.2534	1	81	n/a	n/a	1	0	0
2061.4534	1	81	n/a	n/a	1	0	0
2061.6536	1	81	n/a	n/a	1	0	0
2061.8536	1	81	n/a	n/a	1	0	0
2062.0536	1	81	n/a	n/a	1	0	0
2062.2536	1	81	n/a	n/a	1	0	0
2062.4536	1	81	n/a	n/a	1	0	0
2063.7948	1	10	254.6	254.6	1	51	1
2065.0448	1	21	-99	-99	1	51	0
2066.0948	1	10	274.6	274.6	1	51	1
2067.178	1	10	279.3	279.3	1	51	2
2068.428	1	10	245.4	245.4	1	51	3
2069.6612	1	10	292.1	292.1	1	51	4
2070.8612	1	10	228.2	228.2	1	51	5
2072.061	1	21	-99	-99	1	51	0
2073.211	1	10	214.2	214.2	1	51	1
2074.3608	1	21	232.3	232.3	1	51	0
2075.5442	1	10	137	137	1	51	1
2076.594	1	10	351.1	351.1	1	51	2
2077.8106	1	10	286.5	286.5	1	51	3
2079.0272	1	21	-99	-99	1	51	0
2080.3106	1	10	218.5	218.5	1	51	1
2081.4438	1	10	303	303	1	51	2
2082.4604	1	10	292.6	292.6	1	51	3
2083.677	1	10	260	260	1	51	4
2084.827	1	10	278	278	1	51	5
2085.9102	1	10	282.7	282.7	1	51	6
2086.8396	1	81	n/a	n/a	1	0	0
2087.0396	1	81	n/a	n/a	1	0	0
2087.2396	1	81	n/a	n/a	1	0	0
2087.4396	1	81	n/a	n/a	1	0	0
2087.6396	1	81	n/a	n/a	1	0	0
2087.8396	1	81	n/a	n/a	1	0	0
2088.0396	1	81	n/a	n/a	1	0	0
2088.2396	1	81	n/a	n/a	1	0	0
2088.4396	1	81	n/a	n/a	1	0	0
2088.6396	1	81	n/a	n/a	1	0	0
2089.9434	1	10	313.6	313.6	1	51	1
2091.2598	1	10	437	437	1	51	2
2092.4764	1	10	244.3	244.3	1	51	3
2093.693	1	10	307.7	307.7	1	51	4
2094.743	1	10	297.7	297.7	1	51	5
2095.793	1	21	-99	-99	1	51	0
2096.8928	1	10	243.8	243.8	1	51	1
2098.0094	1	10	311.1	311.1	1	51	2
2099.176	1	10	296.5	296.5	1	51	3
2100.2094	1	10	303.2	303.2	1	51	4
2101.2426	1	10	294	294	1	51	5
2102.276	1	10	284.7	284.7	1	51	6
2103.4592	1	10	317.4	317.4	1	51	7
2104.6424	1	21	-99	-99	1	51	0
2105.909	1	10	59.4	59.4	1	51	1
2107.1922	1	10	280.2	280.2	1	51	2
2108.4088	1	10	279.6	279.6	1	51	3
2109.4922	1	10	300.3	300.3	1	51	4
2110.7254	1	10	299	299	1	51	5
2111.9586	1	21	-99	-99	1	51	0
2113.0584	1	81	n/a	n/a	1	0	0
2113.2584	1	81	n/a	n/a	1	0	0
2113.4584	1	81	n/a	n/a	1	0	0
2113.6584	1	81	n/a	n/a	1	0	0
2113.8584	1	81	n/a	n/a	1	0	0
2114.059	1	81	n/a	n/a	1	0	0
2114.259	1	81	n/a	n/a	1	0	0
2114.459	1	81	n/a	n/a	1	0	0
2114.659	1	81	n/a	n/a	1	0	0
2114.859	1	81	n/a	n/a	1	0	0
2116.1918	1	10	288.5	288.5	1	51	1
2117.5084	1	10	235.8	235.8	1	51	2
2118.6916	1	10	300.6	300.6	1	51	3
2119.9748	1	10	249.3	249.3	1	51	4
2121.0914	1	10	268.7	268.7	1	51	5
2122.208	1	21	-99	-99	1	51	0
2123.458	1	10	78.2	78.2	1	51	1
2124.4912	1	10	324.8	324.8	1	51	2
2125.7412	1	10	194.8	194.8	1	51	3
2126.8412	1	10	262.9	262.9	1	51	4
2128.141	1	10	307	307	1	51	5
2129.191	1	10	264.9	264.9	1	51	6
2130.4076	1	10	312.3	312.3	1	51	7
2131.6242	1	21	-99	-99	1	51	0
2132.7574	1	10	250.4	250.4	1	51	1
2133.8906	1	10	381.2	381.2	1	51	2
2134.924	1	10	275.9	275.9	1	51	3
2136.1572	1	10	258.5	258.5	1	51	4
2137.4072	1	10	240.6	240.6	1	51	5
2138.657	1	21	302.7	302.7	1	51	0
2139.3954	1	81	n/a	n/a	1	0	0
2139.5954	1	81	n/a	n/a	1	0	0
2139.7954	1	81	n/a	n/a	1	0	0
2139.9954	1	81	n/a	n/a	1	0	0
2140.1954	1	81	n/a	n/a	1	0	0
2140.3954	1	81	n/a	n/a	1	0	0
2140.5954	1	81	n/a	n/a	1	0	0
2140.7954	1	81	n/a	n/a	1	0	0
2140.9954	1	81	n/a	n/a	1	0	0
2141.1954	1	81	n/a	n/a	1	0	0
2142.5568	1	10	306.8	306.8	1	51	1
2143.84	1	10	287.5	287.5	1	51	2
2145.1566	1	10	106.9	106.9	1	51	3
2146.4732	1	21	-99	-99	1	51	0
2147.5566	1	10	299	299	1	51	1
2148.6232	1	10	288.4	288.4	1	51	2
2149.8064	1	10	274.8	274.8	1	51	3
2150.9564	1	21	-99	-99	1	51	0
2151.9896	1	10	265.8	265.8	1	51	1
2153.2396	1	10	263.9	263.9	1	51	2
2154.4894	1	10	245.9	245.9	1	51	3
2155.7394	1	21	-99	-99	1	51	0
2156.9394	1	10	244	244	1	51	1
2157.9892	1	10	266	266	1	51	2
2159.2058	1	10	393.4	393.4	1	51	3
2160.3892	1	10	314.2	314.2	1	51	4
2161.639	1	10	264.1	264.1	1	51	5
2162.889	1	21	-99	-99	1	51	0
2164.089	1	10	246.2	246.2	1	51	1
2165.2554	1	10	327.6	327.6	1	51	2
