onset	duration	value	response	rt	good	TMS	delta	fixed	seq
57.4756	1	81	n/a	n/a	1	0	0	0	0
57.6756	1	81	n/a	n/a	1	0	0	0	0
57.8756	1	81	n/a	n/a	1	0	0	0	0
58.0756	1	81	n/a	n/a	1	0	0	0	0
58.2756	1	81	n/a	n/a	1	0	0	0	0
58.4756	1	81	n/a	n/a	1	0	0	0	0
58.6756	1	81	n/a	n/a	1	0	0	0	0
58.8756	1	81	n/a	n/a	1	0	0	0	0
59.0756	1	81	n/a	n/a	1	0	0	0	0
59.2756	1	81	n/a	n/a	1	0	0	0	0
60.6492	1	10	n/a	n/a	1	51	0	0	1
61.9324	1	21	n/a	n/a	1	51	0	0	0
63.0324	1	10	n/a	n/a	1	51	0	0	1
64.349	1	10	n/a	n/a	1	51	0	0	2
65.5988	1	10	n/a	n/a	1	51	-0.1	0	3
66.6656	1	10	n/a	n/a	1	51	0.2	0	4
67.7488	1	10	n/a	n/a	1	51	-0.1	0	5
68.8654	1	10	n/a	n/a	1	51	0	0	6
70.0654	1	10	n/a	n/a	1	51	0.1	0	7
71.2652	1	21	n/a	n/a	1	51	-0.1	0	0
72.3484	1	10	n/a	n/a	1	51	-0.1	0	1
73.4318	1	21	n/a	n/a	1	51	0.1	0	0
74.515	1	10	n/a	n/a	1	51	0	0	1
75.6816	1	10	n/a	n/a	1	51	0	0	2
76.9316	1	10	n/a	n/a	1	51	0	0	3
78.1482	1	10	n/a	n/a	1	51	0	0	4
79.3814	1	10	n/a	n/a	1	51	0	0	5
80.698	1	10	n/a	n/a	1	51	0	0	6
81.9812	1	10	n/a	n/a	1	51	-0.1	0	7
83.2646	1	21	n/a	n/a	1	51	0.2	0	0
90.402	1	81	n/a	n/a	1	0	-0.1	0	0
90.602	1	81	n/a	n/a	1	0	0	0	0
90.802	1	81	n/a	n/a	1	0	0	0	0
91.002	1	81	n/a	n/a	1	0	0	0	0
91.202	1	81	n/a	n/a	1	0	0	0	0
91.402	1	81	n/a	n/a	1	0	0	0	0
91.602	1	81	n/a	n/a	1	0	0	0	0
91.802	1	81	n/a	n/a	1	0	0	0	0
92.002	1	81	n/a	n/a	1	0	0	0	0
92.202	1	81	n/a	n/a	1	0	0	0	0
93.564	1	10	n/a	n/a	1	51	0.1	0	1
94.7306	1	10	n/a	n/a	1	51	0	0	2
95.9972	1	10	n/a	n/a	1	51	-1.4552e-11	0	3
97.2638	1	21	n/a	n/a	1	51	1.4552e-11	0	0
98.497	1	10	n/a	n/a	1	51	-0.1	0	1
99.7302	1	21	n/a	n/a	1	51	0	0	0
100.8302	1	10	n/a	n/a	1	51	0	0	1
101.8968	1	10	n/a	n/a	1	51	0	0	2
103.0634	1	10	n/a	n/a	1	51	-1.4552e-11	0	3
104.1132	1	10	n/a	n/a	1	51	-0.1	0	4
105.2466	1	10	n/a	n/a	1	51	0.1	0	5
106.3798	1	21	n/a	n/a	1	51	-0.1	0	0
107.4298	1	10	n/a	n/a	1	51	0.1	0	1
108.4798	1	21	n/a	n/a	1	51	0.1	0	0
109.6296	1	10	n/a	n/a	1	51	-0.2	0	1
110.7296	1	10	n/a	n/a	1	51	0.1	0	2
111.8128	1	10	n/a	n/a	1	51	-0.1	0	3
112.9462	1	10	n/a	n/a	1	51	0.2	0	4
114.196	1	10	n/a	n/a	1	51	-0.2	0	5
115.446	1	21	n/a	n/a	1	51	0.1	0	0
121.8426	1	81	n/a	n/a	1	0	-0.1	0	0
122.0426	1	81	n/a	n/a	1	0	0	0	0
122.2426	1	81	n/a	n/a	1	0	0	0	0
122.4426	1	81	n/a	n/a	1	0	0	0	0
122.6426	1	81	n/a	n/a	1	0	0	0	0
122.8426	1	81	n/a	n/a	1	0	0	0	0
123.0426	1	81	n/a	n/a	1	0	-1.4552e-11	0	0
123.2426	1	81	n/a	n/a	1	0	0	0	0
123.4426	1	81	n/a	n/a	1	0	0	0	0
123.6426	1	81	n/a	n/a	1	0	0	0	0
124.762	1	10	n/a	n/a	1	51	0	0	1
125.7954	1	21	n/a	n/a	1	51	0.1	0	0
126.8786	1	10	n/a	n/a	1	51	-0.1	0	1
128.1952	1	10	n/a	n/a	1	51	-1.4552e-11	0	2
129.2452	1	10	n/a	n/a	1	51	0.1	0	3
130.3784	1	10	n/a	n/a	1	51	-0.1	0	4
131.645	1	10	n/a	n/a	1	51	0	0	5
132.8782	1	10	n/a	n/a	1	51	0	0	6
134.1616	1	10	n/a	n/a	1	51	0.1	0	7
135.4448	1	21	n/a	n/a	1	51	-2.9104e-11	0	0
136.7614	1	10	n/a	n/a	1	51	0	0	1
137.978	1	10	n/a	n/a	1	51	2.9104e-11	0	2
139.078	1	10	n/a	n/a	1	51	0	0	3
140.2946	1	10	n/a	n/a	1	51	0	0	4
141.5444	1	10	n/a	n/a	1	51	-0.1	0	5
142.7944	1	21	n/a	n/a	1	51	0.1	0	0
144.0776	1	10	n/a	n/a	1	51	-0.1	0	1
145.3276	1	10	n/a	n/a	1	51	0.1	0	2
146.6274	1	10	n/a	n/a	1	51	-0.1	0	3
147.9274	1	21	n/a	n/a	1	51	0	0	0
154.778	1	81	n/a	n/a	1	0	0	0	0
154.978	1	81	n/a	n/a	1	0	0	0	0
155.178	1	81	n/a	n/a	1	0	0	0	0
155.378	1	81	n/a	n/a	1	0	0	0	0
155.578	1	81	n/a	n/a	1	0	0	0	0
155.778	1	81	n/a	n/a	1	0	-0.1	0	0
155.978	1	81	n/a	n/a	1	0	0	0	0
156.178	1	81	n/a	n/a	1	0	0	0	0
156.378	1	81	n/a	n/a	1	0	0	0	0
156.578	1	81	n/a	n/a	1	0	0	0	0
157.7268	1	10	n/a	n/a	1	51	0.1	0	1
158.7768	1	21	n/a	n/a	1	51	0.1	0	0
159.86	1	10	n/a	n/a	1	51	-0.1	0	1
161.0266	1	10	n/a	n/a	1	51	0	0	2
162.2932	1	10	n/a	n/a	1	51	0	0	3
163.5264	1	10	n/a	n/a	1	51	-0.1	0	4
164.6764	1	10	n/a	n/a	1	51	0.1	0	5
165.993	1	10	n/a	n/a	1	51	2.9104e-11	0	6
167.1262	1	10	n/a	n/a	1	51	0	0	7
168.2596	1	21	n/a	n/a	1	51	0.1	0	0
169.5094	1	10	n/a	n/a	1	51	-0.1	0	1
170.5428	1	10	n/a	n/a	1	51	0.1	0	2
171.776	1	10	n/a	n/a	1	51	-0.1	0	3
172.876	1	10	n/a	n/a	1	51	0.1	0	4
173.9258	1	10	n/a	n/a	1	51	-0.2	0	5
174.9592	1	10	n/a	n/a	1	51	0.2	0	6
176.1258	1	10	n/a	n/a	1	51	-2.9104e-11	0	7
177.2924	1	21	n/a	n/a	1	51	0	0	0
178.5256	1	10	n/a	n/a	1	51	-0.1	0	1
179.6422	1	10	n/a	n/a	1	51	0	0	2
189.0716	1	81	n/a	n/a	1	0	0	0	0
189.2716	1	81	n/a	n/a	1	0	0	0	0
189.4716	1	81	n/a	n/a	1	0	0	0	0
189.6716	1	81	n/a	n/a	1	0	0	0	0
189.8716	1	81	n/a	n/a	1	0	0	0	0
190.0716	1	81	n/a	n/a	1	0	0	0	0
190.2716	1	81	n/a	n/a	1	0	0	0	0
190.4716	1	81	n/a	n/a	1	0	0	0	0
190.6716	1	81	n/a	n/a	1	0	0	0	0
190.8716	1	81	n/a	n/a	1	0	0	0	0
192.1914	1	10	n/a	n/a	1	51	-0.1	0	1
193.3248	1	10	n/a	n/a	1	51	0.2	0	2
194.5746	1	10	n/a	n/a	1	51	-0.2	0	3
195.8246	1	21	n/a	n/a	1	51	0.1	0	0
197.0578	1	10	n/a	n/a	1	51	-2.9104e-11	0	1
198.2078	1	10	n/a	n/a	1	51	0	0	2
199.4744	1	10	n/a	n/a	1	51	0	0	3
200.5742	1	10	n/a	n/a	1	51	-0.1	0	4
201.6242	1	10	n/a	n/a	1	51	0.1	0	5
202.6742	1	21	n/a	n/a	1	51	0	0	0
203.7408	1	10	n/a	n/a	1	51	-2.9104e-11	0	1
204.8074	1	10	n/a	n/a	1	51	0	0	2
206.0572	1	10	n/a	n/a	1	51	-0.1	0	3
207.3072	1	21	n/a	n/a	1	51	0	0	0
208.4572	1	10	n/a	n/a	1	51	0.1	0	1
209.6404	1	10	n/a	n/a	1	51	-0.1	0	2
210.8904	1	10	n/a	n/a	1	51	0.1	0	3
212.0236	1	10	n/a	n/a	1	51	17.7	0	4
213.3236	1	10	n/a	n/a	1	51	0.1	0	5
214.6234	1	21	n/a	n/a	1	51	-0.1	0	0
293.562	1	81	n/a	n/a	1	0	-17.8	0	0
293.762	1	81	n/a	n/a	1	0	0	0	0
293.962	1	81	n/a	n/a	1	0	0	0	0
294.162	1	81	n/a	n/a	1	0	0	0	0
294.362	1	81	n/a	n/a	1	0	0	0	0
294.562	1	81	n/a	n/a	1	0	0	0	0
294.762	1	81	n/a	n/a	1	0	0	0	0
294.962	1	81	n/a	n/a	1	0	0	0	0
295.162	1	81	n/a	n/a	1	0	0	0	0
295.362	1	81	n/a	n/a	1	0	0	0	0
296.752	1	10	n/a	n/a	1	50	0	0	1
298.0352	1	10	n/a	n/a	1	50	-0.1	0	2
299.2852	1	10	n/a	n/a	1	50	0.1	0	3
300.5018	1	10	n/a	n/a	1	50	0	0	4
301.785	1	10	n/a	n/a	1	50	0	0	5
303.085	1	10	n/a	n/a	1	50	0	0	6
304.3182	1	10	n/a	n/a	1	50	0	0	7
305.5514	1	21	n/a	n/a	1	50	-0.1	0	0
306.7346	1	10	n/a	n/a	1	50	-5.8208e-11	0	1
307.918	1	21	n/a	n/a	1	50	0.1	0	0
309.0678	1	10	n/a	n/a	1	50	-0.2	0	1
310.3178	1	10	n/a	n/a	1	50	0.1	0	2
311.551	1	10	n/a	n/a	1	50	0	0	3
312.7176	1	10	n/a	n/a	1	50	0	0	4
313.8842	1	10	n/a	n/a	1	50	5.8208e-11	0	5
315.0508	1	21	n/a	n/a	1	50	-5.8208e-11	0	0
316.3008	1	10	n/a	n/a	1	50	0	0	1
317.334	1	10	n/a	n/a	1	50	0	0	2
318.4006	1	10	n/a	n/a	1	50	0	0	3
319.4672	1	21	n/a	n/a	1	50	5.8208e-11	0	0
325.973	1	82	n/a	n/a	1	0	0	0	0
326.079	1	82	n/a	n/a	1	0	0	0	0
326.229	1	82	n/a	n/a	1	0	0	0	0
326.257	1	82	n/a	n/a	1	0	0	0	0
326.536	1	82	n/a	n/a	1	0	0	0	0
326.973	1	82	n/a	n/a	1	0	0	0	0
327.029	1	82	n/a	n/a	1	0	0	0	0
327.347	1	82	n/a	n/a	1	0	0	0	0
327.628	1	82	n/a	n/a	1	0	0	0	0
327.752	1	82	n/a	n/a	1	0	0	0	0
328.95	1	10	n/a	n/a	1	50	0	0	1
330.25	1	10	n/a	n/a	1	50	0	0	2
331.3998	1	10	n/a	n/a	1	50	-0.1	0	3
332.6998	1	10	n/a	n/a	1	50	0.1	0	4
333.7498	1	10	n/a	n/a	1	50	0	0	5
334.7996	1	21	n/a	n/a	1	50	-0.1	0	0
336.0496	1	10	n/a	n/a	1	50	0.1	0	1
337.1828	1	10	n/a	n/a	1	50	-0.1	0	2
338.4162	1	10	n/a	n/a	1	50	0.2	0	3
339.6994	1	10	n/a	n/a	1	50	17.6	0	4
340.866	1	10	n/a	n/a	1	50	-17.7	0	5
341.9826	1	10	n/a	n/a	1	50	0	0	6
343.0658	1	10	n/a	n/a	1	50	-0.1	0	7
344.1492	1	21	n/a	n/a	1	50	0.1	0	0
345.2658	1	10	n/a	n/a	1	50	0	0	1
346.399	1	10	n/a	n/a	1	50	0	0	2
347.5156	1	10	n/a	n/a	1	50	0	0	3
348.6322	1	21	n/a	n/a	1	50	0	0	0
349.7322	1	10	n/a	n/a	1	50	0	0	1
350.8988	1	10	n/a	n/a	1	50	0	0	2
357.8142	1	82	n/a	n/a	1	0	-0.1	0	0
357.8652	1	82	n/a	n/a	1	0	0	0	0
358.2532	1	82	n/a	n/a	1	0	0	0	0
358.5152	1	82	n/a	n/a	1	0	0	0	0
358.6922	1	82	n/a	n/a	1	0	0	0	0
358.8142	1	82	n/a	n/a	1	0	0	0	0
358.8462	1	82	n/a	n/a	1	0	0	0	0
359.0152	1	82	n/a	n/a	1	0	0	0	0
359.1472	1	82	n/a	n/a	1	0	0	0	0
359.5302	1	82	n/a	n/a	1	0	0	0	0
360.8648	1	10	n/a	n/a	1	50	0	0	1
362.048	1	10	n/a	n/a	1	50	0	0	2
363.2814	1	10	n/a	n/a	1	50	0.1	0	3
364.498	1	10	n/a	n/a	1	50	-5.8208e-11	0	4
365.7812	1	10	n/a	n/a	1	50	0	0	5
367.0644	1	21	n/a	n/a	1	50	-0.1	0	0
368.281	1	10	n/a	n/a	1	50	0	0	1
369.4976	1	21	n/a	n/a	1	50	-5.8208e-11	0	0
370.6642	1	10	n/a	n/a	1	50	5.8208e-11	0	1
371.8976	1	10	n/a	n/a	1	50	0.2	0	2
373.0474	1	10	n/a	n/a	1	50	-0.2	0	3
374.3806	1	10	n/a	n/a	1	50	17.7	0	4
375.3806	1	10	n/a	n/a	1	50	-17.7	0	5
376.5972	1	10	n/a	n/a	1	50	5.8208e-11	0	6
377.6972	1	10	n/a	n/a	1	50	0.1	0	7
378.7972	1	21	n/a	n/a	1	50	0.1	0	0
380.0804	1	10	n/a	n/a	1	50	-0.1	0	1
381.2636	1	10	n/a	n/a	1	50	-0.1	0	2
382.5468	1	10	n/a	n/a	1	50	5.8208e-11	0	3
383.8302	1	21	n/a	n/a	1	50	0.1	0	0
390.3628	1	81	n/a	n/a	1	0	-0.1	0	0
390.5628	1	81	n/a	n/a	1	0	0	0	0
390.7628	1	81	n/a	n/a	1	0	0	0	0
390.9628	1	81	n/a	n/a	1	0	0	0	0
391.1628	1	81	n/a	n/a	1	0	0	0	0
391.3628	1	81	n/a	n/a	1	0	0	0	0
391.5628	1	81	n/a	n/a	1	0	0	0	0
391.7628	1	81	n/a	n/a	1	0	0	0	0
391.9628	1	81	n/a	n/a	1	0	0	0	0
392.1628	1	81	n/a	n/a	1	0	0	0	0
393.4296	1	10	n/a	n/a	1	50	0.1	0	1
394.4962	1	10	n/a	n/a	1	50	0	0	2
395.5794	1	10	n/a	n/a	1	50	-0.1	0	3
396.6628	1	21	n/a	n/a	1	50	0.1	0	0
397.9292	1	10	n/a	n/a	1	50	-0.2	0	1
399.1292	1	10	n/a	n/a	1	50	0.1	0	2
400.3792	1	10	n/a	n/a	1	50	0.1	0	3
401.629	1	21	n/a	n/a	1	50	-0.2	0	0
402.7624	1	10	n/a	n/a	1	50	0.2	0	1
403.9956	1	10	n/a	n/a	1	50	-0.1	0	2
405.1456	1	10	n/a	n/a	1	50	0.1	0	3
406.4288	1	10	n/a	n/a	1	50	-0.1	0	4
407.5454	1	10	n/a	n/a	1	50	0	0	5
408.662	1	21	n/a	n/a	1	50	0	0	0
409.6952	1	10	n/a	n/a	1	50	-0.1	0	1
410.7286	1	21	n/a	n/a	1	50	0.2	0	0
411.8784	1	10	n/a	n/a	1	50	-0.2	0	1
413.0284	1	10	n/a	n/a	1	50	0.1	0	2
414.2784	1	10	n/a	n/a	1	50	0.1	0	3
415.445	1	10	n/a	n/a	1	50	-5.8208e-11	0	4
424.4654	1	82	n/a	n/a	1	0	-0.1	0	0
424.5454	1	82	n/a	n/a	1	0	0	0	0
424.7124	1	82	n/a	n/a	1	0	0	0	0
424.9064	1	82	n/a	n/a	1	0	0	0	0
425.2764	1	82	n/a	n/a	1	0	0	0	0
425.4654	1	82	n/a	n/a	1	0	-0.1	0	0
425.8434	1	82	n/a	n/a	1	0	0	0	0
425.9644	1	82	n/a	n/a	1	0	0	0	0
426.2354	1	82	n/a	n/a	1	0	0	0	0
426.3874	1	82	n/a	n/a	1	0	0	0	0
427.4108	1	10	n/a	n/a	1	50	-5.8208e-11	0	1
428.6442	1	10	n/a	n/a	1	50	0.1	0	2
429.9108	1	10	n/a	n/a	1	50	0	0	3
430.9774	1	10	n/a	n/a	1	50	1.1	0	4
432.2772	1	10	n/a	n/a	1	50	-1.2	0	5
433.5938	1	21	n/a	n/a	1	50	-5.8208e-11	0	0
434.7272	1	10	n/a	n/a	1	50	0.2	0	1
435.7604	1	10	n/a	n/a	1	50	-0.1	0	2
436.977	1	10	n/a	n/a	1	50	0	0	3
438.1436	1	10	n/a	n/a	1	50	-5.8208e-11	0	4
439.3436	1	10	n/a	n/a	1	50	0.1	0	5
440.5434	1	21	n/a	n/a	1	50	-0.2	0	0
441.66	1	10	n/a	n/a	1	50	-5.8208e-11	0	1
442.7766	1	21	n/a	n/a	1	50	0	0	0
443.96	1	10	n/a	n/a	1	50	0.2	0	1
445.2266	1	10	n/a	n/a	1	50	0	0	2
446.4432	1	10	n/a	n/a	1	50	0	0	3
447.543	1	10	n/a	n/a	1	50	-0.2	0	4
448.7264	1	10	n/a	n/a	1	50	0.2	0	5
449.9096	1	21	n/a	n/a	1	50	-0.1	0	0
526.8604	1	82	n/a	n/a	1	0	-0.2	0	0
527.2594	1	82	n/a	n/a	1	0	0	0	0
527.4284	1	82	n/a	n/a	1	0	0	0	0
527.5114	1	82	n/a	n/a	1	0	0	0	0
527.5664	1	82	n/a	n/a	1	0	0	0	0
527.8604	1	82	n/a	n/a	1	0	0	0	0
528.1674	1	82	n/a	n/a	1	0	0	0	0
528.4034	1	82	n/a	n/a	1	0	0	0	0
528.5594	1	82	n/a	n/a	1	0	0	0	0
528.8294	1	82	n/a	n/a	1	0	0	0	0
530.0714	1	10	n/a	n/a	1	52	0	0	1
531.3048	1	10	n/a	n/a	1	52	0.1	0	2
532.488	1	10	n/a	n/a	1	52	0	0	3
533.6712	1	21	n/a	n/a	1	52	-0.1	0	0
534.8878	1	10	n/a	n/a	1	52	1.1642e-10	0	1
536.1044	1	21	n/a	n/a	1	52	0	0	0
537.1544	1	10	n/a	n/a	1	52	0.1	0	1
538.371	1	10	n/a	n/a	1	52	0	0	2
539.521	1	10	n/a	n/a	1	52	0	0	3
540.7208	1	10	n/a	n/a	1	52	-0.1	0	4
542.0042	1	10	n/a	n/a	1	52	0.1	0	5
543.3208	1	10	n/a	n/a	1	52	0.1	0	6
544.604	1	10	n/a	n/a	1	52	-0.1	0	7
545.8872	1	21	n/a	n/a	1	52	-0.1	0	0
546.9704	1	10	n/a	n/a	1	52	1.1642e-10	0	1
548.1038	1	10	n/a	n/a	1	52	0.1	0	2
549.3536	1	10	n/a	n/a	1	52	-0.1	0	3
550.637	1	10	n/a	n/a	1	52	0.1	0	4
551.9536	1	10	n/a	n/a	1	52	0	0	5
553.1534	1	10	n/a	n/a	1	52	-0.1	0	6
560.831	1	82	n/a	n/a	1	0	0.1	0	0
560.878	1	82	n/a	n/a	1	0	0	0	0
561.103	1	82	n/a	n/a	1	0	0	0	0
561.374	1	82	n/a	n/a	1	0	0	0	0
561.507	1	82	n/a	n/a	1	0	0	0	0
561.831	1	82	n/a	n/a	1	0	0	0	0
561.888	1	82	n/a	n/a	1	0	0	0	0
561.972	1	82	n/a	n/a	1	0	0	0	0
562.394	1	82	n/a	n/a	1	0	0	0	0
562.643	1	82	n/a	n/a	1	0	0	0	0
563.9694	1	10	n/a	n/a	1	52	-0.2	0	1
565.2194	1	21	n/a	n/a	1	52	0.1	0	0
566.536	1	10	n/a	n/a	1	52	0	0	1
567.8192	1	10	n/a	n/a	1	52	0	0	2
569.1358	1	10	n/a	n/a	1	52	0	0	3
570.2692	1	10	n/a	n/a	1	52	0.1	0	4
571.4856	1	10	n/a	n/a	1	52	-0.2	0	5
572.7024	1	21	n/a	n/a	1	52	0.2	0	0
573.9188	1	10	n/a	n/a	1	52	-0.2	0	1
575.1022	1	10	n/a	n/a	1	52	0.2	0	2
576.1688	1	10	n/a	n/a	1	52	1.1642e-10	0	3
577.3354	1	10	n/a	n/a	1	52	-1.1642e-10	0	4
578.6352	1	10	n/a	n/a	1	52	-0.2	0	5
579.9352	1	21	n/a	n/a	1	52	0.1	0	0
580.9852	1	10	n/a	n/a	1	52	0.1	0	1
582.1184	1	10	n/a	n/a	1	52	-0.1	0	2
583.335	1	10	n/a	n/a	1	52	0	0	3
584.5516	1	21	n/a	n/a	1	52	0	0	0
585.8348	1	10	n/a	n/a	1	52	-0.1	0	1
586.9182	1	10	n/a	n/a	1	52	0.2	0	2
595.3186	1	82	n/a	n/a	1	0	-0.2	0	0
595.7276	1	82	n/a	n/a	1	0	0	0	0
595.8346	1	82	n/a	n/a	1	0	0	0	0
595.8696	1	82	n/a	n/a	1	0	0	0	0
596.2386	1	82	n/a	n/a	1	0	0	0	0
596.3186	1	82	n/a	n/a	1	0	0	0	0
596.3876	1	82	n/a	n/a	1	0	0	0	0
596.7156	1	82	n/a	n/a	1	0	0	0	0
596.9966	1	82	n/a	n/a	1	0	0	0	0
597.2436	1	82	n/a	n/a	1	0	0	0	0
598.3342	1	10	n/a	n/a	1	52	0.2	0	1
599.634	1	10	n/a	n/a	1	52	-0.2	0	2
600.9006	1	10	n/a	n/a	1	52	0.1	0	3
602.1506	1	10	n/a	n/a	1	52	0	0	4
603.2838	1	10	n/a	n/a	1	52	0	0	5
604.617	1	10	n/a	n/a	1	52	-0.1	0	6
605.7336	1	10	n/a	n/a	1	52	0	0	7
606.8502	1	21	n/a	n/a	1	52	-1.1642e-10	0	0
608.1668	1	10	n/a	n/a	1	52	1.1642e-10	0	1
609.2168	1	10	n/a	n/a	1	52	0.1	0	2
610.5168	1	10	n/a	n/a	1	52	0	0	3
611.75	1	10	n/a	n/a	1	52	0	0	4
612.8832	1	10	n/a	n/a	1	52	-0.1	0	5
614.0166	1	21	n/a	n/a	1	52	0.1	0	0
615.2332	1	10	n/a	n/a	1	52	0	0	1
616.5164	1	10	n/a	n/a	1	52	0	0	2
617.5996	1	10	n/a	n/a	1	52	17.7	0	3
618.6662	1	10	n/a	n/a	1	52	-17.8	0	4
619.7996	1	10	n/a	n/a	1	52	0.1	0	5
621.0994	1	10	n/a	n/a	1	52	-0.1	0	6
628.64	1	82	n/a	n/a	1	0	0.1	0	0
628.877	1	82	n/a	n/a	1	0	0	0	0
628.959	1	82	n/a	n/a	1	0	0	0	0
629.31	1	82	n/a	n/a	1	0	0	0	0
629.591	1	82	n/a	n/a	1	0	0	0	0
629.64	1	82	n/a	n/a	1	0	0	0	0
629.814	1	82	n/a	n/a	1	0	0	0	0
630.191	1	82	n/a	n/a	1	0	0	0	0
630.24	1	82	n/a	n/a	1	0	0	0	0
630.542	1	82	n/a	n/a	1	0	0	0	0
631.6488	1	10	n/a	n/a	1	52	-0.1	0	1
632.7654	1	21	n/a	n/a	1	52	0	0	0
633.832	1	10	n/a	n/a	1	52	0	0	1
635.0652	1	10	n/a	n/a	1	52	-1.1642e-10	0	2
636.1818	1	10	n/a	n/a	1	52	1.1642e-10	0	3
637.3484	1	10	n/a	n/a	1	52	0	0	4
638.5318	1	10	n/a	n/a	1	52	0.1	0	5
639.715	1	21	n/a	n/a	1	52	-0.1	0	0
641.0316	1	10	n/a	n/a	1	52	0	0	1
642.3482	1	21	n/a	n/a	1	52	0.1	0	0
643.4982	1	10	n/a	n/a	1	52	0	0	1
644.5814	1	10	n/a	n/a	1	52	0	0	2
645.648	1	10	n/a	n/a	1	52	-0.1	0	3
646.8812	1	10	n/a	n/a	1	52	-1.1642e-10	0	4
647.9812	1	10	n/a	n/a	1	52	0	0	5
649.0812	1	21	n/a	n/a	1	52	0.1	0	0
650.3144	1	10	n/a	n/a	1	52	-0.1	0	1
651.531	1	10	n/a	n/a	1	52	0.1	0	2
652.7808	1	10	n/a	n/a	1	52	-0.2	0	3
653.9308	1	10	n/a	n/a	1	52	0.1	0	4
662.8942	1	82	n/a	n/a	1	0	-0.1	0	0
663.0342	1	82	n/a	n/a	1	0	0	0	0
663.1502	1	82	n/a	n/a	1	0	0	0	0
663.3132	1	82	n/a	n/a	1	0	0	0	0
663.6872	1	82	n/a	n/a	1	0	0	0	0
663.8944	1	82	n/a	n/a	1	0	0.2	0	0
664.2024	1	82	n/a	n/a	1	0	0	0	0
664.2464	1	82	n/a	n/a	1	0	0	0	0
664.5094	1	82	n/a	n/a	1	0	0	0	0
664.8534	1	82	n/a	n/a	1	0	0	0	0
666.0802	1	10	n/a	n/a	1	52	-1.1642e-10	0	1
667.38	1	21	n/a	n/a	1	52	-0.1	0	0
668.53	1	10	n/a	n/a	1	52	0	0	1
669.7966	1	10	n/a	n/a	1	52	-1.1642e-10	0	2
670.9464	1	10	n/a	n/a	1	52	-0.1	0	3
671.9964	1	10	n/a	n/a	1	52	0.1	0	4
673.2964	1	10	n/a	n/a	1	52	0	0	5
674.4462	1	10	n/a	n/a	1	52	-0.1	0	6
675.6628	1	10	n/a	n/a	1	52	1.1642e-10	0	7
676.8794	1	21	n/a	n/a	1	52	0	0	0
678.0294	1	10	n/a	n/a	1	52	0.1	0	1
679.346	1	10	n/a	n/a	1	52	0	0	2
680.6126	1	10	n/a	n/a	1	52	-1.1642e-10	0	3
681.7126	1	10	n/a	n/a	1	52	0.1	0	4
682.9958	1	10	n/a	n/a	1	52	-0.1	0	5
684.279	1	21	n/a	n/a	1	52	0	0	0
685.3122	1	10	n/a	n/a	1	52	-0.1	0	1
686.3788	1	10	n/a	n/a	1	52	1.1642e-10	0	2
687.6288	1	10	n/a	n/a	1	52	0	0	3
688.8788	1	21	n/a	n/a	1	52	0.1	0	0
816.4172	1	82	n/a	n/a	1	0	-0.2	0	0
816.5762	1	82	n/a	n/a	1	0	0	0	0
816.8782	1	82	n/a	n/a	1	0	0	0	0
816.9502	1	82	n/a	n/a	1	0	0	0	0
817.2262	1	82	n/a	n/a	1	0	0	0	0
817.4172	1	82	n/a	n/a	1	0	0	0	0
817.4522	1	82	n/a	n/a	1	0	0	0	0
817.7492	1	82	n/a	n/a	1	0	0	0	0
817.9082	1	82	n/a	n/a	1	0	0	0	0
818.2992	1	82	n/a	n/a	1	0	0	0	0
819.5544	1	10	n/a	n/a	1	52	0.1	0	1
820.6876	1	10	n/a	n/a	1	52	17.6	0	2
821.8876	1	10	n/a	n/a	1	52	0.1	0	3
822.8874	1	10	n/a	n/a	1	52	-17.9	0	4
824.054	1	10	n/a	n/a	1	52	0	0	5
825.2206	1	21	n/a	n/a	1	52	0	0	0
826.304	1	10	n/a	n/a	1	52	0.1	0	1
827.3706	1	10	n/a	n/a	1	52	0	0	2
828.6204	1	10	n/a	n/a	1	52	-0.1	0	3
829.687	1	10	n/a	n/a	1	52	0	0	4
830.7536	1	10	n/a	n/a	1	52	0	0	5
831.8202	1	21	n/a	n/a	1	52	0	0	0
833.0036	1	10	n/a	n/a	1	52	0.1	0	1
834.2368	1	10	n/a	n/a	1	52	1.1642e-10	0	2
835.37	1	10	n/a	n/a	1	52	-0.1	0	3
836.62	1	10	n/a	n/a	1	52	0.1	0	4
837.7866	1	10	n/a	n/a	1	52	0	0	5
839.0366	1	10	n/a	n/a	1	52	0	0	6
840.3198	1	10	n/a	n/a	1	52	1.1642e-10	0	7
841.603	1	21	n/a	n/a	1	52	-0.1	0	0
848.7458	1	82	n/a	n/a	1	0	0.1	0	0
848.7738	1	82	n/a	n/a	1	0	0	0	0
849.1758	1	82	n/a	n/a	1	0	0	0	0
849.4628	1	82	n/a	n/a	1	0	0	0	0
849.5658	1	82	n/a	n/a	1	0	0	0	0
849.7458	1	82	n/a	n/a	1	0	0	0	0
850.0298	1	82	n/a	n/a	1	0	0	0	0
850.0638	1	82	n/a	n/a	1	0	0	0	0
850.3898	1	82	n/a	n/a	1	0	0	0	0
850.5488	1	82	n/a	n/a	1	0	0	0	0
851.7524	1	10	n/a	n/a	1	52	-0.1	0	1
852.819	1	10	n/a	n/a	1	52	0	0	2
853.919	1	10	n/a	n/a	1	52	0.1	0	3
854.969	1	10	n/a	n/a	1	52	0	0	4
856.2522	1	10	n/a	n/a	1	52	0	0	5
857.5354	1	21	n/a	n/a	1	52	-0.1	0	0
858.6854	1	10	n/a	n/a	1	52	0.1	0	1
859.852	1	10	n/a	n/a	1	52	0	0	2
861.1686	1	10	n/a	n/a	1	52	0	0	3
862.4852	1	21	n/a	n/a	1	52	0	0	0
863.8018	1	10	n/a	n/a	1	52	1.1642e-10	0	1
865.0016	1	10	n/a	n/a	1	52	-0.1	0	2
866.1182	1	10	n/a	n/a	1	52	0	0	3
867.1682	1	10	n/a	n/a	1	52	0	0	4
868.4014	1	10	n/a	n/a	1	52	0	0	5
869.6346	1	21	n/a	n/a	1	52	-0.1	0	0
870.818	1	10	n/a	n/a	1	52	0.2	0	1
871.8512	1	10	n/a	n/a	1	52	-0.1	0	2
873.1012	1	10	n/a	n/a	1	52	0.1	0	3
874.351	1	21	n/a	n/a	1	52	-0.2	0	0
882.8338	1	82	n/a	n/a	1	0	0.1	0	0
882.9838	1	82	n/a	n/a	1	0	0	0	0
883.2688	1	82	n/a	n/a	1	0	0	0	0
883.4538	1	82	n/a	n/a	1	0	0	0	0
883.6778	1	82	n/a	n/a	1	0	0	0	0
883.8338	1	82	n/a	n/a	1	0	0	0	0
883.8618	1	82	n/a	n/a	1	0	0	0	0
884.1028	1	82	n/a	n/a	1	0	0	0	0
884.4188	1	82	n/a	n/a	1	0	0	0	0
884.7088	1	82	n/a	n/a	1	0	0	0	0
885.8004	1	10	n/a	n/a	1	52	0	0	1
886.9504	1	10	n/a	n/a	1	52	0.1	0	2
888.1336	1	10	n/a	n/a	1	52	-0.1	0	3
889.3836	1	10	n/a	n/a	1	52	0.1	0	4
890.5502	1	10	n/a	n/a	1	52	0	0	5
891.7168	1	21	n/a	n/a	1	52	1.1642e-10	0	0
893.0166	1	10	n/a	n/a	1	52	-0.2	0	1
894.2666	1	10	n/a	n/a	1	52	0.1	0	2
895.2998	1	10	n/a	n/a	1	52	-0.1	0	3
896.3332	1	21	n/a	n/a	1	52	0.2	0	0
897.3998	1	10	n/a	n/a	1	52	1.1642e-10	0	1
898.6996	1	10	n/a	n/a	1	52	-0.2	0	2
899.7996	1	10	n/a	n/a	1	52	0.1	0	3
900.8662	1	10	n/a	n/a	1	52	0	0	4
901.9828	1	10	n/a	n/a	1	52	0	0	5
903.066	1	10	n/a	n/a	1	52	-0.1	0	6
904.266	1	10	n/a	n/a	1	52	0.1	0	7
905.466	1	21	n/a	n/a	1	52	0.1	0	0
906.6826	1	10	n/a	n/a	1	52	0	0	1
907.899	1	10	n/a	n/a	1	52	-0.2	0	2
914.4716	1	82	n/a	n/a	1	0	0.1	0	0
914.5046	1	82	n/a	n/a	1	0	0	0	0
914.6226	1	82	n/a	n/a	1	0	0	0	0
914.7026	1	82	n/a	n/a	1	0	0	0	0
914.9846	1	82	n/a	n/a	1	0	0	0	0
915.4716	1	82	n/a	n/a	1	0	0	0	0
915.7696	1	82	n/a	n/a	1	0	0	0	0
916.1006	1	82	n/a	n/a	1	0	0	0	0
916.2036	1	82	n/a	n/a	1	0	0	0	0
916.4276	1	82	n/a	n/a	1	0	0	0	0
917.6318	1	10	n/a	n/a	1	52	-0.1	0	1
918.8984	1	21	n/a	n/a	1	52	0	0	0
920.0484	1	10	n/a	n/a	1	52	0.1	0	1
921.365	1	10	n/a	n/a	1	52	0	0	2
922.6482	1	10	n/a	n/a	1	52	-0.1	0	3
923.9314	1	21	n/a	n/a	1	52	1.1642e-10	0	0
925.2148	1	10	n/a	n/a	1	52	0.1	0	1
926.498	1	21	n/a	n/a	1	52	0	0	0
927.698	1	10	n/a	n/a	1	52	0	0	1
928.8812	1	10	n/a	n/a	1	52	0	0	2
930.1478	1	10	n/a	n/a	1	52	0	0	3
931.4144	1	21	n/a	n/a	1	52	0	0	0
932.681	1	10	n/a	n/a	1	52	0	0	1
933.9476	1	21	n/a	n/a	1	52	0	0	0
935.2474	1	10	n/a	n/a	1	52	-0.1	0	1
936.5474	1	21	n/a	n/a	1	52	0	0	0
937.7474	1	10	n/a	n/a	1	52	0.1	0	1
939.014	1	10	n/a	n/a	1	52	0	0	2
940.2638	1	10	n/a	n/a	1	52	-0.1	0	3
941.4804	1	10	n/a	n/a	1	52	0	0	4
951.349	1	82	n/a	n/a	1	0	0.1	0	0
951.416	1	82	n/a	n/a	1	0	0	0	0
951.783	1	82	n/a	n/a	1	0	0	0	0
951.975	1	82	n/a	n/a	1	0	0	0	0
952.236	1	82	n/a	n/a	1	0	0	0	0
952.349	1	82	n/a	n/a	1	0	0	0	0
952.57	1	82	n/a	n/a	1	0	0	0	0
952.672	1	82	n/a	n/a	1	0	0	0	0
952.992	1	82	n/a	n/a	1	0	0	0	0
953.123	1	82	n/a	n/a	1	0	0	0	0
954.2964	1	10	n/a	n/a	1	52	0	0	1
955.5462	1	10	n/a	n/a	1	52	-0.2	0	2
956.8128	1	10	n/a	n/a	1	52	1.1642e-10	0	3
957.9962	1	10	n/a	n/a	1	52	0.2	0	4
959.246	1	10	n/a	n/a	1	52	-0.1	0	5
960.496	1	21	n/a	n/a	1	52	0	0	0
961.7126	1	10	n/a	n/a	1	52	0	0	1
962.9958	1	10	n/a	n/a	1	52	0	0	2
964.1958	1	10	n/a	n/a	1	52	0	0	3
965.3956	1	21	n/a	n/a	1	52	-0.1	0	0
966.479	1	10	n/a	n/a	1	52	0.1	0	1
967.5622	1	21	n/a	n/a	1	52	-1.1642e-10	0	0
968.7788	1	10	n/a	n/a	1	52	1.1642e-10	0	1
969.8954	1	10	n/a	n/a	1	52	0	0	2
971.0954	1	10	n/a	n/a	1	52	0	0	3
972.2952	1	21	n/a	n/a	1	52	-0.1	0	0
973.4786	1	10	n/a	n/a	1	52	0.1	0	1
974.6952	1	10	n/a	n/a	1	52	-1.1642e-10	0	2
975.9618	1	10	n/a	n/a	1	52	0.1	0	3
977.2284	1	21	n/a	n/a	1	52	0	0	0
992.7766	1	82	n/a	n/a	1	0	-0.1	0	0
992.8686	1	82	n/a	n/a	1	0	0	0	0
993.1196	1	82	n/a	n/a	1	0	0	0	0
993.1626	1	82	n/a	n/a	1	0	0	0	0
993.2316	1	82	n/a	n/a	1	0	0	0	0
993.7766	1	82	n/a	n/a	1	0	0	0	0
993.8146	1	82	n/a	n/a	1	0	0	0	0
993.9136	1	82	n/a	n/a	1	0	0	0	0
994.2256	1	82	n/a	n/a	1	0	0	0	0
994.4866	1	82	n/a	n/a	1	0	0	0	0
995.9772	1	10	n/a	n/a	1	50	-0.1	0	1
997.0438	1	10	n/a	n/a	1	50	1.1642e-10	0	2
998.2604	1	10	n/a	n/a	1	50	0.1	0	3
999.3436	1	10	n/a	n/a	1	50	-0.1	0	4
1000.527	1	10	n/a	n/a	1	50	0.1	0	5
1001.8436	1	10	n/a	n/a	1	50	0	0	6
1003.0268	1	10	n/a	n/a	1	50	0	0	7
1004.21	1	21	n/a	n/a	1	50	-0.1	0	0
1005.31	1	10	n/a	n/a	1	50	0.1	0	1
1006.51	1	10	n/a	n/a	1	50	0	0	2
1007.6432	1	10	n/a	n/a	1	50	-1.1642e-10	0	3
1008.9598	1	10	n/a	n/a	1	50	1.1642e-10	0	4
1010.143	1	10	n/a	n/a	1	50	-0.1	0	5
1011.3096	1	10	n/a	n/a	1	50	-1.1642e-10	0	6
1012.5096	1	10	n/a	n/a	1	50	0.1	0	7
1013.7094	1	21	n/a	n/a	1	50	-0.2	0	0
1015.0094	1	10	n/a	n/a	1	50	0.1	0	1
1016.3094	1	21	n/a	n/a	1	50	0.1	0	0
1017.626	1	10	n/a	n/a	1	50	0	0	1
1018.6758	1	10	n/a	n/a	1	50	-0.1	0	2
1028.7394	1	82	n/a	n/a	1	0	0.1	0	0
1028.8944	1	82	n/a	n/a	1	0	0	0	0
1028.9284	1	82	n/a	n/a	1	0	0	0	0
1029.2524	1	82	n/a	n/a	1	0	0	0	0
1029.4864	1	82	n/a	n/a	1	0	0	0	0
1029.7394	1	82	n/a	n/a	1	0	0	0	0
1030.0804	1	82	n/a	n/a	1	0	0	0	0
1030.1424	1	82	n/a	n/a	1	0	0	0	0
1030.5184	1	82	n/a	n/a	1	0	0	0	0
1030.6804	1	82	n/a	n/a	1	0	0	0	0
1031.9418	1	10	n/a	n/a	1	50	0	0	1
1033.2416	1	10	n/a	n/a	1	50	-0.2	0	2
1034.5582	1	10	n/a	n/a	1	50	0.1	0	3
1035.6748	1	10	n/a	n/a	1	50	-0.1	0	4
1036.7414	1	10	n/a	n/a	1	50	0	0	5
1037.808	1	21	n/a	n/a	1	50	-1.1642e-10	0	0
1039.0414	1	10	n/a	n/a	1	50	0.2	0	1
1040.1246	1	10	n/a	n/a	1	50	-0.1	0	2
1041.1746	1	10	n/a	n/a	1	50	0.1	0	3
1042.3078	1	10	n/a	n/a	1	50	-0.1	0	4
1043.341	1	10	n/a	n/a	1	50	-0.1	0	5
1044.3744	1	21	n/a	n/a	1	50	0.2	0	0
1045.4576	1	10	n/a	n/a	1	50	-0.1	0	1
1046.5408	1	21	n/a	n/a	1	50	-0.1	0	0
1047.6408	1	10	n/a	n/a	1	50	0.1	0	1
1048.8574	1	10	n/a	n/a	1	50	-2.3283e-10	0	2
1049.8906	1	10	n/a	n/a	1	50	-0.1	0	3
1051.1072	1	10	n/a	n/a	1	50	0	0	4
1052.3738	1	10	n/a	n/a	1	50	0	0	5
1053.6072	1	10	n/a	n/a	1	50	0.2	0	6
1063.4686	1	82	n/a	n/a	1	0	-0.2	0	0
1063.5366	1	82	n/a	n/a	1	0	0	0	0
1063.9756	1	82	n/a	n/a	1	0	0	0	0
1063.9966	1	82	n/a	n/a	1	0	0	0	0
1064.3516	1	82	n/a	n/a	1	0	0	0	0
1064.4686	1	82	n/a	n/a	1	0	0	0	0
1064.5126	1	82	n/a	n/a	1	0	0	0	0
1064.6576	1	82	n/a	n/a	1	0	0	0	0
1064.9656	1	82	n/a	n/a	1	0	0	0	0
1065.0846	1	82	n/a	n/a	1	0	0	0	0
1066.473	1	10	n/a	n/a	1	50	0	0	1
1067.573	1	10	n/a	n/a	1	50	0.1	0	2
1068.6562	1	10	n/a	n/a	1	50	-0.1	0	3
1069.7394	1	10	n/a	n/a	1	50	0	0	4
1070.906	1	10	n/a	n/a	1	50	0	0	5
1072.0226	1	10	n/a	n/a	1	50	2.3283e-10	0	6
1073.3392	1	10	n/a	n/a	1	50	-2.3283e-10	0	7
1074.6558	1	21	n/a	n/a	1	50	0	0	0
1075.8224	1	10	n/a	n/a	1	50	0	0	1
1076.9558	1	10	n/a	n/a	1	50	0.1	0	2
1078.0556	1	10	n/a	n/a	1	50	-0.1	0	3
1079.189	1	10	n/a	n/a	1	50	0.1	0	4
1080.5056	1	10	n/a	n/a	1	50	0	0	5
1081.8222	1	21	n/a	n/a	1	50	0	0	0
1083.0554	1	10	n/a	n/a	1	50	-2.3283e-10	0	1
1084.272	1	10	n/a	n/a	1	50	2.3283e-10	0	2
1085.3886	1	10	n/a	n/a	1	50	0	0	3
1086.4218	1	10	n/a	n/a	1	50	-0.1	0	4
1087.7552	1	10	n/a	n/a	1	50	0.2	0	5
1088.955	1	10	n/a	n/a	1	50	-0.2	0	6
1098.9476	1	82	n/a	n/a	1	0	0.1	0	0
1098.9876	1	82	n/a	n/a	1	0	0	0	0
1099.0514	1	82	n/a	n/a	1	0	-0.2	0	0
1099.3936	1	82	n/a	n/a	1	0	0.2	0	0
1099.5094	1	82	n/a	n/a	1	0	-0.2	0	0
1099.9476	1	82	n/a	n/a	1	0	0.2	0	0
1100.1256	1	82	n/a	n/a	1	0	0	0	0
1100.1946	1	82	n/a	n/a	1	0	0	0	0
1100.3146	1	82	n/a	n/a	1	0	0	0	0
1100.6216	1	82	n/a	n/a	1	0	0	0	0
1102.0042	1	10	n/a	n/a	1	50	-0.1	0	1
1103.1876	1	10	n/a	n/a	1	50	0.1	0	2
1104.3208	1	10	n/a	n/a	1	50	-0.1	0	3
1105.504	1	10	n/a	n/a	1	50	0	0	4
1106.704	1	10	n/a	n/a	1	50	-2.3283e-10	0	5
1107.8038	1	10	n/a	n/a	1	50	-0.1	0	6
1108.8872	1	10	n/a	n/a	1	50	0.1	0	7
1109.9704	1	21	n/a	n/a	1	50	0	0	0
1111.187	1	10	n/a	n/a	1	50	0	0	1
1112.4036	1	21	n/a	n/a	1	50	2.3283e-10	0	0
1113.4536	1	10	n/a	n/a	1	50	0	0	1
1114.5534	1	10	n/a	n/a	1	50	-0.1	0	2
1115.67	1	10	n/a	n/a	1	50	2.3283e-10	0	3
1116.72	1	10	n/a	n/a	1	50	0	0	4
1117.82	1	10	n/a	n/a	1	50	0.1	0	5
1119.0698	1	10	n/a	n/a	1	50	-0.1	0	6
1120.1698	1	10	n/a	n/a	1	50	0	0	7
1121.2698	1	21	n/a	n/a	1	50	0.1	0	0
1122.4364	1	10	n/a	n/a	1	50	0	0	1
1123.703	1	10	n/a	n/a	1	50	0	0	2
1131.0696	1	81	n/a	n/a	1	0	2.3283e-10	0	0
1131.2696	1	81	n/a	n/a	1	0	0	0	0
1131.4696	1	81	n/a	n/a	1	0	0	0	0
1131.6696	1	81	n/a	n/a	1	0	0	0	0
1131.8696	1	81	n/a	n/a	1	0	0	0	0
1132.0696	1	81	n/a	n/a	1	0	0	0	0
1132.2696	1	81	n/a	n/a	1	0	0	0	0
1132.4696	1	81	n/a	n/a	1	0	0	0	0
1132.6696	1	81	n/a	n/a	1	0	0	0	0
1132.8696	1	81	n/a	n/a	1	0	0	0	0
1134.169	1	10	n/a	n/a	1	50	-2.3283e-10	0	1
1135.369	1	10	n/a	n/a	1	50	0	0	2
1136.6688	1	10	n/a	n/a	1	50	-0.1	0	3
1137.7022	1	10	n/a	n/a	1	50	0.1	0	4
1139.002	1	10	n/a	n/a	1	50	-0.1	0	5
1140.152	1	10	n/a	n/a	1	50	0.1	0	6
1141.4352	1	10	n/a	n/a	1	50	-0.1	0	7
1142.7184	1	21	n/a	n/a	1	50	0	0	0
1143.935	1	10	n/a	n/a	1	50	2.3283e-10	0	1
1145.0684	1	10	n/a	n/a	1	50	0.1	0	2
1146.185	1	10	n/a	n/a	1	50	0	0	3
1147.3348	1	10	n/a	n/a	1	50	-0.1	0	4
1148.3682	1	10	n/a	n/a	1	50	0.1	0	5
1149.4014	1	21	n/a	n/a	1	50	-0.1	0	0
1150.718	1	10	n/a	n/a	1	50	2.3283e-10	0	1
1151.9846	1	10	n/a	n/a	1	50	0	0	2
1153.1346	1	10	n/a	n/a	1	50	0.1	0	3
1154.2844	1	21	n/a	n/a	1	50	-0.1	0	0
1155.3344	1	10	n/a	n/a	1	50	0	0	1
1156.601	1	10	n/a	n/a	1	50	2.3283e-10	0	2
1172.2138	1	82	n/a	n/a	1	0	-0.1	0	0
1172.3678	1	82	n/a	n/a	1	0	0	0	0
1172.7238	1	82	n/a	n/a	1	0	0	0	0
1172.9528	1	82	n/a	n/a	1	0	0	0	0
1173.0608	1	82	n/a	n/a	1	0	0	0	0
1173.2138	1	82	n/a	n/a	1	0	0	0	0
1173.3828	1	82	n/a	n/a	1	0	0	0	0
1173.4748	1	82	n/a	n/a	1	0	0	0	0
1173.7668	1	82	n/a	n/a	1	0	0	0	0
1174.1708	1	82	n/a	n/a	1	0	0	0	0
1175.3666	1	10	n/a	n/a	1	52	0.1	0	1
1176.5164	1	10	n/a	n/a	1	52	-0.1	0	2
1177.6998	1	10	n/a	n/a	1	52	17.9	0	3
1178.833	1	10	n/a	n/a	1	52	-17.8	0	4
1180.033	1	10	n/a	n/a	1	52	0.1	0	5
1181.2328	1	21	n/a	n/a	1	52	-0.2	0	0
1182.4828	1	10	n/a	n/a	1	52	0.1	0	1
1183.5994	1	10	n/a	n/a	1	52	-2.3283e-10	0	2
1184.7994	1	10	n/a	n/a	1	52	0.1	0	3
1185.9992	1	21	n/a	n/a	1	52	-0.2	0	0
1187.2826	1	10	n/a	n/a	1	52	17.9	0	1
1188.4492	1	10	n/a	n/a	1	52	-17.7	0	2
1189.6324	1	10	n/a	n/a	1	52	-0.1	0	3
1190.8156	1	21	n/a	n/a	1	52	-0.1	0	0
1191.949	1	10	n/a	n/a	1	52	0.2	0	1
1193.0822	1	10	n/a	n/a	1	52	-0.1	0	2
1194.382	1	10	n/a	n/a	1	52	-0.1	0	3
1195.682	1	21	n/a	n/a	1	52	0.1	0	0
1196.9152	1	10	n/a	n/a	1	52	-0.1	0	1
1198.1486	1	21	n/a	n/a	1	52	0.1	0	0
1206.385	1	82	n/a	n/a	1	0	-0.1	0	0
1206.677	1	82	n/a	n/a	1	0	0	0	0
1206.766	1	82	n/a	n/a	1	0	0	0	0
1206.896	1	82	n/a	n/a	1	0	0	0	0
1206.931	1	82	n/a	n/a	1	0	0	0	0
1207.385	1	82	n/a	n/a	1	0	0	0	0
1207.75	1	82	n/a	n/a	1	0	0	0	0
1208.149	1	82	n/a	n/a	1	0	0	0	0
1208.295	1	82	n/a	n/a	1	0	0	0	0
1208.339	1	82	n/a	n/a	1	0	0	0	0
1209.4646	1	10	n/a	n/a	1	52	0.1	0	1
1210.6312	1	10	n/a	n/a	1	52	-2.3283e-10	0	2
1211.881	1	10	n/a	n/a	1	52	-0.1	0	3
1213.131	1	21	n/a	n/a	1	52	0.1	0	0
1214.381	1	10	n/a	n/a	1	52	0	0	1
1215.6808	1	10	n/a	n/a	1	52	-0.1	0	2
1216.914	1	10	n/a	n/a	1	52	0	0	3
1218.2306	1	10	n/a	n/a	1	52	0	0	4
1219.2806	1	10	n/a	n/a	1	52	0	0	5
1220.6138	1	10	n/a	n/a	1	52	0	0	6
1221.7138	1	10	n/a	n/a	1	52	0	0	7
1222.8138	1	21	n/a	n/a	1	52	0.1	0	0
1224.0804	1	10	n/a	n/a	1	52	-2.3283e-10	0	1
1225.3802	1	10	n/a	n/a	1	52	-0.1	0	2
1226.6802	1	10	n/a	n/a	1	52	0.1	0	3
1227.98	1	21	n/a	n/a	1	52	-0.2	0	0
1229.0966	1	10	n/a	n/a	1	52	2.3283e-10	0	1
1230.2632	1	10	n/a	n/a	1	52	-2.3283e-10	0	2
1231.5466	1	10	n/a	n/a	1	52	0.2	0	3
1232.8298	1	21	n/a	n/a	1	52	-0.1	0	0
1241.4716	1	82	n/a	n/a	1	0	0.1	0	0
1241.6986	1	82	n/a	n/a	1	0	0	0	0
1241.9956	1	82	n/a	n/a	1	0	0	0	0
1242.0686	1	82	n/a	n/a	1	0	0	0	0
1242.1006	1	82	n/a	n/a	1	0	0	0	0
1242.4716	1	82	n/a	n/a	1	0	0	0	0
1242.6416	1	82	n/a	n/a	1	0	0	0	0
1243.0746	1	82	n/a	n/a	1	0	0	0	0
1243.1226	1	82	n/a	n/a	1	0	0	0	0
1243.2486	1	82	n/a	n/a	1	0	0	0	0
1244.4792	1	10	n/a	n/a	1	52	-2.3283e-10	0	1
1245.6124	1	10	n/a	n/a	1	52	-0.1	0	2
1246.7956	1	10	n/a	n/a	1	52	0	0	3
1247.979	1	21	n/a	n/a	1	52	0.1	0	0
1249.0288	1	10	n/a	n/a	1	52	-0.1	0	1
1250.2122	1	10	n/a	n/a	1	52	0.1	0	2
1251.3788	1	10	n/a	n/a	1	52	2.3283e-10	0	3
1252.4954	1	10	n/a	n/a	1	52	-2.3283e-10	0	4
1253.5286	1	10	n/a	n/a	1	52	-0.1	0	5
1254.5618	1	21	n/a	n/a	1	52	-0.1	0	0
1255.8784	1	10	n/a	n/a	1	52	-2.3283e-10	0	1
1257.1284	1	10	n/a	n/a	1	52	0.1	0	2
1258.395	1	10	n/a	n/a	1	52	0	0	3
1259.6116	1	10	n/a	n/a	1	52	0	0	4
1260.7282	1	10	n/a	n/a	1	52	0	0	5
1261.8448	1	21	n/a	n/a	1	52	0	0	0
1263.0614	1	10	n/a	n/a	1	52	0	0	1
1264.278	1	21	n/a	n/a	1	52	0	0	0
1265.4278	1	10	n/a	n/a	1	52	-0.1	0	1
1266.4944	1	10	n/a	n/a	1	52	-2.3283e-10	0	2
1275.49	1	82	n/a	n/a	1	0	0.1	0	0
1275.778	1	82	n/a	n/a	1	0	0	0	0
1275.843	1	82	n/a	n/a	1	0	0	0	0
1276.216	1	82	n/a	n/a	1	0	0	0	0
1276.357	1	82	n/a	n/a	1	0	0	0	0
1276.49	1	82	n/a	n/a	1	0	-0.1	0	0
1276.638	1	82	n/a	n/a	1	0	0	0	0
1276.68	1	82	n/a	n/a	1	0	0	0	0
1276.99	1	82	n/a	n/a	1	0	0	0	0
1277.259	1	82	n/a	n/a	1	0	0	0	0
1278.677	1	10	n/a	n/a	1	52	0	0	1
1279.977	1	10	n/a	n/a	1	52	0	0	2
1281.2102	1	10	n/a	n/a	1	52	0	0	3
1282.4436	1	21	n/a	n/a	1	52	0.1	0	0
1283.6268	1	10	n/a	n/a	1	52	0	0	1
1284.81	1	21	n/a	n/a	1	52	-0.1	0	0
1286.01	1	10	n/a	n/a	1	52	0.1	0	1
1287.21	1	21	n/a	n/a	1	52	0	0	0
1288.3598	1	10	n/a	n/a	1	52	-0.1	0	1
1289.5264	1	10	n/a	n/a	1	52	0	0	2
1290.6098	1	10	n/a	n/a	1	52	0.1	0	3
1291.793	1	10	n/a	n/a	1	52	0	0	4
1292.843	1	10	n/a	n/a	1	52	0	0	5
1293.8928	1	10	n/a	n/a	1	52	-0.1	0	6
1295.0094	1	10	n/a	n/a	1	52	0	0	7
1296.126	1	21	n/a	n/a	1	52	0	0	0
1297.3594	1	10	n/a	n/a	1	52	0.1	0	1
1298.6092	1	10	n/a	n/a	1	52	-0.1	0	2
1299.7592	1	10	n/a	n/a	1	52	0.1	0	3
1301.0258	1	10	n/a	n/a	1	52	0	0	4
1309.5232	1	82	n/a	n/a	1	0	-0.2	0	0
1309.8232	1	82	n/a	n/a	1	0	0	0	0
1309.8932	1	82	n/a	n/a	1	0	0	0	0
1310.1542	1	82	n/a	n/a	1	0	0	0	0
1310.2742	1	82	n/a	n/a	1	0	0	0	0
1310.5232	1	82	n/a	n/a	1	0	0	0	0
1310.9052	1	82	n/a	n/a	1	0	0	0	0
1310.9402	1	82	n/a	n/a	1	0	0	0	0
1311.1092	1	82	n/a	n/a	1	0	0	0	0
1311.4582	1	82	n/a	n/a	1	0	0	0	0
1312.675	1	10	n/a	n/a	1	52	2.3283e-10	0	1
1313.7084	1	10	n/a	n/a	1	52	0.2	0	2
1314.7916	1	10	n/a	n/a	1	52	-0.1	0	3
1316.0248	1	10	n/a	n/a	1	52	-0.1	0	4
1317.3248	1	10	n/a	n/a	1	52	0.1	0	5
1318.6248	1	21	n/a	n/a	1	52	0.1	0	0
1319.8414	1	10	n/a	n/a	1	52	-2.3283e-10	0	1
1321.0246	1	10	n/a	n/a	1	52	-0.1	0	2
1322.1412	1	10	n/a	n/a	1	52	-2.3283e-10	0	3
1323.2578	1	21	n/a	n/a	1	52	0	0	0
1324.4244	1	10	n/a	n/a	1	52	0	0	1
1325.7076	1	10	n/a	n/a	1	52	2.3283e-10	0	2
1327.0242	1	10	n/a	n/a	1	52	-2.3283e-10	0	3
1328.1742	1	10	n/a	n/a	1	52	0	0	4
1329.374	1	10	n/a	n/a	1	52	-0.1	0	5
1330.5574	1	10	n/a	n/a	1	52	0.1	0	6
1331.824	1	10	n/a	n/a	1	52	0.1	0	7
1333.0906	1	21	n/a	n/a	1	52	0	0	0
1334.3072	1	10	n/a	n/a	1	52	0	0	1
1335.557	1	10	n/a	n/a	1	52	-0.2	0	2
1421.3294	1	82	n/a	n/a	1	0	0	0	0
1421.4324	1	82	n/a	n/a	1	0	-242	0	0
1421.7984	1	82	n/a	n/a	1	0	263	0	0
1421.8384	1	82	n/a	n/a	1	0	-326	0	0
1421.9844	1	82	n/a	n/a	1	0	106	0	0
1422.4044	1	82	n/a	n/a	1	0	274	0	0
1422.5104	1	82	n/a	n/a	1	0	-314	0	0
1422.7364	1	82	n/a	n/a	1	0	120	0	0
1422.7674	1	82	n/a	n/a	1	0	-195	0	0
1423.4264	1	82	n/a	n/a	1	0	1198.4	1	0
1423.9968	1	10	n/a	n/a	1	52	-31	0	1
1425.1134	1	10	n/a	n/a	1	52	-2.3283e-10	0	2
1426.1634	1	10	n/a	n/a	1	52	0.1	0	3
1427.2134	1	21	n/a	n/a	1	52	0	0	0
1428.53	1	10	n/a	n/a	1	52	0.1	0	1
1429.7132	1	10	n/a	n/a	1	52	-0.1	0	2
1430.7798	1	10	n/a	n/a	1	52	0	0	3
1431.963	1	10	n/a	n/a	1	52	-0.1	0	4
1433.063	1	10	n/a	n/a	1	52	0.1	0	5
1434.163	1	21	n/a	n/a	1	52	0	0	0
1435.2296	1	10	n/a	n/a	1	52	0	0	1
1436.2962	1	21	n/a	n/a	1	52	2.3283e-10	0	0
1437.5294	1	10	n/a	n/a	1	52	-2.3283e-10	0	1
1438.7626	1	21	n/a	n/a	1	52	-0.1	0	0
1439.8126	1	10	n/a	n/a	1	52	0.1	0	1
1441.0626	1	10	n/a	n/a	1	52	0	0	2
1442.2124	1	10	n/a	n/a	1	52	-0.1	0	3
1443.4956	1	10	n/a	n/a	1	52	4.6566e-10	0	4
1444.5956	1	10	n/a	n/a	1	52	0	0	5
1445.6956	1	21	n/a	n/a	1	52	0.1	0	0
1452.4502	1	82	n/a	n/a	1	0	-0.2	0	0
1452.4872	1	82	n/a	n/a	1	0	0	0	0
1452.6152	1	82	n/a	n/a	1	0	0	0	0
1452.9672	1	82	n/a	n/a	1	0	0	0	0
1453.2762	1	82	n/a	n/a	1	0	0	0	0
1453.4502	1	82	n/a	n/a	1	0	0	0	0
1453.7672	1	82	n/a	n/a	1	0	0	0	0
1453.8452	1	82	n/a	n/a	1	0	0	0	0
1453.9882	1	82	n/a	n/a	1	0	0	0	0
1454.0952	1	82	n/a	n/a	1	0	0	0	0
1455.4116	1	10	n/a	n/a	1	52	0.1	0	1
1456.5282	1	10	n/a	n/a	1	52	-2.3283e-10	0	2
1457.6782	1	10	n/a	n/a	1	52	0	0	3
1458.8782	1	10	n/a	n/a	1	52	0.1	0	4
1460.0948	1	10	n/a	n/a	1	52	0	0	5
1461.278	1	10	n/a	n/a	1	52	-2.3283e-10	0	6
1462.5446	1	10	n/a	n/a	1	52	0	0	7
1463.8112	1	21	n/a	n/a	1	52	2.3283e-10	0	0
1464.911	1	10	n/a	n/a	1	52	-0.2	0	1
1466.011	1	21	n/a	n/a	1	52	0.1	0	0
1467.211	1	10	n/a	n/a	1	52	0.1	0	1
1468.4776	1	10	n/a	n/a	1	52	0	0	2
1469.5608	1	10	n/a	n/a	1	52	-0.1	0	3
1470.8774	1	10	n/a	n/a	1	52	-2.3283e-10	0	4
1472.094	1	10	n/a	n/a	1	52	0	0	5
1473.1272	1	10	n/a	n/a	1	52	-0.1	0	6
1474.4272	1	10	n/a	n/a	1	52	0.1	0	7
1475.7272	1	21	n/a	n/a	1	52	0.1	0	0
1476.8938	1	10	n/a	n/a	1	52	0	0	1
1477.9604	1	10	n/a	n/a	1	52	-2.3283e-10	0	2
1485.3948	1	82	n/a	n/a	1	0	-0.2	0	0
1485.4478	1	82	n/a	n/a	1	0	0	0	0
1485.5308	1	82	n/a	n/a	1	0	0	0	0
1485.7218	1	82	n/a	n/a	1	0	0	0	0
1485.9768	1	82	n/a	n/a	1	0	0	0	0
1486.3948	1	82	n/a	n/a	1	0	0	0	0
1486.4738	1	82	n/a	n/a	1	0	0	0	0
1486.8538	1	82	n/a	n/a	1	0	0	0	0
1486.8748	1	82	n/a	n/a	1	0	0	0	0
1486.9838	1	82	n/a	n/a	1	0	0	0	0
1488.3764	1	10	n/a	n/a	1	52	0.1	0	1
1489.5096	1	10	n/a	n/a	1	52	4.6566e-10	0	2
1490.5762	1	10	n/a	n/a	1	52	-2.3283e-10	0	3
1491.6428	1	21	n/a	n/a	1	52	-0.1	0	0
1492.8094	1	10	n/a	n/a	1	52	-2.3283e-10	0	1
1493.9094	1	10	n/a	n/a	1	52	0.1	0	2
1495.1926	1	10	n/a	n/a	1	52	4.6566e-10	0	3
1496.4758	1	21	n/a	n/a	1	52	-0.1	0	0
1497.6424	1	10	n/a	n/a	1	52	-2.3283e-10	0	1
1498.6758	1	10	n/a	n/a	1	52	0.1	0	2
1499.7924	1	10	n/a	n/a	1	52	-2.3283e-10	0	3
1500.959	1	10	n/a	n/a	1	52	0	0	4
1502.1922	1	10	n/a	n/a	1	52	2.3283e-10	0	5
1503.4254	1	21	n/a	n/a	1	52	-0.1	0	0
1504.5254	1	10	n/a	n/a	1	52	0.1	0	1
1505.7754	1	10	n/a	n/a	1	52	0	0	2
1506.892	1	10	n/a	n/a	1	52	0	0	3
1507.9752	1	10	n/a	n/a	1	52	2.3283e-10	0	4
1509.2918	1	10	n/a	n/a	1	52	0	0	5
1510.3418	1	10	n/a	n/a	1	52	0	0	6
1519.9502	1	82	n/a	n/a	1	0	-0.1	0	0
1520.0362	1	82	n/a	n/a	1	0	0	0	0
1520.4262	1	82	n/a	n/a	1	0	0	0	0
1520.6642	1	82	n/a	n/a	1	0	0	0	0
1520.7042	1	82	n/a	n/a	1	0	0	0	0
1520.9502	1	82	n/a	n/a	1	0	0	0	0
1521.3522	1	82	n/a	n/a	1	0	0	0	0
1521.4382	1	82	n/a	n/a	1	0	0	0	0
1521.5452	1	82	n/a	n/a	1	0	0	0	0
1521.8872	1	82	n/a	n/a	1	0	0	0	0
1522.9076	1	10	n/a	n/a	1	52	2.3283e-10	0	1
1523.9576	1	10	n/a	n/a	1	52	0.1	0	2
1525.1408	1	10	n/a	n/a	1	52	-0.1	0	3
1526.1742	1	10	n/a	n/a	1	52	0.1	0	4
1527.374	1	10	n/a	n/a	1	52	-0.1	0	5
1528.4572	1	10	n/a	n/a	1	52	-0.1	0	6
1529.524	1	10	n/a	n/a	1	52	0.2	0	7
1530.5906	1	21	n/a	n/a	1	52	4.6566e-10	0	0
1531.6404	1	10	n/a	n/a	1	52	-0.1	0	1
1532.8238	1	10	n/a	n/a	1	52	0.1	0	2
1533.9236	1	10	n/a	n/a	1	52	-0.1	0	3
1535.0736	1	10	n/a	n/a	1	52	0	0	4
1536.2234	1	10	n/a	n/a	1	52	-0.1	0	5
1537.4234	1	10	n/a	n/a	1	52	0.1	0	6
1538.49	1	10	n/a	n/a	1	52	4.6566e-10	0	7
1539.5566	1	21	n/a	n/a	1	52	0	0	0
1540.59	1	10	n/a	n/a	1	52	0.1	0	1
1541.9064	1	10	n/a	n/a	1	52	-0.2	0	2
1543.0064	1	10	n/a	n/a	1	52	0.1	0	3
1544.1064	1	21	n/a	n/a	1	52	0	0	0
1553.694	1	82	n/a	n/a	1	0	-0.1	0	0
1553.813	1	82	n/a	n/a	1	0	0	0	0
1554.079	1	82	n/a	n/a	1	0	0	0	0
1554.114	1	82	n/a	n/a	1	0	0	0	0
1554.495	1	82	n/a	n/a	1	0	0	0	0
1554.694	1	82	n/a	n/a	1	0	0	0	0
1554.841	1	82	n/a	n/a	1	0	0	0	0
1555.013	1	82	n/a	n/a	1	0	0	0	0
1555.245	1	82	n/a	n/a	1	0	0	0	0
1555.333	1	82	n/a	n/a	1	0	0	0	0
1556.7222	1	10	n/a	n/a	1	52	-2.3283e-10	0	1
1557.9222	1	10	n/a	n/a	1	52	0.1	0	2
1559.1222	1	10	n/a	n/a	1	52	0	0	3
1560.4388	1	10	n/a	n/a	1	52	0	0	4
1561.6554	1	10	n/a	n/a	1	52	0.1	0	5
1562.7886	1	10	n/a	n/a	1	52	-0.1	0	6
1563.8886	1	10	n/a	n/a	1	52	0	0	7
1564.9884	1	21	n/a	n/a	1	52	-0.1	0	0
1566.1718	1	10	n/a	n/a	1	52	0.1	0	1
1567.255	1	10	n/a	n/a	1	52	2.3283e-10	0	2
1568.555	1	10	n/a	n/a	1	52	0	0	3
1569.6382	1	10	n/a	n/a	1	52	-2.3283e-10	0	4
1570.9548	1	10	n/a	n/a	1	52	0	0	5
1572.0546	1	10	n/a	n/a	1	52	-0.1	0	6
1573.2712	1	10	n/a	n/a	1	52	-2.3283e-10	0	7
1574.4878	1	21	n/a	n/a	1	52	0	0	0
1575.7044	1	10	n/a	n/a	1	52	2.3283e-10	0	1
1576.7378	1	10	n/a	n/a	1	52	0.1	0	2
1577.8376	1	10	n/a	n/a	1	52	-0.1	0	3
1578.9376	1	21	n/a	n/a	1	52	0	0	0
1673.3368	1	81	n/a	n/a	1	0	-0.1	0	0
1673.5368	1	81	n/a	n/a	1	0	0	0	0
1673.7368	1	81	n/a	n/a	1	0	0	0	0
1673.9368	1	81	n/a	n/a	1	0	0	0	0
1674.1368	1	81	n/a	n/a	1	0	0	0	0
1674.3368	1	81	n/a	n/a	1	0	0	0	0
1674.5368	1	81	n/a	n/a	1	0	0	0	0
1674.7368	1	81	n/a	n/a	1	0	0	0	0
1674.9368	1	81	n/a	n/a	1	0	0	0	0
1675.1368	1	81	n/a	n/a	1	0	0	0	0
1676.3318	1	10	n/a	n/a	1	50	0	0	1
1677.465	1	10	n/a	n/a	1	50	-0.1	0	2
1678.615	1	10	n/a	n/a	1	50	0.1	0	3
1679.7482	1	21	n/a	n/a	1	50	-0.1	0	0
1680.9648	1	10	n/a	n/a	1	50	0	0	1
1682.1982	1	21	n/a	n/a	1	50	17.9	0	0
1683.4648	1	10	n/a	n/a	1	50	-17.7	0	1
1684.7646	1	21	n/a	n/a	1	50	-0.2	0	0
1685.898	1	10	n/a	n/a	1	50	0.2	0	1
1687.0978	1	10	n/a	n/a	1	50	-0.2	0	2
1688.331	1	10	n/a	n/a	1	50	-2.3283e-10	0	3
1689.4144	1	10	n/a	n/a	1	50	0.1	0	4
1690.481	1	10	n/a	n/a	1	50	0	0	5
1691.6142	1	10	n/a	n/a	1	50	-0.1	0	6
1692.8142	1	10	n/a	n/a	1	50	0.1	0	7
1694.014	1	21	n/a	n/a	1	50	-0.1	0	0
1695.2806	1	10	n/a	n/a	1	50	0	0	1
1696.4972	1	10	n/a	n/a	1	50	2.3283e-10	0	2
1697.7306	1	10	n/a	n/a	1	50	0.1	0	3
1699.0304	1	10	n/a	n/a	1	50	-0.1	0	4
1705.874	1	82	n/a	n/a	1	0	0.1	0	0
1706.205	1	82	n/a	n/a	1	0	0	0	0
1706.47	1	82	n/a	n/a	1	0	0	0	0
1706.576	1	82	n/a	n/a	1	0	0	0	0
1706.64	1	82	n/a	n/a	1	0	0	0	0
1706.874	1	82	n/a	n/a	1	0	0	0	0
1706.896	1	82	n/a	n/a	1	0	0	0	0
1707.033	1	82	n/a	n/a	1	0	0	0	0
1707.268	1	82	n/a	n/a	1	0	0	0	0
1707.318	1	82	n/a	n/a	1	0	0	0	0
1708.8466	1	10	n/a	n/a	1	50	0	0	1
1710.1298	1	10	n/a	n/a	1	50	-0.1	0	2
1711.213	1	10	n/a	n/a	1	50	-2.3283e-10	0	3
1712.2964	1	21	n/a	n/a	1	50	0.1	0	0
1713.5296	1	10	n/a	n/a	1	50	-0.1	0	1
1714.5628	1	10	n/a	n/a	1	50	2.3283e-10	0	2
1715.8128	1	10	n/a	n/a	1	50	0	0	3
1717.0628	1	21	n/a	n/a	1	50	0.1	0	0
1718.146	1	10	n/a	n/a	1	50	-0.1	0	1
1719.246	1	10	n/a	n/a	1	50	0.1	0	2
1720.3458	1	10	n/a	n/a	1	50	-0.1	0	3
1721.4792	1	10	n/a	n/a	1	50	0.1	0	4
1722.7124	1	10	n/a	n/a	1	50	-0.1	0	5
1723.9456	1	21	n/a	n/a	1	50	0	0	0
1725.1456	1	10	n/a	n/a	1	50	0	0	1
1726.1954	1	10	n/a	n/a	1	50	-0.1	0	2
1727.4454	1	10	n/a	n/a	1	50	0.1	0	3
1728.6954	1	21	n/a	n/a	1	50	0.1	0	0
1729.7786	1	10	n/a	n/a	1	50	-0.1	0	1
1730.8452	1	10	n/a	n/a	1	50	2.3283e-10	0	2
1739.7336	1	81	n/a	n/a	1	0	-0.1	0	0
1739.9336	1	81	n/a	n/a	1	0	0	0	0
1740.1336	1	81	n/a	n/a	1	0	0	0	0
1740.3336	1	81	n/a	n/a	1	0	0	0	0
1740.5336	1	81	n/a	n/a	1	0	0	0	0
1740.7336	1	81	n/a	n/a	1	0	0	0	0
1740.9336	1	81	n/a	n/a	1	0	0	0	0
1741.1336	1	81	n/a	n/a	1	0	0	0	0
1741.3336	1	81	n/a	n/a	1	0	0	0	0
1741.5336	1	81	n/a	n/a	1	0	0	0	0
1742.8112	1	10	n/a	n/a	1	50	0.1	0	1
1744.0112	1	10	n/a	n/a	1	50	0.1	0	2
1745.2276	1	10	n/a	n/a	1	50	-0.2	0	3
1746.311	1	10	n/a	n/a	1	50	0.1	0	4
1747.6108	1	10	n/a	n/a	1	50	-0.1	0	5
1748.7942	1	10	n/a	n/a	1	50	0.1	0	6
1750.0274	1	10	n/a	n/a	1	50	-2.3283e-10	0	7
1751.9515	1	21	n/a	n/a	1	50	1133.3	1	0
1752.394	1	10	n/a	n/a	1	50	0	0	1
1753.5772	1	10	n/a	n/a	1	50	2.3283e-10	0	2
1754.7772	1	10	n/a	n/a	1	50	0	0	3
1755.977	1	21	n/a	n/a	1	50	-0.1	0	0
1757.0104	1	10	n/a	n/a	1	50	0.1	0	1
1758.0436	1	10	n/a	n/a	1	50	0	0	2
1759.2602	1	10	n/a	n/a	1	50	2.3283e-10	0	3
1760.3102	1	10	n/a	n/a	1	50	0	0	4
1761.6268	1	10	n/a	n/a	1	50	0	0	5
1762.9434	1	21	n/a	n/a	1	50	-2.3283e-10	0	0
1764.0266	1	10	n/a	n/a	1	50	0	0	1
1765.2266	1	10	n/a	n/a	1	50	0	0	2
1775.054	1	82	n/a	n/a	1	0	-0.1	0	0
1775.314	1	82	n/a	n/a	1	0	0	0	0
1775.381	1	82	n/a	n/a	1	0	0	0	0
1775.507	1	82	n/a	n/a	1	0	0	0	0
1775.672	1	82	n/a	n/a	1	0	0	0	0
1776.054	1	82	n/a	n/a	1	0	0	0	0
1776.176	1	82	n/a	n/a	1	0	0	0	0
1776.455	1	82	n/a	n/a	1	0	0	0	0
1776.669	1	82	n/a	n/a	1	0	0	0	0
1776.694	1	82	n/a	n/a	1	0	0	0	0
1778.0924	1	10	n/a	n/a	1	50	0	0	1
1779.159	1	10	n/a	n/a	1	50	0	0	2
1780.2756	1	10	n/a	n/a	1	50	4.6566e-10	0	3
1781.5422	1	10	n/a	n/a	1	50	-2.3283e-10	0	4
1782.7588	1	10	n/a	n/a	1	50	0	0	5
1783.992	1	10	n/a	n/a	1	50	-2.3283e-10	0	6
1785.092	1	10	n/a	n/a	1	50	0	0	7
1786.192	1	21	n/a	n/a	1	50	0.1	0	0
1787.2418	1	10	n/a	n/a	1	50	-0.1	0	1
1788.2918	1	21	n/a	n/a	1	50	0	0	0
1789.5418	1	10	n/a	n/a	1	50	0.1	0	1
1790.6084	1	10	n/a	n/a	1	50	-2.3283e-10	0	2
1791.825	1	10	n/a	n/a	1	50	0	0	3
1793.0416	1	21	n/a	n/a	1	50	0	0	0
1794.1082	1	10	n/a	n/a	1	50	-2.3283e-10	0	1
1795.3414	1	10	n/a	n/a	1	50	-0.1	0	2
1796.508	1	10	n/a	n/a	1	50	0	0	3
1797.7246	1	10	n/a	n/a	1	50	0	0	4
1798.9578	1	10	n/a	n/a	1	50	17.7	0	5
1800.141	1	21	n/a	n/a	1	50	-17.8	0	0
1807.1076	1	81	n/a	n/a	1	0	4.6566e-10	0	0
1807.3076	1	81	n/a	n/a	1	0	0	0	0
1807.5076	1	81	n/a	n/a	1	0	0	0	0
1807.7076	1	81	n/a	n/a	1	0	0	0	0
1807.9076	1	81	n/a	n/a	1	0	0	0	0
1808.1076	1	81	n/a	n/a	1	0	0	0	0
1808.3076	1	81	n/a	n/a	1	0	0	0	0
1808.5076	1	81	n/a	n/a	1	0	0	0	0
1808.7076	1	81	n/a	n/a	1	0	0	0	0
1808.9076	1	81	n/a	n/a	1	0	0	0	0
1810.3072	1	10	n/a	n/a	1	50	0.1	0	1
1811.4738	1	10	n/a	n/a	1	50	0	0	2
1812.7236	1	10	n/a	n/a	1	50	-0.1	0	3
1813.9736	1	21	n/a	n/a	1	50	0.1	0	0
1815.2068	1	10	n/a	n/a	1	50	-0.1	0	1
1816.4402	1	10	n/a	n/a	1	50	0.2	0	2
1817.5568	1	10	n/a	n/a	1	50	4.6566e-10	0	3
1818.6734	1	21	n/a	n/a	1	50	-2.3283e-10	0	0
1819.8066	1	10	n/a	n/a	1	50	-0.1	0	1
1821.0232	1	10	n/a	n/a	1	50	2.3283e-10	0	2
1822.1398	1	10	n/a	n/a	1	50	0	0	3
1823.173	1	10	n/a	n/a	1	50	-0.1	0	4
1824.3396	1	10	n/a	n/a	1	50	4.6566e-10	0	5
1825.3896	1	10	n/a	n/a	1	50	0.1	0	6
1826.4228	1	10	n/a	n/a	1	50	-0.1	0	7
1827.4562	1	21	n/a	n/a	1	50	0.1	0	0
1828.6394	1	10	n/a	n/a	1	50	-2.3283e-10	0	1
1829.8226	1	10	n/a	n/a	1	50	-0.1	0	2
1831.1392	1	10	n/a	n/a	1	50	-2.3283e-10	0	3
1832.2726	1	10	n/a	n/a	1	50	0.1	0	4
1849.6314	1	82	n/a	n/a	1	0	-0.1	0	0
1849.8524	1	82	n/a	n/a	1	0	0	0	0
1850.1934	1	82	n/a	n/a	1	0	0	0	0
1850.2444	1	82	n/a	n/a	1	0	0	0	0
1850.5364	1	82	n/a	n/a	1	0	0	0	0
1850.6314	1	82	n/a	n/a	1	0	0	0	0
1850.6854	1	82	n/a	n/a	1	0	0	0	0
1850.8394	1	82	n/a	n/a	1	0	0	0	0
1851.1824	1	82	n/a	n/a	1	0	0	0	0
1851.4774	1	82	n/a	n/a	1	0	0	0	0
1852.6212	1	10	n/a	n/a	1	52	-0.1	0	1
1853.7212	1	21	n/a	n/a	1	52	0.1	0	0
1855.0044	1	10	n/a	n/a	1	52	-0.1	0	1
1856.1044	1	10	n/a	n/a	1	52	0.1	0	2
1857.1544	1	10	n/a	n/a	1	52	0	0	3
1858.2542	1	10	n/a	n/a	1	52	-0.1	0	4
1859.3376	1	10	n/a	n/a	1	52	0.1	0	5
1860.4208	1	10	n/a	n/a	1	52	-2.3283e-10	0	6
1861.7374	1	10	n/a	n/a	1	52	-2.3283e-10	0	7
1863.054	1	21	n/a	n/a	1	52	0	0	0
1864.0872	1	10	n/a	n/a	1	52	-0.1	0	1
1865.1206	1	21	n/a	n/a	1	52	0.1	0	0
1866.3372	1	10	n/a	n/a	1	52	0.1	0	1
1867.5704	1	10	n/a	n/a	1	52	-0.1	0	2
1868.687	1	10	n/a	n/a	1	52	0	0	3
1869.8036	1	10	n/a	n/a	1	52	4.6566e-10	0	4
1870.9368	1	10	n/a	n/a	1	52	-0.1	0	5
1872.0702	1	21	n/a	n/a	1	52	0.1	0	0
1873.2868	1	10	n/a	n/a	1	52	0.1	0	1
1874.4034	1	10	n/a	n/a	1	52	-0.1	0	2
1883.9758	1	82	n/a	n/a	1	0	-0.1	0	0
1884.3498	1	82	n/a	n/a	1	0	0	0	0
1884.5288	1	82	n/a	n/a	1	0	0	0	0
1884.7828	1	82	n/a	n/a	1	0	0	0	0
1884.8838	1	82	n/a	n/a	1	0	0	0	0
1884.9758	1	82	n/a	n/a	1	0	0	0	0
1885.0368	1	82	n/a	n/a	1	0	0	0	0
1885.3778	1	82	n/a	n/a	1	0	0	0	0
1885.4598	1	82	n/a	n/a	1	0	0	0	0
1885.5838	1	82	n/a	n/a	1	0	0	0	0
1887.036	1	10	n/a	n/a	1	52	0.2	0	1
1888.2692	1	10	n/a	n/a	1	52	-0.1	0	2
1889.5358	1	10	n/a	n/a	1	52	0	0	3
1890.8024	1	21	n/a	n/a	1	52	-2.3283e-10	0	0
1892.0522	1	10	n/a	n/a	1	52	-0.1	0	1
1893.2522	1	10	n/a	n/a	1	52	0	0	2
1894.4188	1	10	n/a	n/a	1	52	0	0	3
1895.5854	1	21	n/a	n/a	1	52	0.1	0	0
1896.7686	1	10	n/a	n/a	1	52	-0.1	0	1
1898.002	1	10	n/a	n/a	1	52	0.1	0	2
1899.2186	1	10	n/a	n/a	1	52	4.6566e-10	0	3
1900.2852	1	10	n/a	n/a	1	52	-2.3283e-10	0	4
1901.4018	1	10	n/a	n/a	1	52	0	0	5
1902.5184	1	21	n/a	n/a	1	52	-2.3283e-10	0	0
1903.8182	1	10	n/a	n/a	1	52	-0.1	0	1
1904.9682	1	10	n/a	n/a	1	52	0.1	0	2
1906.1014	1	10	n/a	n/a	1	52	-0.1	0	3
1907.1848	1	10	n/a	n/a	1	52	0.1	0	4
1908.5012	1	10	n/a	n/a	1	52	-0.2	0	5
1909.5346	1	10	n/a	n/a	1	52	0.2	0	6
1918.581	1	82	n/a	n/a	1	0	-0.2	0	0
1918.894	1	82	n/a	n/a	1	0	0	0	0
1919.066	1	82	n/a	n/a	1	0	0	0	0
1919.21	1	82	n/a	n/a	1	0	0	0	0
1919.472	1	82	n/a	n/a	1	0	0	0	0
1919.581	1	82	n/a	n/a	1	0	0	0	0
1919.834	1	82	n/a	n/a	1	0	0	0	0
1920.007	1	82	n/a	n/a	1	0	0	0	0
1920.297	1	82	n/a	n/a	1	0	0	0	0
1920.347	1	82	n/a	n/a	1	0	0	0	0
1921.5338	1	10	n/a	n/a	1	52	0.1	0	1
1922.6004	1	21	n/a	n/a	1	52	-2.3283e-10	0	0
1923.8504	1	10	n/a	n/a	1	52	0	0	1
1925.1336	1	10	n/a	n/a	1	52	4.6566e-10	0	2
1926.3002	1	10	n/a	n/a	1	52	-2.3283e-10	0	3
1927.4668	1	21	n/a	n/a	1	52	0	0	0
1928.75	1	10	n/a	n/a	1	52	-0.1	0	1
1929.9	1	10	n/a	n/a	1	52	0.1	0	2
1931.15	1	10	n/a	n/a	1	52	0	0	3
1932.4498	1	10	n/a	n/a	1	52	-0.1	0	4
1933.6664	1	10	n/a	n/a	1	52	2.3283e-10	0	5
1934.7664	1	10	n/a	n/a	1	52	0.1	0	6
1935.983	1	10	n/a	n/a	1	52	4.6566e-10	0	7
1937.1996	1	21	n/a	n/a	1	52	0	0	0
1938.3828	1	10	n/a	n/a	1	52	-0.1	0	1
1939.4162	1	10	n/a	n/a	1	52	0.2	0	2
1940.4494	1	10	n/a	n/a	1	52	-0.1	0	3
1941.4994	1	10	n/a	n/a	1	52	0.1	0	4
1942.7326	1	10	n/a	n/a	1	52	-0.1	0	5
1943.9326	1	10	n/a	n/a	1	52	0.1	0	6
1953.297	1	82	n/a	n/a	1	0	-0.2	0	0
1953.405	1	82	n/a	n/a	1	0	0	0	0
1953.736	1	82	n/a	n/a	1	0	0	0	0
1954.098	1	82	n/a	n/a	1	0	0	0	0
1954.252	1	82	n/a	n/a	1	0	0	0	0
1954.297	1	82	n/a	n/a	1	0	0	0	0
1954.343	1	82	n/a	n/a	1	0	0	0	0
1954.431	1	82	n/a	n/a	1	0	0	0	0
1954.748	1	82	n/a	n/a	1	0	0	0	0
1954.992	1	82	n/a	n/a	1	0	0	0	0
1956.3652	1	10	n/a	n/a	1	52	0.1	0	1
1957.4816	1	10	n/a	n/a	1	52	-0.2	0	2
1958.615	1	10	n/a	n/a	1	52	0.2	0	3
1959.6982	1	10	n/a	n/a	1	52	-0.1	0	4
1960.7816	1	10	n/a	n/a	1	52	0.1	0	5
1961.8482	1	10	n/a	n/a	1	52	-2.3283e-10	0	6
1962.9314	1	10	n/a	n/a	1	52	-2.3283e-10	0	7
1964.0146	1	21	n/a	n/a	1	52	-0.1	0	0
1965.1646	1	10	n/a	n/a	1	52	0.1	0	1
1966.4812	1	10	n/a	n/a	1	52	-2.3283e-10	0	2
1967.731	1	10	n/a	n/a	1	52	-0.2	0	3
1968.981	1	21	n/a	n/a	1	52	0.1	0	0
1970.0142	1	10	n/a	n/a	1	52	-0.1	0	1
1971.0476	1	21	n/a	n/a	1	52	0.2	0	0
1972.1142	1	10	n/a	n/a	1	52	-2.3283e-10	0	1
1973.1808	1	21	n/a	n/a	1	52	0	0	0
1974.3974	1	10	n/a	n/a	1	52	-2.3283e-10	0	1
1975.664	1	10	n/a	n/a	1	52	4.6566e-10	0	2
1976.8138	1	10	n/a	n/a	1	52	-0.2	0	3
1977.9638	1	21	n/a	n/a	1	52	0.1	0	0
1987.0072	1	82	n/a	n/a	1	0	-0.1	0	0
1987.3672	1	82	n/a	n/a	1	0	0	0	0
1987.3872	1	82	n/a	n/a	1	0	0	0	0
1987.5252	1	82	n/a	n/a	1	0	0	0	0
1987.8162	1	82	n/a	n/a	1	0	0	0	0
1988.0072	1	82	n/a	n/a	1	0	0	0	0
1988.0572	1	82	n/a	n/a	1	0	0	0	0
1988.2322	1	82	n/a	n/a	1	0	0	0	0
1988.6562	1	82	n/a	n/a	1	0	0	0	0
1988.9202	1	82	n/a	n/a	1	0	0	0	0
1989.963	1	10	n/a	n/a	1	52	2.3283e-10	0	1
1991.0296	1	21	n/a	n/a	1	52	0	0	0
1992.163	1	10	n/a	n/a	1	52	0.1	0	1
1993.4796	1	10	n/a	n/a	1	52	0	0	2
1994.5462	1	10	n/a	n/a	1	52	-2.3283e-10	0	3
1995.6128	1	21	n/a	n/a	1	52	0	0	0
1996.9126	1	10	n/a	n/a	1	52	-0.1	0	1
1998.1792	1	10	n/a	n/a	1	52	-2.3283e-10	0	2
1999.2958	1	10	n/a	n/a	1	52	4.6566e-10	0	3
2000.4958	1	10	n/a	n/a	1	52	0.1	0	4
2001.679	1	10	n/a	n/a	1	52	-0.1	0	5
2002.8624	1	21	n/a	n/a	1	52	0.1	0	0
2003.8956	1	10	n/a	n/a	1	52	0	0	1
2004.9956	1	10	n/a	n/a	1	52	0	0	2
2006.1622	1	10	n/a	n/a	1	52	1.1	0	3
2007.3954	1	10	n/a	n/a	1	52	-1.1	0	4
2008.6454	1	10	n/a	n/a	1	52	0	0	5
2009.8952	1	21	n/a	n/a	1	52	-0.1	0	0
2011.1284	1	10	n/a	n/a	1	52	2.3283e-10	0	1
2012.3618	1	21	n/a	n/a	1	52	0.1	0	0
2086.9212	1	81	n/a	n/a	1	0	0	0	0
2087.1212	1	81	n/a	n/a	1	0	0	0	0
2087.3212	1	81	n/a	n/a	1	0	0	0	0
2087.5212	1	81	n/a	n/a	1	0	0	0	0
2087.7212	1	81	n/a	n/a	1	0	0	0	0
2087.9212	1	81	n/a	n/a	1	0	0	0	0
2088.1212	1	81	n/a	n/a	1	0	0	0	0
2088.3212	1	81	n/a	n/a	1	0	0	0	0
2088.5212	1	81	n/a	n/a	1	0	0	0	0
2088.7212	1	81	n/a	n/a	1	0	0	0	0
2090.1182	1	10	n/a	n/a	1	51	0	0	1
2091.2182	1	10	n/a	n/a	1	51	0	0	2
2092.468	1	10	n/a	n/a	1	51	0	0	3
2093.6514	1	10	n/a	n/a	1	51	0	0	4
2094.9346	1	10	n/a	n/a	1	51	0	0	5
2096.2178	1	21	n/a	n/a	1	51	0	0	0
2097.4844	1	10	n/a	n/a	1	51	0	0	1
2098.701	1	21	n/a	n/a	1	51	0	0	0
2099.9176	1	10	n/a	n/a	1	51	0	0	1
2101.1342	1	21	n/a	n/a	1	51	0	0	0
2102.3508	1	10	n/a	n/a	1	51	0	0	1
2103.6008	1	10	n/a	n/a	1	51	0	0	2
2104.834	1	10	n/a	n/a	1	51	0	0	3
2106.0672	1	21	n/a	n/a	1	51	0	0	0
2107.1006	1	10	n/a	n/a	1	51	0	0	1
2108.1338	1	21	n/a	n/a	1	51	0	0	0
2109.3504	1	10	n/a	n/a	1	51	0	0	1
2110.517	1	10	n/a	n/a	1	51	0	0	2
2111.6836	1	10	n/a	n/a	1	51	0	0	3
2112.8502	1	21	n/a	n/a	1	51	0	0	0
2119.2178	1	81	n/a	n/a	1	0	0	0	0
2119.4178	1	81	n/a	n/a	1	0	0	0	0
2119.6178	1	81	n/a	n/a	1	0	0	0	0
2119.8178	1	81	n/a	n/a	1	0	0	0	0
2120.0178	1	81	n/a	n/a	1	0	0	0	0
2120.2178	1	81	n/a	n/a	1	0	0	0	0
2120.4178	1	81	n/a	n/a	1	0	0	0	0
2120.6178	1	81	n/a	n/a	1	0	0	0	0
2120.8178	1	81	n/a	n/a	1	0	0	0	0
2121.0178	1	81	n/a	n/a	1	0	0	0	0
2122.3662	1	10	n/a	n/a	1	51	0	0	1
2123.6162	1	10	n/a	n/a	1	51	0	0	2
2124.8662	1	10	n/a	n/a	1	51	0	0	3
2125.9328	1	10	n/a	n/a	1	51	0	0	4
2127.1826	1	10	n/a	n/a	1	51	0	0	5
2128.4326	1	21	n/a	n/a	1	51	0	0	0
2129.5158	1	10	n/a	n/a	1	51	0	0	1
2130.6492	1	10	n/a	n/a	1	51	0	0	2
2131.8324	1	10	n/a	n/a	1	51	0	0	3
2132.8824	1	10	n/a	n/a	1	51	0	0	4
2133.9656	1	10	n/a	n/a	1	51	0	0	5
2135.2154	1	10	n/a	n/a	1	51	0	0	6
2136.2988	1	10	n/a	n/a	1	51	0	0	7
2137.382	1	21	n/a	n/a	1	51	0	0	0
2138.632	1	10	n/a	n/a	1	51	0	0	1
2139.7486	1	10	n/a	n/a	1	51	0	0	2
2140.7818	1	10	n/a	n/a	1	51	0	0	3
2141.9484	1	10	n/a	n/a	1	51	0	0	4
2143.015	1	10	n/a	n/a	1	51	0	0	5
2144.1482	1	10	n/a	n/a	1	51	0	0	6
2154.1948	1	81	n/a	n/a	1	0	0	0	0
2154.3948	1	81	n/a	n/a	1	0	0	0	0
2154.5948	1	81	n/a	n/a	1	0	0	0	0
2154.7948	1	81	n/a	n/a	1	0	0	0	0
2154.9948	1	81	n/a	n/a	1	0	0	0	0
2155.1948	1	81	n/a	n/a	1	0	0	0	0
2155.3948	1	81	n/a	n/a	1	0	0	0	0
2155.5948	1	81	n/a	n/a	1	0	0	0	0
2155.7948	1	81	n/a	n/a	1	0	0	0	0
2155.9948	1	81	n/a	n/a	1	0	0	0	0
2157.2308	1	10	n/a	n/a	1	51	0	0	1
2158.4642	1	10	n/a	n/a	1	51	0	0	2
2159.4974	1	10	n/a	n/a	1	51	0	0	3
2160.6306	1	10	n/a	n/a	1	51	0	0	4
2161.7972	1	10	n/a	n/a	1	51	0	0	5
2162.9972	1	10	n/a	n/a	1	51	0	0	6
2164.1138	1	10	n/a	n/a	1	51	0	0	7
2165.2304	1	21	n/a	n/a	1	51	0	0	0
2166.5302	1	10	n/a	n/a	1	51	0	0	1
2167.8468	1	21	n/a	n/a	1	51	0	0	0
2169.0802	1	10	n/a	n/a	1	51	0	0	1
2170.33	1	10	n/a	n/a	1	51	0	0	2
2171.5634	1	10	n/a	n/a	1	51	0	0	3
2172.63	1	10	n/a	n/a	1	51	0	0	4
2173.8132	1	10	n/a	n/a	1	51	0	0	5
2174.9632	1	10	n/a	n/a	1	51	0	0	6
2176.0464	1	10	n/a	n/a	1	51	0	0	7
2177.1296	1	21	n/a	n/a	1	51	0	0	0
2178.2296	1	10	n/a	n/a	1	51	0	0	1
2179.5296	1	10	n/a	n/a	1	51	0	0	2
2186.2452	1	81	n/a	n/a	1	0	0	0	0
2186.4452	1	81	n/a	n/a	1	0	0	0	0
2186.6452	1	81	n/a	n/a	1	0	0	0	0
2186.8452	1	81	n/a	n/a	1	0	0	0	0
2187.0452	1	81	n/a	n/a	1	0	0	0	0
2187.2452	1	81	n/a	n/a	1	0	0	0	0
2187.4452	1	81	n/a	n/a	1	0	0	0	0
2187.6452	1	81	n/a	n/a	1	0	0	0	0
2187.8452	1	81	n/a	n/a	1	0	0	0	0
2188.0452	1	81	n/a	n/a	1	0	0	0	0
2189.2122	1	10	n/a	n/a	1	51	0	0	1
2190.2456	1	10	n/a	n/a	1	51	0	0	2
2191.3622	1	10	n/a	n/a	1	51	0	0	3
2192.4288	1	10	n/a	n/a	1	51	0	0	4
2193.5454	1	10	n/a	n/a	1	51	0	0	5
2194.662	1	21	n/a	n/a	1	51	0	0	0
2195.7618	1	10	n/a	n/a	1	51	0	0	1
2197.0118	1	10	n/a	n/a	1	51	0	0	2
2198.2784	1	10	n/a	n/a	1	51	0	0	3
2199.345	1	10	n/a	n/a	1	51	0	0	4
2200.6616	1	10	n/a	n/a	1	51	0	0	5
2201.9782	1	21	n/a	n/a	1	51	0	0	0
2203.1448	1	10	n/a	n/a	1	51	0	0	1
2204.3114	1	21	n/a	n/a	1	51	0	0	0
2205.6112	1	10	n/a	n/a	1	51	0	0	1
2206.7112	1	10	n/a	n/a	1	51	0	0	2
2208.0112	1	10	n/a	n/a	1	51	0	0	3
2209.0944	1	10	n/a	n/a	1	51	0	0	4
2210.4276	1	10	n/a	n/a	1	51	0	0	5
2211.711	1	10	n/a	n/a	1	51	0	0	6
2220.3804	1	81	n/a	n/a	1	0	0	0	0
2220.5804	1	81	n/a	n/a	1	0	0	0	0
2220.7804	1	81	n/a	n/a	1	0	0	0	0
2220.9804	1	81	n/a	n/a	1	0	0	0	0
2221.1804	1	81	n/a	n/a	1	0	0	0	0
2221.3804	1	81	n/a	n/a	1	0	0	0	0
2221.5804	1	81	n/a	n/a	1	0	0	0	0
2221.7804	1	81	n/a	n/a	1	0	0	0	0
2221.9804	1	81	n/a	n/a	1	0	0	0	0
2222.1804	1	81	n/a	n/a	1	0	0	0	0
2223.3768	1	10	n/a	n/a	1	51	0	0	1
2224.4102	1	10	n/a	n/a	1	51	0	0	2
2225.56	1	10	n/a	n/a	1	51	0	0	3
2226.71	1	21	n/a	n/a	1	51	0	0	0
2227.91	1	10	n/a	n/a	1	51	0	0	1
2228.9766	1	10	n/a	n/a	1	51	0	0	2
2230.0932	1	10	n/a	n/a	1	51	0	0	3
2231.193	1	10	n/a	n/a	1	51	0	0	4
2232.3096	1	10	n/a	n/a	1	51	0	0	5
2233.4262	1	21	n/a	n/a	1	51	0	0	0
2234.6096	1	10	n/a	n/a	1	51	0	0	1
2235.7928	1	21	n/a	n/a	1	51	0	0	0
2236.9428	1	10	n/a	n/a	1	51	0	0	1
2238.2426	1	10	n/a	n/a	1	51	0	0	2
2239.4092	1	10	n/a	n/a	1	51	0	0	3
2240.5426	1	10	n/a	n/a	1	51	0	0	4
2241.8092	1	10	n/a	n/a	1	51	0	0	5
2242.909	1	10	n/a	n/a	1	51	0	0	6
2244.059	1	10	n/a	n/a	1	51	0	0	7
2245.209	1	21	n/a	n/a	1	51	0	0	0
2255.9934	1	82	n/a	n/a	1	0	0	0	0
2256.2404	1	82	n/a	n/a	1	0	0	0	0
2256.5464	1	82	n/a	n/a	1	0	0	0	0
2256.8734	1	82	n/a	n/a	1	0	0	0	0
2256.9474	1	82	n/a	n/a	1	0	0	0	0
2256.9934	1	82	n/a	n/a	1	0	0	0	0
2257.2794	1	82	n/a	n/a	1	0	0	0	0
2257.3394	1	82	n/a	n/a	1	0	0	0	0
2257.7444	1	82	n/a	n/a	1	0	0	0	0
2257.8774	1	82	n/a	n/a	1	0	0	0	0
2259.1914	1	10	n/a	n/a	1	50	0	0	1
2260.3746	1	10	n/a	n/a	1	50	0	0	2
2261.6746	1	10	n/a	n/a	1	50	0	0	3
2262.9078	1	10	n/a	n/a	1	50	0	0	4
2264.2244	1	10	n/a	n/a	1	50	0	0	5
2265.491	1	10	n/a	n/a	1	50	0	0	6
2266.691	1	10	n/a	n/a	1	50	0	0	7
2267.8908	1	21	n/a	n/a	1	50	0	0	0
2269.1242	1	10	n/a	n/a	1	50	0	0	1
2270.424	1	10	n/a	n/a	1	50	0	0	2
2271.5074	1	10	n/a	n/a	1	50	0	0	3
2272.5406	1	10	n/a	n/a	1	50	0	0	4
2273.8238	1	10	n/a	n/a	1	50	0	0	5
2275.1072	1	21	n/a	n/a	1	50	0	0	0
2276.1404	1	10	n/a	n/a	1	50	0	0	1
2277.1736	1	21	n/a	n/a	1	50	0	0	0
2278.4736	1	10	n/a	n/a	1	50	0	0	1
2279.7736	1	21	n/a	n/a	1	50	0	0	0
2281.0568	1	10	n/a	n/a	1	50	0	0	1
2282.1234	1	10	n/a	n/a	1	50	0	0	2
2289.8888	1	82	n/a	n/a	1	0	0	0	0
2290.2838	1	82	n/a	n/a	1	0	0	0	0
2290.3298	1	82	n/a	n/a	1	0	0	0	0
2290.5758	1	82	n/a	n/a	1	0	0	0	0
2290.6818	1	82	n/a	n/a	1	0	0	0	0
2290.8888	1	82	n/a	n/a	1	0	0	0	0
2290.9798	1	82	n/a	n/a	1	0	0	0	0
2291.0398	1	82	n/a	n/a	1	0	0	0	0
2291.0778	1	82	n/a	n/a	1	0	0	0	0
2291.5168	1	82	n/a	n/a	1	0	0	0	0
2293.006	1	10	n/a	n/a	1	50	0	0	1
2294.206	1	10	n/a	n/a	1	50	0	0	2
2295.356	1	10	n/a	n/a	1	50	0	0	3
2296.5726	1	10	n/a	n/a	1	50	0	0	4
2297.8892	1	10	n/a	n/a	1	50	0	0	5
2299.2056	1	21	n/a	n/a	1	50	0	0	0
2300.2556	1	10	n/a	n/a	1	50	0	0	1
2301.4888	1	10	n/a	n/a	1	50	0	0	2
2302.6388	1	10	n/a	n/a	1	50	0	0	3
2303.872	1	10	n/a	n/a	1	50	0	0	4
2305.172	1	10	n/a	n/a	1	50	0	0	5
2306.3552	1	10	n/a	n/a	1	50	0	0	6
2307.5718	1	10	n/a	n/a	1	50	0	0	7
2308.7884	1	21	n/a	n/a	1	50	0	0	0
2310.0384	1	10	n/a	n/a	1	50	0	0	1
2311.0884	1	10	n/a	n/a	1	50	0	0	2
2312.355	1	10	n/a	n/a	1	50	0	0	3
2313.4882	1	10	n/a	n/a	1	50	0	0	4
2314.5382	1	10	n/a	n/a	1	50	0	0	5
2315.588	1	21	n/a	n/a	1	50	0	0	0
2321.7408	1	81	n/a	n/a	1	0	0	0	0
2321.9408	1	81	n/a	n/a	1	0	0	0	0
2322.1408	1	81	n/a	n/a	1	0	0	0	0
2322.3408	1	81	n/a	n/a	1	0	0	0	0
2322.5408	1	81	n/a	n/a	1	0	0	0	0
2322.7408	1	81	n/a	n/a	1	0	0	0	0
2322.9408	1	81	n/a	n/a	1	0	0	0	0
2323.1408	1	81	n/a	n/a	1	0	0	0	0
2323.3408	1	81	n/a	n/a	1	0	0	0	0
2323.5408	1	81	n/a	n/a	1	0	0	0	0
2324.7042	1	10	n/a	n/a	1	50	0	0	1
2325.8374	1	10	n/a	n/a	1	50	0	0	2
2326.9206	1	10	n/a	n/a	1	50	0	0	3
2328.004	1	21	n/a	n/a	1	50	0	0	0
2329.1706	1	10	n/a	n/a	1	50	0	0	1
2330.4038	1	10	n/a	n/a	1	50	0	0	2
2331.5038	1	10	n/a	n/a	1	50	0	0	3
2332.537	1	10	n/a	n/a	1	50	0	0	4
2333.5702	1	10	n/a	n/a	1	50	0	0	5
2334.6036	1	21	n/a	n/a	1	50	0	0	0
2335.8034	1	10	n/a	n/a	1	50	0	0	1
2337.0034	1	21	n/a	n/a	1	50	0	0	0
2338.32	1	10	n/a	n/a	1	50	0	0	1
2339.6032	1	10	n/a	n/a	1	50	0	0	2
2340.7866	1	10	n/a	n/a	1	50	0	0	3
2341.9864	1	10	n/a	n/a	1	50	0	0	4
2343.153	1	10	n/a	n/a	1	50	0	0	5
2344.3196	1	21	n/a	n/a	1	50	0	0	0
2345.403	1	10	n/a	n/a	1	50	0	0	1
2346.5696	1	10	n/a	n/a	1	50	0	0	2
2354.0822	1	81	n/a	n/a	1	0	0	0	0
2354.2822	1	81	n/a	n/a	1	0	0	0	0
2354.4822	1	81	n/a	n/a	1	0	0	0	0
2354.6822	1	81	n/a	n/a	1	0	0	0	0
2354.8822	1	81	n/a	n/a	1	0	0	0	0
2355.0822	1	81	n/a	n/a	1	0	0	0	0
2355.2822	1	81	n/a	n/a	1	0	0	0	0
2355.4822	1	81	n/a	n/a	1	0	0	0	0
2355.6822	1	81	n/a	n/a	1	0	0	0	0
2355.8822	1	81	n/a	n/a	1	0	0	0	0
2357.1856	1	10	n/a	n/a	1	50	0	0	1
2358.3188	1	10	n/a	n/a	1	50	0	0	2
2359.4688	1	10	n/a	n/a	1	50	0	0	3
2360.6186	1	21	n/a	n/a	1	50	0	0	0
2361.7852	1	10	n/a	n/a	1	50	0	0	1
2362.9518	1	21	n/a	n/a	1	50	0	0	0
2364.0184	1	10	n/a	n/a	1	50	0	0	1
2365.085	1	21	n/a	n/a	1	50	0	0	0
2366.3516	1	10	n/a	n/a	1	50	0	0	1
2367.535	1	10	n/a	n/a	1	50	0	0	2
2368.6016	1	10	n/a	n/a	1	50	0	0	3
2369.7348	1	10	n/a	n/a	1	50	0	0	4
2370.9348	1	10	n/a	n/a	1	50	0	0	5
2372.1346	1	21	n/a	n/a	1	50	0	0	0
2373.318	1	10	n/a	n/a	1	50	0	0	1
2374.5012	1	21	n/a	n/a	1	50	0	0	0
2375.6012	1	10	n/a	n/a	1	50	0	0	1
2376.7344	1	10	n/a	n/a	1	50	0	0	2
2377.7676	1	10	n/a	n/a	1	50	0	0	3
2378.801	1	21	n/a	n/a	1	50	0	0	0
2387.5016	1	81	n/a	n/a	1	0	0	0	0
2387.7016	1	81	n/a	n/a	1	0	0	0	0
2387.9016	1	81	n/a	n/a	1	0	0	0	0
2388.1016	1	81	n/a	n/a	1	0	0	0	0
2388.3016	1	81	n/a	n/a	1	0	0	0	0
2388.5016	1	81	n/a	n/a	1	0	0	0	0
2388.7016	1	81	n/a	n/a	1	0	0	0	0
2388.9016	1	81	n/a	n/a	1	0	0	0	0
2389.1016	1	81	n/a	n/a	1	0	0	0	0
2389.3016	1	81	n/a	n/a	1	0	0	0	0
2390.5836	1	10	n/a	n/a	1	50	0	0	1
2391.7002	1	10	n/a	n/a	1	50	0	0	2
2392.8834	1	10	n/a	n/a	1	50	0	0	3
2394.1	1	10	n/a	n/a	1	50	0	0	4
2395.3166	1	10	n/a	n/a	1	50	0	0	5
2396.4998	1	10	n/a	n/a	1	50	0	0	6
2397.6498	1	10	n/a	n/a	1	50	0	0	7
2398.7998	1	21	n/a	n/a	1	50	0	0	0
2399.983	1	10	n/a	n/a	1	50	0	0	1
2401.2996	1	10	n/a	n/a	1	50	0	0	2
2402.4496	1	10	n/a	n/a	1	50	0	0	3
2403.6162	1	10	n/a	n/a	1	50	0	0	4
2404.7494	1	10	n/a	n/a	1	50	0	0	5
2405.8826	1	21	n/a	n/a	1	50	0	0	0
2407.1826	1	10	n/a	n/a	1	50	0	0	1
2408.3658	1	10	n/a	n/a	1	50	0	0	2
2409.5324	1	10	n/a	n/a	1	50	0	0	3
2410.699	1	21	n/a	n/a	1	50	0	0	0
2411.8822	1	10	n/a	n/a	1	50	0	0	1
2412.9156	1	10	n/a	n/a	1	50	0	0	2
2429.7132	1	81	n/a	n/a	1	0	0	0	0
2429.9132	1	81	n/a	n/a	1	0	0	0	0
2430.1132	1	81	n/a	n/a	1	0	0	0	0
2430.3132	1	81	n/a	n/a	1	0	0	0	0
2430.5132	1	81	n/a	n/a	1	0	0	0	0
2430.7132	1	81	n/a	n/a	1	0	0	0	0
2430.9132	1	81	n/a	n/a	1	0	0	0	0
2431.1132	1	81	n/a	n/a	1	0	0	0	0
2431.3132	1	81	n/a	n/a	1	0	0	0	0
2431.5132	1	81	n/a	n/a	1	0	0	0	0
2432.681	1	10	n/a	n/a	1	51	0	0	1
2433.8476	1	10	n/a	n/a	1	51	0	0	2
2434.9476	1	10	n/a	n/a	1	51	0	0	3
2436.0476	1	21	n/a	n/a	1	51	0	0	0
2437.2974	1	10	n/a	n/a	1	51	0	0	1
2438.5306	1	10	n/a	n/a	1	51	0	0	2
2439.7306	1	10	n/a	n/a	1	51	0	0	3
2440.9638	1	10	n/a	n/a	1	51	0	0	4
2442.0138	1	10	n/a	n/a	1	51	0	0	5
2443.0638	1	21	n/a	n/a	1	51	0	0	0
2444.147	1	10	n/a	n/a	1	51	0	0	1
2445.2302	1	21	n/a	n/a	1	51	0	0	0
2446.5636	1	10	n/a	n/a	1	51	0	0	1
2447.6302	1	10	n/a	n/a	1	51	0	0	2
2448.6968	1	10	n/a	n/a	1	51	0	0	3
2449.7634	1	21	n/a	n/a	1	51	0	0	0
2450.9132	1	10	n/a	n/a	1	51	0	0	1
2452.1966	1	10	n/a	n/a	1	51	0	0	2
2453.3798	1	10	n/a	n/a	1	51	0	0	3
2454.4298	1	10	n/a	n/a	1	51	0	0	4
2464.4484	1	81	n/a	n/a	1	0	0	0	0
2464.6484	1	81	n/a	n/a	1	0	0	0	0
2464.8484	1	81	n/a	n/a	1	0	0	0	0
2465.0484	1	81	n/a	n/a	1	0	0	0	0
2465.2484	1	81	n/a	n/a	1	0	0	0	0
2465.4484	1	81	n/a	n/a	1	0	0	0	0
2465.6484	1	81	n/a	n/a	1	0	0	0	0
2465.8484	1	81	n/a	n/a	1	0	0	0	0
2466.0484	1	81	n/a	n/a	1	0	0	0	0
2466.2484	1	81	n/a	n/a	1	0	0	0	0
2467.579	1	10	n/a	n/a	1	51	0	0	1
2468.8122	1	21	n/a	n/a	1	51	0	0	0
2469.9122	1	10	n/a	n/a	1	51	0	0	1
2471.062	1	10	n/a	n/a	1	51	0	0	2
2472.212	1	10	n/a	n/a	1	51	0	0	3
2473.362	1	21	n/a	n/a	1	51	0	0	0
2474.4952	1	10	n/a	n/a	1	51	0	0	1
2475.5452	1	10	n/a	n/a	1	51	0	0	2
2476.595	1	10	n/a	n/a	1	51	0	0	3
2477.7616	1	10	n/a	n/a	1	51	0	0	4
2479.045	1	10	n/a	n/a	1	51	0	0	5
2480.3282	1	21	n/a	n/a	1	51	0	0	0
2481.6114	1	10	n/a	n/a	1	51	0	0	1
2482.678	1	10	n/a	n/a	1	51	0	0	2
2483.9114	1	10	n/a	n/a	1	51	0	0	3
2485.1446	1	21	n/a	n/a	1	51	0	0	0
2486.3278	1	10	n/a	n/a	1	51	0	0	1
2487.461	1	10	n/a	n/a	1	51	0	0	2
2488.761	1	10	n/a	n/a	1	51	0	0	3
2489.9776	1	10	n/a	n/a	1	51	0	0	4
2497.694	1	81	n/a	n/a	1	0	0	0	0
2497.894	1	81	n/a	n/a	1	0	0	0	0
2498.094	1	81	n/a	n/a	1	0	0	0	0
2498.294	1	81	n/a	n/a	1	0	0	0	0
2498.494	1	81	n/a	n/a	1	0	0	0	0
2498.6942	1	81	n/a	n/a	1	0	0	0	0
2498.8942	1	81	n/a	n/a	1	0	0	0	0
2499.0942	1	81	n/a	n/a	1	0	0	0	0
2499.2942	1	81	n/a	n/a	1	0	0	0	0
2499.4942	1	81	n/a	n/a	1	0	0	0	0
2500.6436	1	10	n/a	n/a	1	51	0	0	1
2501.7102	1	10	n/a	n/a	1	51	0	0	2
2502.8602	1	10	n/a	n/a	1	51	0	0	3
2504.0102	1	21	n/a	n/a	1	51	0	0	0
2505.21	1	10	n/a	n/a	1	51	0	0	1
2506.41	1	21	n/a	n/a	1	51	0	0	0
2507.5766	1	10	n/a	n/a	1	51	0	0	1
2508.9098	1	10	n/a	n/a	1	51	0	0	2
2509.943	1	10	n/a	n/a	1	51	0	0	3
2511.0264	1	10	n/a	n/a	1	51	0	0	4
2512.193	1	10	n/a	n/a	1	51	0	0	5
2513.2596	1	10	n/a	n/a	1	51	0	0	6
2514.2928	1	10	n/a	n/a	1	51	0	0	7
2515.3262	1	21	n/a	n/a	1	51	0	0	0
2516.376	1	10	n/a	n/a	1	51	0	0	1
2517.4426	1	10	n/a	n/a	1	51	0	0	2
2518.526	1	10	n/a	n/a	1	51	0	0	3
2519.6092	1	10	n/a	n/a	1	51	0	0	4
2520.6424	1	10	n/a	n/a	1	51	0	0	5
2521.6758	1	21	n/a	n/a	1	51	0	0	0
2531.4944	1	81	n/a	n/a	1	0	0	0	0
2531.6944	1	81	n/a	n/a	1	0	0	0	0
2531.8944	1	81	n/a	n/a	1	0	0	0	0
2532.0944	1	81	n/a	n/a	1	0	0	0	0
2532.2944	1	81	n/a	n/a	1	0	0	0	0
2532.4944	1	81	n/a	n/a	1	0	0	0	0
2532.6944	1	81	n/a	n/a	1	0	0	0	0
2532.8944	1	81	n/a	n/a	1	0	0	0	0
2533.0944	1	81	n/a	n/a	1	0	0	0	0
2533.2944	1	81	n/a	n/a	1	0	0	0	0
2534.425	1	10	n/a	n/a	1	51	0	0	1
2535.5916	1	10	n/a	n/a	1	51	0	0	2
2536.6914	1	10	n/a	n/a	1	51	0	0	3
2537.7914	1	21	n/a	n/a	1	51	0	0	0
2539.008	1	10	n/a	n/a	1	51	0	0	1
2540.0746	1	10	n/a	n/a	1	51	0	0	2
2541.2578	1	10	n/a	n/a	1	51	0	0	3
2542.3244	1	10	n/a	n/a	1	51	0	0	4
2543.4744	1	10	n/a	n/a	1	51	0	0	5
2544.7244	1	10	n/a	n/a	1	51	0	0	6
2545.9576	1	10	n/a	n/a	1	51	0	0	7
2547.1908	1	21	n/a	n/a	1	51	0	0	0
2548.4242	1	10	n/a	n/a	1	51	0	0	1
2549.6074	1	10	n/a	n/a	1	51	0	0	2
2550.6906	1	10	n/a	n/a	1	51	0	0	3
2552.0072	1	10	n/a	n/a	1	51	0	0	4
2553.0906	1	10	n/a	n/a	1	51	0	0	5
2554.3738	1	10	n/a	n/a	1	51	0	0	6
2555.457	1	10	n/a	n/a	1	51	0	0	7
2556.5404	1	21	n/a	n/a	1	51	0	0	0
2564.788	1	81	n/a	n/a	1	0	0	0	0
2564.988	1	81	n/a	n/a	1	0	0	0	0
2565.188	1	81	n/a	n/a	1	0	0	0	0
2565.388	1	81	n/a	n/a	1	0	0	0	0
2565.588	1	81	n/a	n/a	1	0	0	0	0
2565.788	1	81	n/a	n/a	1	0	0	0	0
2565.988	1	81	n/a	n/a	1	0	0	0	0
2566.188	1	81	n/a	n/a	1	0	0	0	0
2566.388	1	81	n/a	n/a	1	0	0	0	0
2566.588	1	81	n/a	n/a	1	0	0	0	0
2567.9062	1	10	n/a	n/a	1	51	0	0	1
2569.1728	1	10	n/a	n/a	1	51	0	0	2
2570.4562	1	10	n/a	n/a	1	51	0	0	3
2571.7394	1	21	n/a	n/a	1	51	0	0	0
2572.7726	1	10	n/a	n/a	1	51	0	0	1
2574.0392	1	10	n/a	n/a	1	51	0	0	2
2575.0892	1	10	n/a	n/a	1	51	0	0	3
2576.2558	1	10	n/a	n/a	1	51	0	0	4
2577.4224	1	10	n/a	n/a	1	51	0	0	5
2578.589	1	21	n/a	n/a	1	51	0	0	0
2579.8722	1	10	n/a	n/a	1	51	0	0	1
2581.0388	1	10	n/a	n/a	1	51	0	0	2
2582.272	1	10	n/a	n/a	1	51	0	0	3
2583.5054	1	21	n/a	n/a	1	51	0	0	0
2584.6052	1	10	n/a	n/a	1	51	0	0	1
2585.7052	1	21	n/a	n/a	1	51	0	0	0
2586.7718	1	10	n/a	n/a	1	51	0	0	1
2588.055	1	10	n/a	n/a	1	51	0	0	2
2589.1884	1	10	n/a	n/a	1	51	0	0	3
2590.3882	1	10	n/a	n/a	1	51	0	0	4
