onset	duration	value	response	rt	good	Acu	estim	trial
0.0164	1	11	2	695.3	1	1	0 2 0	1
3.6625	1	11	1	598.4	1	1	1 0 0	2
5.9767	1	11	1	547.9	1	1	1 0 0	3
8.1911	1	11	2	578.3	1	1	0 2 0	4
11.421	1	11	3	503.5	1	1	0 0 3	5
15.167	1	12	2	910.4	1	1	1 1 2	1
17.9141	1	12	2	862.6	1	1	3 3 2	2
20.1617	1	12	3	799.5	1	1	3 1 1	3
23.5581	1	11	1	593	1	1	1 0 0	1
26.6049	1	11	1	609.9	1	1	1 0 0	2
30.4176	1	11	1	603	1	1	1 0 0	3
32.9149	1	11	1	517.4	1	1	1 0 0	4
35.5288	1	11	2	595.9	1	1	0 2 0	5
38.5756	1	11	2	557.8	1	1	0 2 0	6
42.2883	1	11	1	489.5	1	1	1 0 0	7
45.6847	1	11	1	492.2	1	1	1 0 0	8
47.949	1	12	3	644.9	1	1	3 1 1	1
50.9126	1	12	1	731.1	1	1	2 2 1	2
53.7762	1	12	1	657.7	1	1	2 2 1	1
56.49	1	12	3	878.5	1	1	2 3 2	2
58.4879	1	12	3	701.9	1	1	3 2 2	3
61.0685	1	12	3	470.1	1	1	3 2 2	4
64.2485	1	11	2	532.1	1	1	0 2 0	1
67.5117	1	11	2	569	1	1	0 2 0	2
70.009	1	11	3	476.6	1	1	0 0 3	3
73.855	1	11	3	487.1	1	1	0 0 3	4
77.7009	1	11	3	443.9	1	1	0 0 3	5
81.0141	1	11	3	477.7	1	1	0 0 3	6
84.1274	1	12	2	955.1	1	0	1 3 1	1
86.1586	1	12	3	1035.3	1	1	2 3 2	2
88.2398	1	12	3	836.4	1	1	2 3 2	3
91.3864	1	12	2	946.4	1	1	2 1 1	4
94.9993	1	12	3	1017.3	1	0	3 1 3	5
96.9972	1	12	3	1093.9	1	1	1 3 1	6
100.6433	1	12	3	886.8	1	1	3 2 2	7
103.5236	1	11	1	603.8	1	1	1 0 0	1
106.5204	1	11	3	658.7	1	1	0 0 3	2
108.485	1	11	1	652.4	1	1	1 0 0	3
111.1156	1	11	1	579.8	1	1	1 0 0	4
114.2789	1	12	1	975.1	1	1	2 2 1	1
117.3756	1	12	2	958.1	1	1	3 3 2	2
120.9552	1	12	3	833.4	1	1	3 1 1	3
122.8532	1	12	1	1210.5	1	1	3 1 3	4
124.8344	1	12	2	848.1	1	1	2 1 1	5
127.5149	1	12	2	831.8	1	1	1 1 2	6
130.3619	1	12	3	726.1	1	1	3 2 2	7
133.1423	1	12	1	894.4	1	0	3 3 2	8
135.5564	1	11	3	771	1	1	0 0 3	1
137.4544	1	11	1	528.1	1	1	1 0 0	2
139.752	1	11	1	506.2	1	1	1 0 0	3
141.65	1	12	3	700.7	1	1	3 2 2	1
145.113	1	12	1	623.9	1	1	2 2 1	2
148.3762	1	11	3	652.8	1	1	0 0 3	1
151.5395	1	11	2	649	1	1	0 2 0	2
153.9037	1	11	2	483.8	1	1	0 2 0	3
156.3677	1	11	1	480.6	1	1	1 0 0	4
158.2657	1	11	2	579.5	1	1	0 2 0	5
161.6122	1	11	1	568.7	1	1	1 0 0	1
164.6756	1	11	1	475.9	1	1	1 0 0	2
167.1397	1	11	1	450.8	1	1	1 0 0	3
169.7036	1	11	2	511.2	1	1	0 2 0	4
173.3331	1	11	1	478.8	1	1	1 0 0	5
175.5808	1	11	2	476.9	1	1	0 2 0	6
178.4111	1	12	2	972.5	1	1	2 1 1	1
181.4912	1	12	2	822.2	1	1	3 3 2	2
184.1717	1	12	1	940.3	1	1	3 1 3	3
186.9854	1	12	1	618.6	1	1	2 2 1	4
190.182	1	12	2	1025.2	1	1	2 3 3	5
192.9957	1	12	3	740.6	1	1	3 1 1	6
195.4098	1	12	2	841.7	1	1	1 1 2	7
197.7407	1	11	2	509.1	1	1	0 2 0	1
201.6032	1	11	1	520	1	1	1 0 0	2
203.8342	1	11	3	550.9	1	1	0 0 3	3
207.1807	1	11	3	478.4	1	1	0 0 3	4
209.1619	1	11	2	518.6	1	1	0 2 0	5
212.3086	1	11	2	444.6	1	1	0 2 0	6
215.2555	1	11	3	578.6	1	1	0 0 3	7
218.9682	1	11	1	462.3	1	1	1 0 0	8
221.7985	1	12	1	1108.1	1	1	2 1 2	1
223.9296	1	12	1	952.5	1	1	2 1 2	2
225.9275	1	12	3	782.9	1	1	1 3 1	3
229.5404	1	12	1	910.4	1	1	3 1 3	4
232.3874	1	12	1	626.6	1	1	3 3 1	5
234.6683	1	12	2	654.5	1	1	1 1 2	6
237.765	1	12	3	617.3	1	1	1 3 1	7
239.7962	1	11	2	515.6	1	1	0 2 0	1
242.8929	1	11	1	509.8	1	1	1 0 0	2
246.4725	1	11	2	568.5	1	1	0 2 0	3
249.8689	1	11	1	420	1	1	1 0 0	4
251.7502	1	11	3	486.1	1	1	0 0 3	5
253.7981	1	12	1	992.7	1	0	2 3 3	1
257.6773	1	12	2	823.6	1	1	2 1 1	2
261.4733	1	12	2	699.9	1	1	1 1 2	3
264.1538	1	12	3	719.9	1	1	3 2 2	4
266.3514	1	11	1	510.7	1	1	1 0 0	1
269.0985	1	11	1	542.1	1	1	1 0 0	2
272.3618	1	11	2	649.9	1	1	0 2 0	3
275.009	1	11	1	464.4	1	1	1 0 0	4
277.7727	1	11	1	538.3	1	1	1 0 0	5
280.8195	1	11	1	454	1	1	1 0 0	6
283.7997	1	12	3	521.4	1	0	3 1 3	1
287.5457	1	12	2	865.5	1	1	2 1 1	2
289.6934	1	12	3	668.1	1	1	3 1 1	3
292.4072	1	11	2	643.7	1	1	0 2 0	1
296.12	1	11	2	495.2	1	1	0 2 0	2
299.9826	1	11	3	654.3	1	1	0 0 3	1
302.2635	1	11	3	545.7	1	1	0 0 3	2
305.4102	1	11	1	515.2	1	1	1 0 0	3
307.4746	1	11	1	644.5	1	1	1 0 0	4
309.9886	1	12	2	805.8	1	1	1 1 2	1
312.1031	1	12	1	811.8	1	1	2 1 2	2
315.5827	1	12	1	807.3	1	1	2 1 2	3
319.2289	1	12	2	1062.1	1	1	3 3 2	4
322.3089	1	12	2	1096.9	1	1	2 1 1	5
325.389	1	11	1	436.8	1	1	1 0 0	1
327.5867	1	11	1	428.6	1	1	1 0 0	2
330.8499	1	11	3	536.5	1	1	0 0 3	3
334.213	1	12	2	933.1	1	1	2 1 1	1
337.3597	1	12	1	906	1	1	2 1 2	2
340.5397	1	11	3	484.3	1	1	0 0 3	1
343.8195	1	11	1	558.6	1	1	1 0 0	2
346.5167	1	11	3	691.1	1	1	0 0 3	3
350.346	1	11	2	619.3	1	1	0 2 0	4
352.577	1	11	3	481.7	1	1	0 0 3	5
354.6914	1	11	2	638.1	1	1	0 2 0	6
357.1721	1	11	1	475.2	1	1	1 0 0	7
359.4031	1	12	3	871.5	1	1	3 2 2	1
363.1991	1	12	2	829	1	1	3 3 2	2
366.6787	1	12	2	1024.8	1	1	2 1 1	3
368.5934	1	12	3	828.2	1	1	3 2 2	4
372.1396	1	12	3	960.6	1	1	3 2 2	5
374.8201	1	12	3	777.2	1	1	3 2 2	6
377.9002	1	12	3	849.8	1	1	2 3 2	1
381.1967	1	12	2	828.2	1	0	2 1 2	2
383.8106	1	12	1	919.6	1	1	2 1 2	3
386.1082	1	12	3	546.3	1	1	3 1 1	4
388.8053	1	12	1	704.7	1	1	2 2 1	5
391.5524	1	12	2	918.3	1	1	2 3 3	6
394.9988	1	12	3	910.9	1	1	2 3 2	7
397.1632	1	12	1	620	1	1	2 2 1	8
399.2276	1	11	1	471	1	1	1 0 0	1
402.2245	1	11	3	654.8	1	1	0 0 3	2
404.7052	1	11	1	450.8	1	1	1 0 0	3
407.6188	1	12	3	509.8	1	1	3 2 2	1
409.6832	1	12	1	699.2	1	1	2 1 2	2
412.9132	1	12	2	760.2	1	1	2 1 1	3
414.9776	1	12	3	568	1	1	3 1 1	4
418.3408	1	12	2	744.2	1	1	2 3 3	5
421.9536	1	11	1	454.4	1	1	1 0 0	1
425.7662	1	11	3	451.3	1	1	0 0 3	2
428.8963	1	11	1	411.2	1	1	1 0 0	3
430.9108	1	11	3	419.1	1	1	0 0 3	4
432.8754	1	11	2	479.8	1	1	0 2 0	5
435.8889	1	11	3	492	1	1	0 0 3	6
439.3519	1	12	1	769.4	1	1	3 1 3	1
443.2144	1	12	3	788.7	1	1	1 3 1	2
445.512	1	12	3	529.8	1	1	1 3 1	3
447.41	1	12	3	787.3	1	1	2 3 2	4
450.2237	1	12	1	599.9	1	1	3 3 1	5
452.5213	1	12	2	1205.7	1	1	2 3 3	6
456.3839	1	12	1	570.1	1	1	2 2 1	7
458.7147	1	11	1	528.3	1	1	1 0 0	1
461.6783	1	11	1	564	1	1	1 0 0	2
464.0091	1	11	2	482	1	1	0 2 0	3
466.623	1	11	3	419.1	1	1	0 0 3	4
469.0372	1	11	3	420.9	1	1	0 0 3	5
471.6011	1	11	2	693.5	1	1	0 2 0	6
473.6323	1	11	2	412.3	1	1	0 2 0	7
476.3627	1	11	3	458.3	1	1	0 0 3	8
478.7436	1	11	2	522.6	1	1	0 2 0	1
481.474	1	11	1	433.3	1	1	1 0 0	2
483.4219	1	12	2	827.2	1	0	2 1 2	1
486.1024	1	12	3	854	1	1	3 2 2	2
488.9827	1	12	1	806.1	1	1	2 2 1	3
492.6955	1	12	1	548.5	1	0	1 1 2	4
496.1085	1	12	2	1078.3	1	1	3 3 2	1
498.789	1	12	3	770.5	1	1	3 1 1	2
502.1022	1	12	3	898.8	1	1	1 3 1	3
505.7983	1	11	2	540.6	1	1	0 2 0	1
509.3445	1	11	3	483.6	1	1	0 0 3	2
512.7243	1	11	1	503.8	1	1	1 0 0	3
515.0385	1	11	3	457.6	1	1	0 0 3	4
517.2861	1	11	2	571.9	1	1	0 2 0	5
519.9333	1	11	2	492.9	1	1	0 2 0	6
523.6461	1	12	1	870.8	1	1	3 1 3	1
526.1767	1	12	2	826.3	1	1	3 3 2	2
528.6908	1	12	3	764.1	1	1	3 1 1	3
532.5034	1	12	3	912.3	1	1	1 3 1	4
535.5835	1	12	3	657.8	1	1	1 3 1	5
538.5637	1	11	3	491.9	1	1	0 0 3	1
542.4096	1	11	2	534.7	1	1	0 2 0	2
545.4564	1	11	2	484.6	1	1	0 2 0	3
547.9204	1	11	1	440.5	1	1	1 0 0	4
550.0182	1	11	1	435.4	1	1	1 0 0	5
553.5645	1	11	2	487.4	1	1	0 2 0	6
556.9276	1	11	1	371.3	1	1	1 0 0	7
559.2085	1	12	3	735.6	1	0	2 3 3	1
561.5893	1	12	1	887.8	1	0	2 3 3	2
563.8702	1	11	3	460.2	1	1	0 0 3	1
567.7162	1	11	1	468.7	1	1	1 0 0	2
571.4789	1	11	3	440.7	1	1	0 0 3	3
574.6921	1	11	1	487.3	1	1	1 0 0	4
578.2051	1	11	2	543.9	1	1	0 2 0	5
580.1197	1	11	3	555.7	1	1	0 0 3	6
582.2175	1	11	1	506.2	1	1	1 0 0	7
585.5973	1	11	1	378.3	1	1	1 0 0	8
587.9281	1	12	2	783.8	1	1	1 1 2	1
589.8054	1	12	1	1012.2	1	0	3 3 2	2
591.9073	1	12	1	595.2	1	1	3 3 1	3
595.7032	1	12	2	714	1	1	2 3 3	4
598.3338	1	11	2	542.6	1	1	0 2 0	1
601.8301	1	11	1	476.3	1	1	1 0 0	2
603.9612	1	11	3	541.1	1	1	0 0 3	3
607.0579	1	11	3	433.9	1	1	0 0 3	4
610.3045	1	11	2	461.3	1	1	0 2 0	5
612.7852	1	11	3	456.5	1	1	0 0 3	6
616.0983	1	11	1	416.4	1	1	1 0 0	7
619.5114	1	12	3	695.9	1	1	3 1 1	1
621.4926	1	12	1	543.9	1	1	2 2 1	2
624.6893	1	12	2	1051.7	1	1	2 1 1	3
627.1034	1	12	3	689	1	1	3 1 1	4
629.7006	1	12	2	673.9	1	1	2 1 1	5
632.3478	1	12	1	819.1	1	1	2 1 2	6
635.661	1	12	1	576.9	1	1	3 3 1	7
639.4403	1	12	1	612.2	1	1	2 1 2	8
643.0199	1	11	2	626.8	1	1	0 2 0	1
646.05	1	11	2	478.1	1	1	0 2 0	2
649.3132	1	12	3	775.7	1	1	3 1 1	1
652.2601	1	12	2	1017.3	1	0	1 3 1	2
654.7908	1	12	1	1069.7	1	1	3 1 3	3
657.8376	1	12	1	541	1	1	3 1 3	4
661.4837	1	11	2	515.2	1	1	0 2 0	1
665.1964	1	11	1	495.2	1	1	1 0 0	2
667.8103	1	11	2	537.2	1	1	0 2 0	3
671.4065	1	11	3	665.8	1	1	0 0 3	4
674.5366	1	11	1	468.1	1	1	1 0 0	5
678.3492	1	12	3	663.4	1	1	1 3 1	1
680.5136	1	12	1	880.1	1	1	2 1 2	2
682.4116	1	12	3	735.2	1	1	3 1 1	3
684.6758	1	12	2	914.9	1	1	2 1 1	1
687.6394	1	12	1	737.6	1	1	3 3 1	2
690.4531	1	12	3	717.3	1	1	3 2 2	3
692.401	1	12	2	772.8	1	1	2 3 3	4
695.4977	1	12	1	702.8	1	1	2 2 1	5
698.9774	1	12	3	671.4	1	1	3 2 2	6
702.8233	1	11	3	544	1	1	0 0 3	1
706.5527	1	11	2	501.1	1	1	0 2 0	2
708.4674	1	11	3	751	1	1	0 0 3	3
711.0979	1	11	3	452.2	1	1	0 0 3	4
713.8283	1	11	1	447.2	1	1	1 0 0	5
716.1759	1	11	2	397.3	1	1	0 2 0	6
718.6732	1	12	2	757.5	1	1	2 3 3	1
721.6867	1	12	1	699.7	1	1	2 1 2	2
725.4327	1	12	3	883.3	1	1	3 1 1	3
728.9957	1	11	1	477.3	1	1	1 0 0	1
732.5585	1	11	2	542	1	1	0 2 0	2
735.5554	1	11	2	491.4	1	1	0 2 0	3
737.6365	1	11	1	505	1	1	1 0 0	4
741.2327	1	11	2	532.2	1	1	0 2 0	5
744.2628	1	11	3	408.6	1	1	0 0 3	6
746.2441	1	11	1	478.9	1	1	1 0 0	7
748.2919	1	11	1	480.5	1	1	1 0 0	8
751.6051	1	12	3	749.8	1	1	3 2 2	1
753.9526	1	12	1	587.8	1	1	3 3 1	2
755.9338	1	12	2	657.9	1	1	2 3 3	3
758.8974	1	12	2	686.2	1	1	2 1 1	4
761.0118	1	12	1	1013.8	1	1	3 1 3	5
764.4748	1	12	2	816.8	1	1	2 3 3	6
768.021	1	12	3	624.5	1	1	3 1 1	7
770.9013	1	12	3	1009.3	1	1	2 3 2	1
774.3976	1	12	1	792.9	1	0	3 3 2	2
778.2269	1	12	2	762.3	1	1	1 1 2	3
781.1905	1	12	-99	-99	1	0	2 1 1	4
783.1384	1	11	3	484.3	1	1	0 0 3	1
786.1019	1	11	2	530.4	1	1	0 2 0	2
789.9479	1	12	3	776.4	1	1	1 3 1	1
792.029	1	12	3	708.7	1	1	3 2 2	2
794.26	1	12	2	1068	1	1	3 3 2	3
797.5565	1	12	1	768.1	1	1	3 1 3	4
799.5044	1	12	3	731.6	1	1	3 2 2	5
802.0684	1	11	3	432.4	1	1	0 0 3	1
804.6989	1	11	2	523.1	1	1	0 2 0	2
807.8956	1	11	2	456.2	1	1	0 2 0	3
811.1088	1	11	3	440.8	1	1	0 0 3	4
814.8382	1	11	1	409.9	1	1	1 0 0	5
817.3189	1	11	2	486.5	1	1	0 2 0	6
820.2325	1	11	3	358.3	1	1	0 0 3	7
822.7299	1	11	3	377.7	1	1	0 0 3	8
826.426	1	12	3	763.6	1	1	1 3 1	1
828.3739	1	12	1	1114.5	1	1	3 3 1	2
831.0711	1	12	2	645.9	1	1	3 3 2	3
833.2687	1	12	2	805.4	1	1	1 1 2	4
836.9315	1	12	2	750.9	1	1	2 3 3	5
840.0449	1	12	2	678.2	1	1	2 1 1	6
843.9075	1	12	2	661.7	1	1	1 1 2	7
846.3382	1	11	1	465.4	1	1	1 0 0	1
848.7191	1	11	3	453.4	1	1	0 0 3	2
850.717	1	11	2	481.8	1	1	0 2 0	3
853.3309	1	12	3	648.3	1	1	3 2 2	1
