onset	duration	value	response	rt	good	TMS	seq
42.1932	1	82	n/a	n/a	1	0	0
42.5362	1	82	n/a	n/a	1	0	0
42.5852	1	82	n/a	n/a	1	0	0
42.7362	1	82	n/a	n/a	1	0	0
43.1262	1	82	n/a	n/a	1	0	0
43.1932	1	82	n/a	n/a	1	0	0
43.3362	1	82	n/a	n/a	1	0	0
43.6032	1	82	n/a	n/a	1	0	0
43.8072	1	82	n/a	n/a	1	0	0
44.1622	1	82	n/a	n/a	1	0	0
45.1942	1	10	n/a	n/a	1	52	1
46.394	1	10	n/a	n/a	1	52	2
47.5106	1	10	n/a	n/a	1	52	3
48.744	1	10	n/a	n/a	1	52	4
50.0606	1	10	n/a	n/a	1	52	5
51.3772	1	21	n/a	n/a	1	52	0
52.627	1	10	n/a	n/a	1	52	1
53.8104	1	10	n/a	n/a	1	52	2
55.1102	1	10	n/a	n/a	1	52	3
56.4102	1	21	n/a	n/a	1	52	0
57.7268	1	10	n/a	n/a	1	52	1
59.0434	1	10	n/a	n/a	1	52	2
60.0932	1	10	n/a	n/a	1	52	3
61.2266	1	10	n/a	n/a	1	52	4
62.4764	1	10	n/a	n/a	1	52	5
63.693	1	10	n/a	n/a	1	52	6
64.743	1	10	n/a	n/a	1	52	7
65.793	1	21	n/a	n/a	1	52	0
66.9428	1	10	n/a	n/a	1	52	1
68.2094	1	10	n/a	n/a	1	52	2
69.0262	1	82	n/a	n/a	1	0	0
69.3522	1	82	n/a	n/a	1	0	0
69.7222	1	82	n/a	n/a	1	0	0
69.7622	1	82	n/a	n/a	1	0	0
69.8652	1	82	n/a	n/a	1	0	0
70.0262	1	82	n/a	n/a	1	0	0
70.0682	1	82	n/a	n/a	1	0	0
70.1672	1	82	n/a	n/a	1	0	0
70.4104	1	82	n/a	n/a	1	0	0
70.7854	1	82	n/a	n/a	1	0	0
72.0258	1	10	n/a	n/a	1	52	1
73.1258	1	21	n/a	n/a	1	52	0
74.309	1	10	n/a	n/a	1	52	1
75.459	1	10	n/a	n/a	1	52	2
76.7422	1	10	n/a	n/a	1	52	3
77.7922	1	10	n/a	n/a	1	52	4
78.9588	1	10	n/a	n/a	1	52	5
80.1088	1	10	n/a	n/a	1	52	6
81.3086	1	10	n/a	n/a	1	52	7
82.5086	1	21	n/a	n/a	1	52	0
83.6252	1	10	n/a	n/a	1	52	1
84.6752	1	10	n/a	n/a	1	52	2
85.9418	1	10	n/a	n/a	1	52	3
87.0916	1	10	n/a	n/a	1	52	4
88.1916	1	10	n/a	n/a	1	52	5
89.5082	1	10	n/a	n/a	1	52	6
90.6414	1	10	n/a	n/a	1	52	7
91.7748	1	21	n/a	n/a	1	52	0
92.9746	1	10	n/a	n/a	1	52	1
94.058	1	10	n/a	n/a	1	52	2
95.0748	1	82	n/a	n/a	1	0	0
95.1358	1	82	n/a	n/a	1	0	0
95.2308	1	82	n/a	n/a	1	0	0
95.5138	1	82	n/a	n/a	1	0	0
95.7588	1	82	n/a	n/a	1	0	0
96.0748	1	82	n/a	n/a	1	0	0
96.2478	1	82	n/a	n/a	1	0	0
96.2828	1	82	n/a	n/a	1	0	0
96.6438	1	82	n/a	n/a	1	0	0
96.9378	1	82	n/a	n/a	1	0	0
98.191	1	10	n/a	n/a	1	52	1
99.3242	1	10	n/a	n/a	1	52	2
100.5242	1	10	n/a	n/a	1	52	3
101.6574	1	10	n/a	n/a	1	52	4
102.874	1	10	n/a	n/a	1	52	5
104.124	1	10	n/a	n/a	1	52	6
105.4406	1	10	n/a	n/a	1	52	7
106.7572	1	21	n/a	n/a	1	52	0
107.9238	1	10	n/a	n/a	1	52	1
109.1238	1	10	n/a	n/a	1	52	2
110.3902	1	10	n/a	n/a	1	52	3
111.4902	1	10	n/a	n/a	1	52	4
112.6068	1	10	n/a	n/a	1	52	5
113.6734	1	10	n/a	n/a	1	52	6
114.7568	1	10	n/a	n/a	1	52	7
115.84	1	21	n/a	n/a	1	52	0
116.99	1	10	n/a	n/a	1	52	1
118.3064	1	10	n/a	n/a	1	52	2
119.523	1	10	n/a	n/a	1	52	3
120.7396	1	21	n/a	n/a	1	52	0
121.6974	1	82	n/a	n/a	1	0	0
122.1114	1	82	n/a	n/a	1	0	0
122.3334	1	82	n/a	n/a	1	0	0
122.3984	1	82	n/a	n/a	1	0	0
122.5294	1	82	n/a	n/a	1	0	0
122.6974	1	82	n/a	n/a	1	0	0
122.8724	1	82	n/a	n/a	1	0	0
123.2314	1	82	n/a	n/a	1	0	0
123.2704	1	82	n/a	n/a	1	0	0
123.3354	1	82	n/a	n/a	1	0	0
124.8562	1	10	n/a	n/a	1	52	1
126.006	1	10	n/a	n/a	1	52	2
127.3226	1	10	n/a	n/a	1	52	3
128.6392	1	21	n/a	n/a	1	52	0
129.7558	1	10	n/a	n/a	1	52	1
130.8724	1	10	n/a	n/a	1	52	2
131.939	1	10	n/a	n/a	1	52	3
133.2222	1	10	n/a	n/a	1	52	4
134.2722	1	10	n/a	n/a	1	52	5
135.5222	1	10	n/a	n/a	1	52	6
136.7388	1	10	n/a	n/a	1	52	7
137.9554	1	21	n/a	n/a	1	52	0
138.9886	1	10	n/a	n/a	1	52	1
140.0218	1	21	n/a	n/a	1	52	0
141.1884	1	10	n/a	n/a	1	52	1
142.355	1	21	n/a	n/a	1	52	0
143.4384	1	10	n/a	n/a	1	52	1
144.6382	1	10	n/a	n/a	1	52	2
145.8548	1	10	n/a	n/a	1	52	3
146.9548	1	10	n/a	n/a	1	52	4
147.8754	1	82	n/a	n/a	1	0	0
148.2864	1	82	n/a	n/a	1	0	0
148.4564	1	82	n/a	n/a	1	0	0
148.4864	1	82	n/a	n/a	1	0	0
148.7644	1	82	n/a	n/a	1	0	0
148.8754	1	82	n/a	n/a	1	0	0
149.1284	1	82	n/a	n/a	1	0	0
149.1724	1	82	n/a	n/a	1	0	0
149.4614	1	82	n/a	n/a	1	0	0
149.6264	1	82	n/a	n/a	1	0	0
151.0878	1	10	n/a	n/a	1	52	1
152.1544	1	10	n/a	n/a	1	52	2
153.4544	1	10	n/a	n/a	1	52	3
154.521	1	10	n/a	n/a	1	52	4
155.671	1	10	n/a	n/a	1	52	5
156.8208	1	21	n/a	n/a	1	52	0
158.0708	1	10	n/a	n/a	1	52	1
159.254	1	10	n/a	n/a	1	52	2
160.4874	1	10	n/a	n/a	1	52	3
161.5206	1	10	n/a	n/a	1	52	4
162.5872	1	10	n/a	n/a	1	52	5
163.8704	1	10	n/a	n/a	1	52	6
165.1704	1	10	n/a	n/a	1	52	7
166.4704	1	21	n/a	n/a	1	52	0
167.7036	1	10	n/a	n/a	1	52	1
168.8702	1	10	n/a	n/a	1	52	2
169.9034	1	10	n/a	n/a	1	52	3
171.02	1	10	n/a	n/a	1	52	4
172.2366	1	10	n/a	n/a	1	52	5
173.4532	1	21	n/a	n/a	1	52	0
219.3256	1	82	n/a	n/a	1	0	0
219.4526	1	82	n/a	n/a	1	0	0
219.7046	1	82	n/a	n/a	1	0	0
219.7366	1	82	n/a	n/a	1	0	0
220.0696	1	82	n/a	n/a	1	0	0
220.3256	1	82	n/a	n/a	1	0	0
220.4136	1	82	n/a	n/a	1	0	0
220.6906	1	82	n/a	n/a	1	0	0
220.7156	1	82	n/a	n/a	1	0	0
220.9546	1	82	n/a	n/a	1	0	0
222.367	1	10	n/a	n/a	1	50	1
223.5502	1	10	n/a	n/a	1	50	2
224.8668	1	10	n/a	n/a	1	50	3
226.0502	1	10	n/a	n/a	1	50	4
227.25	1	10	n/a	n/a	1	50	5
228.45	1	21	n/a	n/a	1	50	0
229.6832	1	10	n/a	n/a	1	50	1
230.9832	1	10	n/a	n/a	1	50	2
232.1332	1	10	n/a	n/a	1	50	3
233.1664	1	10	n/a	n/a	1	50	4
234.2164	1	10	n/a	n/a	1	50	5
235.2662	1	21	n/a	n/a	1	50	0
236.4662	1	10	n/a	n/a	1	50	1
237.6994	1	10	n/a	n/a	1	50	2
238.8328	1	10	n/a	n/a	1	50	3
239.966	1	21	n/a	n/a	1	50	0
241.2826	1	10	n/a	n/a	1	50	1
242.3992	1	10	n/a	n/a	1	50	2
243.6324	1	10	n/a	n/a	1	50	3
244.7824	1	10	n/a	n/a	1	50	4
245.6098	1	82	n/a	n/a	1	0	0
245.6718	1	82	n/a	n/a	1	0	0
245.8198	1	82	n/a	n/a	1	0	0
246.2188	1	82	n/a	n/a	1	0	0
246.5538	1	82	n/a	n/a	1	0	0
246.6098	1	82	n/a	n/a	1	0	0
246.7228	1	82	n/a	n/a	1	0	0
247.0328	1	82	n/a	n/a	1	0	0
247.2208	1	82	n/a	n/a	1	0	0
247.5738	1	82	n/a	n/a	1	0	0
248.7488	1	10	n/a	n/a	1	50	1
249.782	1	10	n/a	n/a	1	50	2
250.882	1	10	n/a	n/a	1	50	3
251.9152	1	10	n/a	n/a	1	50	4
252.9652	1	10	n/a	n/a	1	50	5
254.0152	1	21	n/a	n/a	1	50	0
255.1818	1	10	n/a	n/a	1	50	1
256.4484	1	10	n/a	n/a	1	50	2
257.565	1	10	n/a	n/a	1	50	3
258.7482	1	10	n/a	n/a	1	50	4
259.8814	1	10	n/a	n/a	1	50	5
261.0314	1	10	n/a	n/a	1	50	6
262.2646	1	10	n/a	n/a	1	50	7
263.498	1	21	n/a	n/a	1	50	0
264.5478	1	10	n/a	n/a	1	50	1
265.5978	1	21	n/a	n/a	1	50	0
266.7478	1	10	n/a	n/a	1	50	1
267.931	1	10	n/a	n/a	1	50	2
268.9642	1	10	n/a	n/a	1	50	3
270.1808	1	10	n/a	n/a	1	50	4
271.0456	1	82	n/a	n/a	1	0	0
271.3206	1	82	n/a	n/a	1	0	0
271.4096	1	82	n/a	n/a	1	0	0
271.8186	1	82	n/a	n/a	1	0	0
271.9556	1	82	n/a	n/a	1	0	0
272.0456	1	82	n/a	n/a	1	0	0
272.3676	1	82	n/a	n/a	1	0	0
272.5306	1	82	n/a	n/a	1	0	0
272.6176	1	82	n/a	n/a	1	0	0
272.9056	1	82	n/a	n/a	1	0	0
274.014	1	10	n/a	n/a	1	50	1
275.1638	1	10	n/a	n/a	1	50	2
276.3472	1	10	n/a	n/a	1	50	3
277.6304	1	10	n/a	n/a	1	50	4
278.847	1	10	n/a	n/a	1	50	5
280.0636	1	21	n/a	n/a	1	50	0
281.1636	1	10	n/a	n/a	1	50	1
282.2634	1	10	n/a	n/a	1	50	2
283.48	1	10	n/a	n/a	1	50	3
284.5466	1	10	n/a	n/a	1	50	4
285.8132	1	10	n/a	n/a	1	50	5
286.9966	1	10	n/a	n/a	1	50	6
288.2464	1	10	n/a	n/a	1	50	7
289.4964	1	21	n/a	n/a	1	50	0
290.763	1	10	n/a	n/a	1	50	1
291.9462	1	10	n/a	n/a	1	50	2
293.0462	1	10	n/a	n/a	1	50	3
294.1462	1	21	n/a	n/a	1	50	0
295.4126	1	10	n/a	n/a	1	50	1
296.6792	1	21	n/a	n/a	1	50	0
297.6448	1	82	n/a	n/a	1	0	0
298.0468	1	82	n/a	n/a	1	0	0
298.1208	1	82	n/a	n/a	1	0	0
298.1668	1	82	n/a	n/a	1	0	0
298.3148	1	82	n/a	n/a	1	0	0
298.6448	1	82	n/a	n/a	1	0	0
298.7998	1	82	n/a	n/a	1	0	0
298.9138	1	82	n/a	n/a	1	0	0
299.1848	1	82	n/a	n/a	1	0	0
299.2358	1	82	n/a	n/a	1	0	0
300.6624	1	10	n/a	n/a	1	50	1
301.779	1	21	n/a	n/a	1	50	0
302.929	1	10	n/a	n/a	1	50	1
303.9622	1	10	n/a	n/a	1	50	2
305.1954	1	10	n/a	n/a	1	50	3
306.412	1	10	n/a	n/a	1	50	4
307.6786	1	10	n/a	n/a	1	50	5
308.912	1	10	n/a	n/a	1	50	6
309.9786	1	10	n/a	n/a	1	50	7
311.0452	1	21	n/a	n/a	1	50	0
312.345	1	10	n/a	n/a	1	50	1
313.545	1	10	n/a	n/a	1	50	2
314.8116	1	10	n/a	n/a	1	50	3
315.9448	1	10	n/a	n/a	1	50	4
317.2448	1	10	n/a	n/a	1	50	5
318.5614	1	10	n/a	n/a	1	50	6
319.728	1	10	n/a	n/a	1	50	7
320.8946	1	21	n/a	n/a	1	50	0
322.0112	1	10	n/a	n/a	1	50	1
323.311	1	10	n/a	n/a	1	50	2
324.4126	1	82	n/a	n/a	1	0	0
324.4496	1	82	n/a	n/a	1	0	0
324.8386	1	82	n/a	n/a	1	0	0
325.0116	1	82	n/a	n/a	1	0	0
325.2626	1	82	n/a	n/a	1	0	0
325.4126	1	82	n/a	n/a	1	0	0
325.7046	1	82	n/a	n/a	1	0	0
325.8356	1	82	n/a	n/a	1	0	0
325.8906	1	82	n/a	n/a	1	0	0
326.2516	1	82	n/a	n/a	1	0	0
327.5274	1	10	n/a	n/a	1	50	1
328.744	1	10	n/a	n/a	1	50	2
330.0606	1	10	n/a	n/a	1	50	3
331.3772	1	21	n/a	n/a	1	50	0
332.4272	1	10	n/a	n/a	1	50	1
333.5604	1	10	n/a	n/a	1	50	2
334.627	1	10	n/a	n/a	1	50	3
335.777	1	10	n/a	n/a	1	50	4
336.977	1	10	n/a	n/a	1	50	5
338.1768	1	21	n/a	n/a	1	50	0
339.4434	1	10	n/a	n/a	1	50	1
340.76	1	10	n/a	n/a	1	50	2
341.8266	1	10	n/a	n/a	1	50	3
342.9432	1	10	n/a	n/a	1	50	4
344.0432	1	10	n/a	n/a	1	50	5
345.2264	1	10	n/a	n/a	1	50	6
346.4264	1	10	n/a	n/a	1	50	7
347.6262	1	21	n/a	n/a	1	50	0
348.9096	1	10	n/a	n/a	1	50	1
350.1928	1	10	n/a	n/a	1	50	2
379.7244	1	81	n/a	n/a	1	0	0
379.9244	1	81	n/a	n/a	1	0	0
380.1244	1	81	n/a	n/a	1	0	0
380.3244	1	81	n/a	n/a	1	0	0
380.5244	1	81	n/a	n/a	1	0	0
380.7244	1	81	n/a	n/a	1	0	0
380.9244	1	81	n/a	n/a	1	0	0
381.1244	1	81	n/a	n/a	1	0	0
381.3244	1	81	n/a	n/a	1	0	0
381.5244	1	81	n/a	n/a	1	0	0
382.6576	1	10	n/a	n/a	1	51	1
383.6908	1	21	n/a	n/a	1	51	0
385.0074	1	10	n/a	n/a	1	51	1
386.324	1	21	n/a	n/a	1	51	0
387.4072	1	10	n/a	n/a	1	51	1
388.4738	1	10	n/a	n/a	1	51	2
389.6072	1	10	n/a	n/a	1	51	3
390.8238	1	10	n/a	n/a	1	51	4
392.0404	1	10	n/a	n/a	1	51	5
393.257	1	21	n/a	n/a	1	51	0
394.4402	1	10	n/a	n/a	1	51	1
395.6568	1	10	n/a	n/a	1	51	2
396.7568	1	10	n/a	n/a	1	51	3
397.8566	1	21	n/a	n/a	1	51	0
399.1232	1	10	n/a	n/a	1	51	1
400.2898	1	10	n/a	n/a	1	51	2
401.4064	1	10	n/a	n/a	1	51	3
402.5564	1	10	n/a	n/a	1	51	4
403.7896	1	10	n/a	n/a	1	51	5
404.9396	1	10	n/a	n/a	1	51	6
405.8012	1	81	n/a	n/a	1	0	0
406.0012	1	81	n/a	n/a	1	0	0
406.2012	1	81	n/a	n/a	1	0	0
406.4012	1	81	n/a	n/a	1	0	0
406.6012	1	81	n/a	n/a	1	0	0
406.8012	1	81	n/a	n/a	1	0	0
407.0012	1	81	n/a	n/a	1	0	0
407.2012	1	81	n/a	n/a	1	0	0
407.4012	1	81	n/a	n/a	1	0	0
407.6012	1	81	n/a	n/a	1	0	0
408.806	1	10	n/a	n/a	1	51	1
409.9226	1	21	n/a	n/a	1	51	0
411.1892	1	10	n/a	n/a	1	51	1
412.4058	1	10	n/a	n/a	1	51	2
413.4558	1	10	n/a	n/a	1	51	3
414.7224	1	10	n/a	n/a	1	51	4
415.8556	1	10	n/a	n/a	1	51	5
416.9888	1	21	n/a	n/a	1	51	0
418.0222	1	10	n/a	n/a	1	51	1
419.222	1	10	n/a	n/a	1	51	2
420.4386	1	10	n/a	n/a	1	51	3
421.522	1	10	n/a	n/a	1	51	4
422.7218	1	10	n/a	n/a	1	51	5
423.9218	1	21	n/a	n/a	1	51	0
424.9884	1	10	n/a	n/a	1	51	1
426.0884	1	10	n/a	n/a	1	51	2
427.355	1	10	n/a	n/a	1	51	3
428.6214	1	21	n/a	n/a	1	51	0
429.688	1	10	n/a	n/a	1	51	1
430.9046	1	10	n/a	n/a	1	51	2
431.9794	1	81	n/a	n/a	1	0	0
432.1794	1	81	n/a	n/a	1	0	0
432.3794	1	81	n/a	n/a	1	0	0
432.5794	1	81	n/a	n/a	1	0	0
432.7794	1	81	n/a	n/a	1	0	0
432.9794	1	81	n/a	n/a	1	0	0
433.1794	1	81	n/a	n/a	1	0	0
433.3794	1	81	n/a	n/a	1	0	0
433.5794	1	81	n/a	n/a	1	0	0
433.7794	1	81	n/a	n/a	1	0	0
434.9544	1	10	n/a	n/a	1	51	1
436.221	1	10	n/a	n/a	1	51	2
437.3044	1	10	n/a	n/a	1	51	3
438.5542	1	10	n/a	n/a	1	51	4
439.8542	1	10	n/a	n/a	1	51	5
441.154	1	21	n/a	n/a	1	51	0
442.304	1	10	n/a	n/a	1	51	1
443.454	1	10	n/a	n/a	1	51	2
444.4872	1	10	n/a	n/a	1	51	3
445.5204	1	21	n/a	n/a	1	51	0
446.7538	1	10	n/a	n/a	1	51	1
447.987	1	21	n/a	n/a	1	51	0
449.1202	1	10	n/a	n/a	1	51	1
450.4368	1	10	n/a	n/a	1	51	2
451.6868	1	10	n/a	n/a	1	51	3
452.9868	1	10	n/a	n/a	1	51	4
454.0534	1	10	n/a	n/a	1	51	5
455.12	1	21	n/a	n/a	1	51	0
456.4366	1	10	n/a	n/a	1	51	1
457.6364	1	10	n/a	n/a	1	51	2
458.6142	1	81	n/a	n/a	1	0	0
458.8142	1	81	n/a	n/a	1	0	0
459.0142	1	81	n/a	n/a	1	0	0
459.2142	1	81	n/a	n/a	1	0	0
459.4142	1	81	n/a	n/a	1	0	0
459.6142	1	81	n/a	n/a	1	0	0
459.8142	1	81	n/a	n/a	1	0	0
460.0142	1	81	n/a	n/a	1	0	0
460.2142	1	81	n/a	n/a	1	0	0
460.4142	1	81	n/a	n/a	1	0	0
461.6196	1	10	n/a	n/a	1	51	1
462.7362	1	21	n/a	n/a	1	51	0
464.0194	1	10	n/a	n/a	1	51	1
465.3026	1	21	n/a	n/a	1	51	0
466.4026	1	10	n/a	n/a	1	51	1
467.5526	1	10	n/a	n/a	1	51	2
468.7858	1	10	n/a	n/a	1	51	3
470.019	1	21	n/a	n/a	1	51	0
471.3024	1	10	n/a	n/a	1	51	1
472.369	1	10	n/a	n/a	1	51	2
473.4188	1	10	n/a	n/a	1	51	3
474.5354	1	10	n/a	n/a	1	51	4
475.8354	1	10	n/a	n/a	1	51	5
477.1352	1	21	n/a	n/a	1	51	0
478.2852	1	10	n/a	n/a	1	51	1
479.4352	1	21	n/a	n/a	1	51	0
480.7518	1	10	n/a	n/a	1	51	1
482.0684	1	21	n/a	n/a	1	51	0
483.285	1	10	n/a	n/a	1	51	1
484.5016	1	21	n/a	n/a	1	51	0
485.5742	1	81	n/a	n/a	1	0	0
485.7742	1	81	n/a	n/a	1	0	0
485.9742	1	81	n/a	n/a	1	0	0
486.1742	1	81	n/a	n/a	1	0	0
486.3742	1	81	n/a	n/a	1	0	0
486.5742	1	81	n/a	n/a	1	0	0
486.7742	1	81	n/a	n/a	1	0	0
486.9742	1	81	n/a	n/a	1	0	0
487.1742	1	81	n/a	n/a	1	0	0
487.3742	1	81	n/a	n/a	1	0	0
488.768	1	10	n/a	n/a	1	51	1
489.8346	1	10	n/a	n/a	1	51	2
491.0012	1	10	n/a	n/a	1	51	3
492.251	1	10	n/a	n/a	1	51	4
493.4344	1	10	n/a	n/a	1	51	5
494.6176	1	21	n/a	n/a	1	51	0
495.9342	1	10	n/a	n/a	1	51	1
497.1508	1	10	n/a	n/a	1	51	2
498.2508	1	10	n/a	n/a	1	51	3
499.3506	1	21	n/a	n/a	1	51	0
500.434	1	10	n/a	n/a	1	51	1
501.6338	1	10	n/a	n/a	1	51	2
502.7838	1	10	n/a	n/a	1	51	3
503.917	1	10	n/a	n/a	1	51	4
505.1004	1	10	n/a	n/a	1	51	5
506.2836	1	21	n/a	n/a	1	51	0
507.3168	1	10	n/a	n/a	1	51	1
508.3502	1	21	n/a	n/a	1	51	0
509.6666	1	10	n/a	n/a	1	51	1
510.7	1	10	n/a	n/a	1	51	2
573.8014	1	82	n/a	n/a	1	0	0
573.9314	1	82	n/a	n/a	1	0	0
574.2764	1	82	n/a	n/a	1	0	0
574.5804	1	82	n/a	n/a	1	0	0
574.6264	1	82	n/a	n/a	1	0	0
574.8014	1	82	n/a	n/a	1	0	0
575.1884	1	82	n/a	n/a	1	0	0
575.4484	1	82	n/a	n/a	1	0	0
575.4744	1	82	n/a	n/a	1	0	0
575.5334	1	82	n/a	n/a	1	0	0
576.996	1	10	n/a	n/a	1	52	1
578.2794	1	10	n/a	n/a	1	52	2
579.3626	1	10	n/a	n/a	1	52	3
580.5126	1	10	n/a	n/a	1	52	4
581.6124	1	10	n/a	n/a	1	52	5
582.7624	1	10	n/a	n/a	1	52	6
583.929	1	10	n/a	n/a	1	52	7
585.0956	1	21	n/a	n/a	1	52	0
586.3622	1	10	n/a	n/a	1	52	1
587.6288	1	21	n/a	n/a	1	52	0
588.8286	1	10	n/a	n/a	1	52	1
589.9952	1	10	n/a	n/a	1	52	2
591.3118	1	10	n/a	n/a	1	52	3
592.6284	1	21	n/a	n/a	1	52	0
593.8618	1	10	n/a	n/a	1	52	1
595.0284	1	10	n/a	n/a	1	52	2
596.2282	1	10	n/a	n/a	1	52	3
597.4282	1	21	n/a	n/a	1	52	0
598.5448	1	10	n/a	n/a	1	52	1
599.5948	1	10	n/a	n/a	1	52	2
600.4832	1	82	n/a	n/a	1	0	0
600.6442	1	82	n/a	n/a	1	0	0
600.7562	1	82	n/a	n/a	1	0	0
601.0712	1	82	n/a	n/a	1	0	0
601.1402	1	82	n/a	n/a	1	0	0
601.4832	1	82	n/a	n/a	1	0	0
601.6022	1	82	n/a	n/a	1	0	0
601.6422	1	82	n/a	n/a	1	0	0
601.9832	1	82	n/a	n/a	1	0	0
602.3482	1	82	n/a	n/a	1	0	0
603.4944	1	10	n/a	n/a	1	52	1
604.761	1	10	n/a	n/a	1	52	2
605.7944	1	10	n/a	n/a	1	52	3
607.0776	1	10	n/a	n/a	1	52	4
608.3442	1	10	n/a	n/a	1	52	5
609.6108	1	21	n/a	n/a	1	52	0
610.8774	1	10	n/a	n/a	1	52	1
612.144	1	21	n/a	n/a	1	52	0
613.344	1	10	n/a	n/a	1	52	1
614.4272	1	10	n/a	n/a	1	52	2
615.5438	1	10	n/a	n/a	1	52	3
616.6938	1	10	n/a	n/a	1	52	4
617.8104	1	10	n/a	n/a	1	52	5
618.9102	1	10	n/a	n/a	1	52	6
620.0102	1	10	n/a	n/a	1	52	7
621.1102	1	21	n/a	n/a	1	52	0
622.1934	1	10	n/a	n/a	1	52	1
623.4766	1	10	n/a	n/a	1	52	2
624.51	1	10	n/a	n/a	1	52	3
625.5598	1	10	n/a	n/a	1	52	4
626.6516	1	82	n/a	n/a	1	0	0
626.7716	1	82	n/a	n/a	1	0	0
626.9316	1	82	n/a	n/a	1	0	0
627.1796	1	82	n/a	n/a	1	0	0
627.5456	1	82	n/a	n/a	1	0	0
627.6516	1	82	n/a	n/a	1	0	0
627.9186	1	82	n/a	n/a	1	0	0
628.0656	1	82	n/a	n/a	1	0	0
628.3736	1	82	n/a	n/a	1	0	0
628.5416	1	82	n/a	n/a	1	0	0
629.7762	1	10	n/a	n/a	1	52	1
631.0096	1	21	n/a	n/a	1	52	0
632.1094	1	10	n/a	n/a	1	52	1
633.1594	1	10	n/a	n/a	1	52	2
634.2594	1	10	n/a	n/a	1	52	3
635.3092	1	10	n/a	n/a	1	52	4
636.5426	1	10	n/a	n/a	1	52	5
637.7758	1	21	n/a	n/a	1	52	0
639.0758	1	10	n/a	n/a	1	52	1
640.159	1	10	n/a	n/a	1	52	2
641.3756	1	10	n/a	n/a	1	52	3
642.4088	1	10	n/a	n/a	1	52	4
643.6254	1	10	n/a	n/a	1	52	5
644.7254	1	10	n/a	n/a	1	52	6
645.792	1	10	n/a	n/a	1	52	7
646.8586	1	21	n/a	n/a	1	52	0
648.0418	1	10	n/a	n/a	1	52	1
649.2252	1	10	n/a	n/a	1	52	2
650.3918	1	10	n/a	n/a	1	52	3
651.7084	1	10	n/a	n/a	1	52	4
652.802	1	82	n/a	n/a	1	0	0
652.83	1	82	n/a	n/a	1	0	0
653.244	1	82	n/a	n/a	1	0	0
653.446	1	82	n/a	n/a	1	0	0
653.584	1	82	n/a	n/a	1	0	0
653.802	1	82	n/a	n/a	1	0	0
654.106	1	82	n/a	n/a	1	0	0
654.267	1	82	n/a	n/a	1	0	0
654.544	1	82	n/a	n/a	1	0	0
654.769	1	82	n/a	n/a	1	0	0
655.8248	1	10	n/a	n/a	1	52	1
657.058	1	10	n/a	n/a	1	52	2
658.158	1	10	n/a	n/a	1	52	3
659.2578	1	21	n/a	n/a	1	52	0
660.5578	1	10	n/a	n/a	1	52	1
661.791	1	10	n/a	n/a	1	52	2
662.891	1	10	n/a	n/a	1	52	3
663.991	1	10	n/a	n/a	1	52	4
665.1408	1	10	n/a	n/a	1	52	5
666.2908	1	10	n/a	n/a	1	52	6
667.3908	1	10	n/a	n/a	1	52	7
668.4906	1	21	n/a	n/a	1	52	0
669.7406	1	10	n/a	n/a	1	52	1
671.0404	1	10	n/a	n/a	1	52	2
672.207	1	10	n/a	n/a	1	52	3
673.2904	1	10	n/a	n/a	1	52	4
674.4236	1	10	n/a	n/a	1	52	5
675.7236	1	10	n/a	n/a	1	52	6
676.9568	1	10	n/a	n/a	1	52	7
678.19	1	21	n/a	n/a	1	52	0
679.0166	1	82	n/a	n/a	1	0	0
679.0546	1	82	n/a	n/a	1	0	0
679.4696	1	82	n/a	n/a	1	0	0
679.5396	1	82	n/a	n/a	1	0	0
679.8556	1	82	n/a	n/a	1	0	0
680.0166	1	82	n/a	n/a	1	0	0
680.1806	1	82	n/a	n/a	1	0	0
680.5276	1	82	n/a	n/a	1	0	0
680.6286	1	82	n/a	n/a	1	0	0
680.9366	1	82	n/a	n/a	1	0	0
682.1732	1	10	n/a	n/a	1	52	1
683.2732	1	10	n/a	n/a	1	52	2
684.523	1	10	n/a	n/a	1	52	3
685.773	1	21	n/a	n/a	1	52	0
686.9728	1	10	n/a	n/a	1	52	1
688.2394	1	10	n/a	n/a	1	52	2
689.3394	1	10	n/a	n/a	1	52	3
690.4394	1	21	n/a	n/a	1	52	0
691.6726	1	10	n/a	n/a	1	52	1
692.9058	1	21	n/a	n/a	1	52	0
694.1892	1	10	n/a	n/a	1	52	1
695.489	1	10	n/a	n/a	1	52	2
696.6724	1	10	n/a	n/a	1	52	3
697.989	1	10	n/a	n/a	1	52	4
699.2388	1	10	n/a	n/a	1	52	5
700.4054	1	10	n/a	n/a	1	52	6
701.5054	1	10	n/a	n/a	1	52	7
702.6052	1	21	n/a	n/a	1	52	0
703.7886	1	10	n/a	n/a	1	52	1
704.9718	1	10	n/a	n/a	1	52	2
726.322	1	81	n/a	n/a	1	0	0
726.522	1	81	n/a	n/a	1	0	0
726.722	1	81	n/a	n/a	1	0	0
726.922	1	81	n/a	n/a	1	0	0
727.122	1	81	n/a	n/a	1	0	0
727.322	1	81	n/a	n/a	1	0	0
727.522	1	81	n/a	n/a	1	0	0
727.722	1	81	n/a	n/a	1	0	0
727.922	1	81	n/a	n/a	1	0	0
728.122	1	81	n/a	n/a	1	0	0
729.5038	1	10	n/a	n/a	1	50	1
730.687	1	10	n/a	n/a	1	50	2
731.7536	1	10	n/a	n/a	1	50	3
732.8202	1	21	n/a	n/a	1	50	0
734.1202	1	10	n/a	n/a	1	50	1
735.3366	1	10	n/a	n/a	1	50	2
736.42	1	10	n/a	n/a	1	50	3
737.52	1	10	n/a	n/a	1	50	4
738.6032	1	10	n/a	n/a	1	50	5
739.6364	1	10	n/a	n/a	1	50	6
740.7698	1	10	n/a	n/a	1	50	7
741.903	1	21	n/a	n/a	1	50	0
742.953	1	10	n/a	n/a	1	50	1
744.0862	1	10	n/a	n/a	1	50	2
745.4028	1	10	n/a	n/a	1	50	3
746.7194	1	21	n/a	n/a	1	50	0
748.036	1	10	n/a	n/a	1	50	1
749.3526	1	21	n/a	n/a	1	50	0
750.6192	1	10	n/a	n/a	1	50	1
751.8858	1	10	n/a	n/a	1	50	2
752.9854	1	81	n/a	n/a	1	0	0
753.1854	1	81	n/a	n/a	1	0	0
753.3854	1	81	n/a	n/a	1	0	0
753.5854	1	81	n/a	n/a	1	0	0
753.7854	1	81	n/a	n/a	1	0	0
753.9854	1	81	n/a	n/a	1	0	0
754.1854	1	81	n/a	n/a	1	0	0
754.3854	1	81	n/a	n/a	1	0	0
754.5854	1	81	n/a	n/a	1	0	0
754.7854	1	81	n/a	n/a	1	0	0
756.0688	1	10	n/a	n/a	1	50	1
757.302	1	10	n/a	n/a	1	50	2
758.402	1	10	n/a	n/a	1	50	3
759.502	1	21	n/a	n/a	1	50	0
760.6186	1	10	n/a	n/a	1	50	1
761.9184	1	10	n/a	n/a	1	50	2
762.9684	1	10	n/a	n/a	1	50	3
764.1184	1	10	n/a	n/a	1	50	4
765.2516	1	10	n/a	n/a	1	50	5
766.5016	1	10	n/a	n/a	1	50	6
767.6682	1	10	n/a	n/a	1	50	7
768.8348	1	21	n/a	n/a	1	50	0
769.9346	1	10	n/a	n/a	1	50	1
771.2346	1	10	n/a	n/a	1	50	2
772.4844	1	10	n/a	n/a	1	50	3
773.601	1	10	n/a	n/a	1	50	4
774.851	1	10	n/a	n/a	1	50	5
776.101	1	21	n/a	n/a	1	50	0
777.4176	1	10	n/a	n/a	1	50	1
778.7342	1	21	n/a	n/a	1	50	0
779.5318	1	81	n/a	n/a	1	0	0
779.7318	1	81	n/a	n/a	1	0	0
779.9318	1	81	n/a	n/a	1	0	0
780.1318	1	81	n/a	n/a	1	0	0
780.3318	1	81	n/a	n/a	1	0	0
780.5318	1	81	n/a	n/a	1	0	0
780.7318	1	81	n/a	n/a	1	0	0
780.9318	1	81	n/a	n/a	1	0	0
781.1318	1	81	n/a	n/a	1	0	0
781.3318	1	81	n/a	n/a	1	0	0
782.484	1	10	n/a	n/a	1	50	1
783.7838	1	10	n/a	n/a	1	50	2
785.0504	1	10	n/a	n/a	1	50	3
786.317	1	21	n/a	n/a	1	50	0
787.417	1	10	n/a	n/a	1	50	1
788.5502	1	10	n/a	n/a	1	50	2
789.8502	1	10	n/a	n/a	1	50	3
791.15	1	21	n/a	n/a	1	50	0
792.3666	1	10	n/a	n/a	1	50	1
793.6166	1	10	n/a	n/a	1	50	2
794.6998	1	10	n/a	n/a	1	50	3
795.7832	1	21	n/a	n/a	1	50	0
796.983	1	10	n/a	n/a	1	50	1
798.1164	1	10	n/a	n/a	1	50	2
799.4162	1	10	n/a	n/a	1	50	3
800.7162	1	21	n/a	n/a	1	50	0
801.816	1	10	n/a	n/a	1	50	1
802.916	1	10	n/a	n/a	1	50	2
804.0492	1	10	n/a	n/a	1	50	3
805.1326	1	10	n/a	n/a	1	50	4
805.9582	1	81	n/a	n/a	1	0	0
806.1582	1	81	n/a	n/a	1	0	0
806.3582	1	81	n/a	n/a	1	0	0
806.5582	1	81	n/a	n/a	1	0	0
806.7582	1	81	n/a	n/a	1	0	0
806.9582	1	81	n/a	n/a	1	0	0
807.1582	1	81	n/a	n/a	1	0	0
807.3582	1	81	n/a	n/a	1	0	0
807.5582	1	81	n/a	n/a	1	0	0
807.7582	1	81	n/a	n/a	1	0	0
808.999	1	10	n/a	n/a	1	50	1
810.2156	1	10	n/a	n/a	1	50	2
811.4156	1	10	n/a	n/a	1	50	3
812.4488	1	10	n/a	n/a	1	50	4
813.6654	1	10	n/a	n/a	1	50	5
814.7486	1	10	n/a	n/a	1	50	6
816.0486	1	10	n/a	n/a	1	50	7
817.3486	1	21	n/a	n/a	1	50	0
818.4652	1	10	n/a	n/a	1	50	1
819.6484	1	10	n/a	n/a	1	50	2
820.965	1	10	n/a	n/a	1	50	3
822.2482	1	10	n/a	n/a	1	50	4
823.5482	1	10	n/a	n/a	1	50	5
824.848	1	21	n/a	n/a	1	50	0
825.9146	1	10	n/a	n/a	1	50	1
827.1312	1	10	n/a	n/a	1	50	2
828.2478	1	10	n/a	n/a	1	50	3
829.2812	1	10	n/a	n/a	1	50	4
830.331	1	10	n/a	n/a	1	50	5
831.5644	1	10	n/a	n/a	1	50	6
832.3	1	81	n/a	n/a	1	0	0
832.5	1	81	n/a	n/a	1	0	0
832.7	1	81	n/a	n/a	1	0	0
832.9	1	81	n/a	n/a	1	0	0
833.1	1	81	n/a	n/a	1	0	0
833.3	1	81	n/a	n/a	1	0	0
833.5	1	81	n/a	n/a	1	0	0
833.7	1	81	n/a	n/a	1	0	0
833.9	1	81	n/a	n/a	1	0	0
834.1	1	81	n/a	n/a	1	0	0
835.4308	1	10	n/a	n/a	1	50	1
836.614	1	10	n/a	n/a	1	50	2
837.6474	1	10	n/a	n/a	1	50	3
838.7472	1	10	n/a	n/a	1	50	4
839.8472	1	10	n/a	n/a	1	50	5
841.0804	1	10	n/a	n/a	1	50	6
842.1304	1	10	n/a	n/a	1	50	7
843.1804	1	21	n/a	n/a	1	50	0
844.447	1	10	n/a	n/a	1	50	1
845.7134	1	10	n/a	n/a	1	50	2
847.0134	1	10	n/a	n/a	1	50	3
848.3134	1	21	n/a	n/a	1	50	0
849.4966	1	10	n/a	n/a	1	50	1
850.6132	1	10	n/a	n/a	1	50	2
851.7632	1	10	n/a	n/a	1	50	3
852.913	1	21	n/a	n/a	1	50	0
854.1796	1	10	n/a	n/a	1	50	1
855.413	1	10	n/a	n/a	1	50	2
856.6462	1	10	n/a	n/a	1	50	3
857.9128	1	10	n/a	n/a	1	50	4
886.6342	1	81	n/a	n/a	1	0	0
886.8342	1	81	n/a	n/a	1	0	0
887.0342	1	81	n/a	n/a	1	0	0
887.2342	1	81	n/a	n/a	1	0	0
887.4342	1	81	n/a	n/a	1	0	0
887.6342	1	81	n/a	n/a	1	0	0
887.8342	1	81	n/a	n/a	1	0	0
888.0342	1	81	n/a	n/a	1	0	0
888.2342	1	81	n/a	n/a	1	0	0
888.4342	1	81	n/a	n/a	1	0	0
889.7442	1	10	n/a	n/a	1	51	1
890.9608	1	21	n/a	n/a	1	51	0
892.0108	1	10	n/a	n/a	1	51	1
893.2106	1	10	n/a	n/a	1	51	2
894.4106	1	10	n/a	n/a	1	51	3
895.4938	1	10	n/a	n/a	1	51	4
896.7604	1	10	n/a	n/a	1	51	5
897.8438	1	10	n/a	n/a	1	51	6
899.1604	1	10	n/a	n/a	1	51	7
900.477	1	21	n/a	n/a	1	51	0
901.5936	1	10	n/a	n/a	1	51	1
902.9102	1	10	n/a	n/a	1	51	2
904.0934	1	10	n/a	n/a	1	51	3
905.3434	1	10	n/a	n/a	1	51	4
906.41	1	10	n/a	n/a	1	51	5
907.5098	1	10	n/a	n/a	1	51	6
908.7098	1	10	n/a	n/a	1	51	7
909.9098	1	21	n/a	n/a	1	51	0
910.993	1	10	n/a	n/a	1	51	1
912.0762	1	21	n/a	n/a	1	51	0
913.0506	1	81	n/a	n/a	1	0	0
913.2506	1	81	n/a	n/a	1	0	0
913.4506	1	81	n/a	n/a	1	0	0
913.6506	1	81	n/a	n/a	1	0	0
913.8506	1	81	n/a	n/a	1	0	0
914.0506	1	81	n/a	n/a	1	0	0
914.2506	1	81	n/a	n/a	1	0	0
914.4506	1	81	n/a	n/a	1	0	0
914.6506	1	81	n/a	n/a	1	0	0
914.8506	1	81	n/a	n/a	1	0	0
916.2094	1	10	n/a	n/a	1	51	1
917.376	1	10	n/a	n/a	1	51	2
918.5426	1	10	n/a	n/a	1	51	3
919.7092	1	21	n/a	n/a	1	51	0
920.759	1	10	n/a	n/a	1	51	1
921.7924	1	10	n/a	n/a	1	51	2
922.8756	1	10	n/a	n/a	1	51	3
924.0088	1	10	n/a	n/a	1	51	4
925.1754	1	10	n/a	n/a	1	51	5
926.342	1	21	n/a	n/a	1	51	0
927.4254	1	10	n/a	n/a	1	51	1
928.6252	1	10	n/a	n/a	1	51	2
929.8252	1	10	n/a	n/a	1	51	3
930.9252	1	10	n/a	n/a	1	51	4
932.025	1	10	n/a	n/a	1	51	5
933.125	1	21	n/a	n/a	1	51	0
934.2082	1	10	n/a	n/a	1	51	1
935.4248	1	10	n/a	n/a	1	51	2
936.6248	1	10	n/a	n/a	1	51	3
937.7248	1	10	n/a	n/a	1	51	4
938.7164	1	81	n/a	n/a	1	0	0
938.9164	1	81	n/a	n/a	1	0	0
939.1164	1	81	n/a	n/a	1	0	0
939.3164	1	81	n/a	n/a	1	0	0
939.5164	1	81	n/a	n/a	1	0	0
939.7164	1	81	n/a	n/a	1	0	0
939.9164	1	81	n/a	n/a	1	0	0
940.1164	1	81	n/a	n/a	1	0	0
940.3164	1	81	n/a	n/a	1	0	0
940.5164	1	81	n/a	n/a	1	0	0
941.8912	1	10	n/a	n/a	1	51	1
943.1244	1	10	n/a	n/a	1	51	2
944.2244	1	10	n/a	n/a	1	51	3
945.441	1	10	n/a	n/a	1	51	4
946.6242	1	10	n/a	n/a	1	51	5
947.8074	1	10	n/a	n/a	1	51	6
948.8408	1	10	n/a	n/a	1	51	7
949.874	1	21	n/a	n/a	1	51	0
950.9406	1	10	n/a	n/a	1	51	1
952.0072	1	21	n/a	n/a	1	51	0
953.0572	1	10	n/a	n/a	1	51	1
954.107	1	21	n/a	n/a	1	51	0
955.1736	1	10	n/a	n/a	1	51	1
956.2402	1	21	n/a	n/a	1	51	0
957.5402	1	10	n/a	n/a	1	51	1
958.6234	1	10	n/a	n/a	1	51	2
959.6568	1	10	n/a	n/a	1	51	3
960.69	1	10	n/a	n/a	1	51	4
961.8066	1	10	n/a	n/a	1	51	5
962.9232	1	21	n/a	n/a	1	51	0
963.6608	1	81	n/a	n/a	1	0	0
963.8608	1	81	n/a	n/a	1	0	0
964.0608	1	81	n/a	n/a	1	0	0
964.2608	1	81	n/a	n/a	1	0	0
964.4608	1	81	n/a	n/a	1	0	0
964.661	1	81	n/a	n/a	1	0	0
964.861	1	81	n/a	n/a	1	0	0
965.061	1	81	n/a	n/a	1	0	0
965.261	1	81	n/a	n/a	1	0	0
965.461	1	81	n/a	n/a	1	0	0
966.8564	1	10	n/a	n/a	1	51	1
967.9062	1	10	n/a	n/a	1	51	2
968.9562	1	10	n/a	n/a	1	51	3
970.0894	1	10	n/a	n/a	1	51	4
971.2228	1	10	n/a	n/a	1	51	5
972.356	1	21	n/a	n/a	1	51	0
973.5392	1	10	n/a	n/a	1	51	1
974.7392	1	10	n/a	n/a	1	51	2
976.0392	1	10	n/a	n/a	1	51	3
977.2224	1	10	n/a	n/a	1	51	4
978.439	1	10	n/a	n/a	1	51	5
979.5056	1	10	n/a	n/a	1	51	6
980.7056	1	10	n/a	n/a	1	51	7
981.9054	1	21	n/a	n/a	1	51	0
983.2054	1	10	n/a	n/a	1	51	1
984.5052	1	21	n/a	n/a	1	51	0
985.7886	1	10	n/a	n/a	1	51	1
987.0884	1	10	n/a	n/a	1	51	2
988.2384	1	10	n/a	n/a	1	51	3
989.3884	1	10	n/a	n/a	1	51	4
990.149	1	81	n/a	n/a	1	0	0
990.349	1	81	n/a	n/a	1	0	0
990.549	1	81	n/a	n/a	1	0	0
990.749	1	81	n/a	n/a	1	0	0
990.949	1	81	n/a	n/a	1	0	0
991.149	1	81	n/a	n/a	1	0	0
991.349	1	81	n/a	n/a	1	0	0
991.549	1	81	n/a	n/a	1	0	0
991.749	1	81	n/a	n/a	1	0	0
991.949	1	81	n/a	n/a	1	0	0
993.1382	1	10	n/a	n/a	1	51	1
994.238	1	21	n/a	n/a	1	51	0
995.3714	1	10	n/a	n/a	1	51	1
996.4212	1	10	n/a	n/a	1	51	2
997.6046	1	10	n/a	n/a	1	51	3
998.7878	1	21	n/a	n/a	1	51	0
1000.071	1	10	n/a	n/a	1	51	1
1001.3542	1	21	n/a	n/a	1	51	0
1002.3876	1	10	n/a	n/a	1	51	1
1003.4542	1	10	n/a	n/a	1	51	2
1004.6374	1	10	n/a	n/a	1	51	3
1005.6708	1	10	n/a	n/a	1	51	4
1006.9206	1	10	n/a	n/a	1	51	5
1008.1538	1	21	n/a	n/a	1	51	0
1009.4204	1	10	n/a	n/a	1	51	1
1010.687	1	21	n/a	n/a	1	51	0
1011.737	1	10	n/a	n/a	1	51	1
1012.937	1	10	n/a	n/a	1	51	2
1014.2036	1	10	n/a	n/a	1	51	3
1015.2534	1	10	n/a	n/a	1	51	4
1110.749	1	82	n/a	n/a	1	0	0
1110.911	1	82	n/a	n/a	1	0	0
1111.182	1	82	n/a	n/a	1	0	0
1111.203	1	82	n/a	n/a	1	0	0
1111.54	1	82	n/a	n/a	1	0	0
1111.749	1	82	n/a	n/a	1	0	0
1111.849	1	82	n/a	n/a	1	0	0
1112.22	1	82	n/a	n/a	1	0	0
1112.361	1	82	n/a	n/a	1	0	0
1112.638	1	82	n/a	n/a	1	0	0
1113.781	1	10	n/a	n/a	1	52	1
1114.9142	1	21	n/a	n/a	1	52	0
1115.9642	1	10	n/a	n/a	1	52	1
1117.1808	1	10	n/a	n/a	1	52	2
1118.3474	1	10	n/a	n/a	1	52	3
1119.564	1	10	n/a	n/a	1	52	4
1120.6138	1	10	n/a	n/a	1	52	5
1121.6638	1	21	n/a	n/a	1	52	0
1122.947	1	10	n/a	n/a	1	52	1
1124.2304	1	21	n/a	n/a	1	52	0
1125.4802	1	10	n/a	n/a	1	52	1
1126.5468	1	10	n/a	n/a	1	52	2
1127.6468	1	10	n/a	n/a	1	52	3
1128.8634	1	10	n/a	n/a	1	52	4
1129.9634	1	10	n/a	n/a	1	52	5
1131.0632	1	21	n/a	n/a	1	52	0
1132.3466	1	10	n/a	n/a	1	52	1
1133.6632	1	10	n/a	n/a	1	52	2
1134.713	1	10	n/a	n/a	1	52	3
1135.8296	1	10	n/a	n/a	1	52	4
1136.7532	1	82	n/a	n/a	1	0	0
1136.8302	1	82	n/a	n/a	1	0	0
1136.8602	1	82	n/a	n/a	1	0	0
1137.0472	1	82	n/a	n/a	1	0	0
1137.4022	1	82	n/a	n/a	1	0	0
1137.7532	1	82	n/a	n/a	1	0	0
1138.1372	1	82	n/a	n/a	1	0	0
1138.1702	1	82	n/a	n/a	1	0	0
1138.4542	1	82	n/a	n/a	1	0	0
1138.5682	1	82	n/a	n/a	1	0	0
1139.8128	1	10	n/a	n/a	1	52	1
1140.8626	1	10	n/a	n/a	1	52	2
1142.0792	1	10	n/a	n/a	1	52	3
1143.2792	1	10	n/a	n/a	1	52	4
1144.5624	1	10	n/a	n/a	1	52	5
1145.7458	1	10	n/a	n/a	1	52	6
1146.979	1	10	n/a	n/a	1	52	7
1148.2122	1	21	n/a	n/a	1	52	0
1149.4788	1	10	n/a	n/a	1	52	1
1150.7454	1	21	n/a	n/a	1	52	0
1152.012	1	10	n/a	n/a	1	52	1
1153.2786	1	21	n/a	n/a	1	52	0
1154.5786	1	10	n/a	n/a	1	52	1
1155.8784	1	21	n/a	n/a	1	52	0
1157.145	1	10	n/a	n/a	1	52	1
1158.3116	1	10	n/a	n/a	1	52	2
1159.445	1	10	n/a	n/a	1	52	3
1160.5448	1	10	n/a	n/a	1	52	4
1161.8114	1	10	n/a	n/a	1	52	5
1162.9948	1	10	n/a	n/a	1	52	6
1163.9262	1	82	n/a	n/a	1	0	0
1164.0382	1	82	n/a	n/a	1	0	0
1164.2792	1	82	n/a	n/a	1	0	0
1164.5432	1	82	n/a	n/a	1	0	0
1164.8432	1	82	n/a	n/a	1	0	0
1164.9262	1	82	n/a	n/a	1	0	0
1164.9892	1	82	n/a	n/a	1	0	0
1165.3852	1	82	n/a	n/a	1	0	0
1165.7112	1	82	n/a	n/a	1	0	0
1165.8192	1	82	n/a	n/a	1	0	0
1166.8944	1	10	n/a	n/a	1	52	1
1168.1278	1	10	n/a	n/a	1	52	2
1169.3444	1	10	n/a	n/a	1	52	3
1170.561	1	21	n/a	n/a	1	52	0
1171.6442	1	10	n/a	n/a	1	52	1
1172.7442	1	10	n/a	n/a	1	52	2
1174.0608	1	10	n/a	n/a	1	52	3
1175.3774	1	21	n/a	n/a	1	52	0
1176.5772	1	10	n/a	n/a	1	52	1
1177.7272	1	10	n/a	n/a	1	52	2
1179.0104	1	10	n/a	n/a	1	52	3
1180.0604	1	10	n/a	n/a	1	52	4
1181.127	1	10	n/a	n/a	1	52	5
1182.1936	1	21	n/a	n/a	1	52	0
1183.2602	1	10	n/a	n/a	1	52	1
1184.3434	1	10	n/a	n/a	1	52	2
1185.51	1	10	n/a	n/a	1	52	3
1186.6266	1	10	n/a	n/a	1	52	4
1187.7432	1	10	n/a	n/a	1	52	5
1188.8598	1	21	n/a	n/a	1	52	0
1189.7946	1	82	n/a	n/a	1	0	0
1189.8296	1	82	n/a	n/a	1	0	0
1189.9436	1	82	n/a	n/a	1	0	0
1190.3126	1	82	n/a	n/a	1	0	0
1190.3916	1	82	n/a	n/a	1	0	0
1190.7946	1	82	n/a	n/a	1	0	0
1191.1776	1	82	n/a	n/a	1	0	0
1191.2646	1	82	n/a	n/a	1	0	0
1191.2966	1	82	n/a	n/a	1	0	0
1191.5986	1	82	n/a	n/a	1	0	0
1192.843	1	10	n/a	n/a	1	52	1
1193.9928	1	10	n/a	n/a	1	52	2
1195.1594	1	10	n/a	n/a	1	52	3
1196.3094	1	10	n/a	n/a	1	52	4
1197.4426	1	10	n/a	n/a	1	52	5
1198.576	1	21	n/a	n/a	1	52	0
1199.7258	1	10	n/a	n/a	1	52	1
1201.0258	1	10	n/a	n/a	1	52	2
1202.0758	1	10	n/a	n/a	1	52	3
1203.1756	1	10	n/a	n/a	1	52	4
1204.2256	1	10	n/a	n/a	1	52	5
1205.2756	1	21	n/a	n/a	1	52	0
1206.3088	1	10	n/a	n/a	1	52	1
1207.4254	1	10	n/a	n/a	1	52	2
1208.642	1	10	n/a	n/a	1	52	3
1209.692	1	10	n/a	n/a	1	52	4
1210.9252	1	10	n/a	n/a	1	52	5
1212.1418	1	10	n/a	n/a	1	52	6
1213.2918	1	10	n/a	n/a	1	52	7
1214.4416	1	21	n/a	n/a	1	52	0
1215.3024	1	82	n/a	n/a	1	0	0
1215.5454	1	82	n/a	n/a	1	0	0
1215.5844	1	82	n/a	n/a	1	0	0
1215.6784	1	82	n/a	n/a	1	0	0
1215.8554	1	82	n/a	n/a	1	0	0
1216.3024	1	82	n/a	n/a	1	0	0
1216.6594	1	82	n/a	n/a	1	0	0
1216.7094	1	82	n/a	n/a	1	0	0
1216.8354	1	82	n/a	n/a	1	0	0
1217.2584	1	82	n/a	n/a	1	0	0
1218.2248	1	10	n/a	n/a	1	52	1
1219.258	1	21	n/a	n/a	1	52	0
1220.5914	1	10	n/a	n/a	1	52	1
1221.9246	1	21	n/a	n/a	1	52	0
1223.1744	1	10	n/a	n/a	1	52	1
1224.4244	1	21	n/a	n/a	1	52	0
1225.6244	1	10	n/a	n/a	1	52	1
1226.891	1	10	n/a	n/a	1	52	2
1228.1242	1	10	n/a	n/a	1	52	3
1229.3408	1	10	n/a	n/a	1	52	4
1230.4574	1	10	n/a	n/a	1	52	5
1231.574	1	21	n/a	n/a	1	52	0
1232.874	1	10	n/a	n/a	1	52	1
1234.1738	1	21	n/a	n/a	1	52	0
1235.2572	1	10	n/a	n/a	1	52	1
1236.3738	1	10	n/a	n/a	1	52	2
1237.4736	1	10	n/a	n/a	1	52	3
1238.7736	1	10	n/a	n/a	1	52	4
1239.8902	1	10	n/a	n/a	1	52	5
1241.0068	1	21	n/a	n/a	1	52	0
1251.559	1	82	n/a	n/a	1	0	0
1251.856	1	82	n/a	n/a	1	0	0
1251.923	1	82	n/a	n/a	1	0	0
1252.096	1	82	n/a	n/a	1	0	0
1252.222	1	82	n/a	n/a	1	0	0
1252.559	1	82	n/a	n/a	1	0	0
1252.676	1	82	n/a	n/a	1	0	0
1252.702	1	82	n/a	n/a	1	0	0
1253.016	1	82	n/a	n/a	1	0	0
1253.367	1	82	n/a	n/a	1	0	0
1254.706	1	10	n/a	n/a	1	50	1
1255.7558	1	10	n/a	n/a	1	50	2
1256.9392	1	10	n/a	n/a	1	50	3
1257.989	1	10	n/a	n/a	1	50	4
1259.089	1	10	n/a	n/a	1	50	5
1260.189	1	21	n/a	n/a	1	50	0
1261.4388	1	10	n/a	n/a	1	50	1
1262.6888	1	21	n/a	n/a	1	50	0
1263.822	1	10	n/a	n/a	1	50	1
1264.9554	1	21	n/a	n/a	1	50	0
1266.1386	1	10	n/a	n/a	1	50	1
1267.1718	1	10	n/a	n/a	1	50	2
1268.2552	1	10	n/a	n/a	1	50	3
1269.4884	1	10	n/a	n/a	1	50	4
1270.555	1	10	n/a	n/a	1	50	5
1271.6216	1	21	n/a	n/a	1	50	0
1272.8716	1	10	n/a	n/a	1	50	1
1273.9048	1	10	n/a	n/a	1	50	2
1275.2048	1	10	n/a	n/a	1	50	3
1276.5214	1	10	n/a	n/a	1	50	4
1277.3228	1	82	n/a	n/a	1	0	0
1277.6988	1	82	n/a	n/a	1	0	0
1277.8578	1	82	n/a	n/a	1	0	0
1277.9488	1	82	n/a	n/a	1	0	0
1278.2138	1	82	n/a	n/a	1	0	0
1278.3228	1	82	n/a	n/a	1	0	0
1278.3498	1	82	n/a	n/a	1	0	0
1278.6848	1	82	n/a	n/a	1	0	0
1278.9168	1	82	n/a	n/a	1	0	0
1279.1858	1	82	n/a	n/a	1	0	0
1280.3878	1	10	n/a	n/a	1	50	1
1281.5044	1	10	n/a	n/a	1	50	2
1282.771	1	10	n/a	n/a	1	50	3
1284.0376	1	21	n/a	n/a	1	50	0
1285.1542	1	10	n/a	n/a	1	50	1
1286.254	1	10	n/a	n/a	1	50	2
1287.3874	1	10	n/a	n/a	1	50	3
1288.4706	1	10	n/a	n/a	1	50	4
1289.6872	1	10	n/a	n/a	1	50	5
1290.9038	1	21	n/a	n/a	1	50	0
1292.1204	1	10	n/a	n/a	1	50	1
1293.4036	1	10	n/a	n/a	1	50	2
1294.5036	1	10	n/a	n/a	1	50	3
1295.6036	1	21	n/a	n/a	1	50	0
1296.6534	1	10	n/a	n/a	1	50	1
1297.87	1	10	n/a	n/a	1	50	2
1299.1034	1	10	n/a	n/a	1	50	3
1300.3366	1	10	n/a	n/a	1	50	4
1301.5866	1	10	n/a	n/a	1	50	5
1302.8364	1	21	n/a	n/a	1	50	0
1303.8422	1	82	n/a	n/a	1	0	0
1304.2332	1	82	n/a	n/a	1	0	0
1304.2642	1	82	n/a	n/a	1	0	0
1304.5212	1	82	n/a	n/a	1	0	0
1304.8032	1	82	n/a	n/a	1	0	0
1304.8422	1	82	n/a	n/a	1	0	0
1305.0152	1	82	n/a	n/a	1	0	0
1305.0372	1	82	n/a	n/a	1	0	0
1305.1542	1	82	n/a	n/a	1	0	0
1305.4292	1	82	n/a	n/a	1	0	0
1306.9528	1	10	n/a	n/a	1	50	1
1308.1194	1	10	n/a	n/a	1	50	2
1309.1528	1	10	n/a	n/a	1	50	3
1310.186	1	21	n/a	n/a	1	50	0
1311.286	1	10	n/a	n/a	1	50	1
1312.4692	1	10	n/a	n/a	1	50	2
1313.5024	1	10	n/a	n/a	1	50	3
1314.5358	1	21	n/a	n/a	1	50	0
1315.7356	1	10	n/a	n/a	1	50	1
1316.7856	1	10	n/a	n/a	1	50	2
1317.8522	1	10	n/a	n/a	1	50	3
1318.9188	1	21	n/a	n/a	1	50	0
1320.1188	1	10	n/a	n/a	1	50	1
1321.3186	1	10	n/a	n/a	1	50	2
1322.5186	1	10	n/a	n/a	1	50	3
1323.7186	1	21	n/a	n/a	1	50	0
1325.0352	1	10	n/a	n/a	1	50	1
1326.3518	1	21	n/a	n/a	1	50	0
1327.485	1	10	n/a	n/a	1	50	1
1328.5182	1	10	n/a	n/a	1	50	2
1329.464	1	82	n/a	n/a	1	0	0
1329.615	1	82	n/a	n/a	1	0	0
1329.69	1	82	n/a	n/a	1	0	0
1330.04	1	82	n/a	n/a	1	0	0
1330.364	1	82	n/a	n/a	1	0	0
1330.464	1	82	n/a	n/a	1	0	0
1330.507	1	82	n/a	n/a	1	0	0
1330.847	1	82	n/a	n/a	1	0	0
1331.057	1	82	n/a	n/a	1	0	0
1331.349	1	82	n/a	n/a	1	0	0
1332.568	1	10	n/a	n/a	1	50	1
1333.8346	1	10	n/a	n/a	1	50	2
1335.0678	1	10	n/a	n/a	1	50	3
1336.3178	1	10	n/a	n/a	1	50	4
1337.5344	1	10	n/a	n/a	1	50	5
1338.751	1	21	n/a	n/a	1	50	0
1340.0676	1	10	n/a	n/a	1	50	1
1341.3842	1	21	n/a	n/a	1	50	0
1342.534	1	10	n/a	n/a	1	50	1
1343.834	1	10	n/a	n/a	1	50	2
1344.884	1	10	n/a	n/a	1	50	3
1346.1338	1	10	n/a	n/a	1	50	4
1347.4504	1	10	n/a	n/a	1	50	5
1348.6338	1	10	n/a	n/a	1	50	6
1349.917	1	10	n/a	n/a	1	50	7
1351.2002	1	21	n/a	n/a	1	50	0
1352.4002	1	10	n/a	n/a	1	50	1
1353.5002	1	10	n/a	n/a	1	50	2
1354.6834	1	10	n/a	n/a	1	50	3
1355.7666	1	10	n/a	n/a	1	50	4
1356.5242	1	82	n/a	n/a	1	0	0
1356.5712	1	82	n/a	n/a	1	0	0
1356.7042	1	82	n/a	n/a	1	0	0
1357.0412	1	82	n/a	n/a	1	0	0
1357.3522	1	82	n/a	n/a	1	0	0
1357.5242	1	82	n/a	n/a	1	0	0
1357.7642	1	82	n/a	n/a	1	0	0
1357.8092	1	82	n/a	n/a	1	0	0
1357.9352	1	82	n/a	n/a	1	0	0
1358.3552	1	82	n/a	n/a	1	0	0
1359.6498	1	10	n/a	n/a	1	50	1
1360.9496	1	10	n/a	n/a	1	50	2
1362.133	1	10	n/a	n/a	1	50	3
1363.3328	1	10	n/a	n/a	1	50	4
1364.4494	1	10	n/a	n/a	1	50	5
1365.666	1	10	n/a	n/a	1	50	6
1366.9826	1	10	n/a	n/a	1	50	7
1368.2992	1	21	n/a	n/a	1	50	0
1369.5658	1	10	n/a	n/a	1	50	1
1370.8824	1	10	n/a	n/a	1	50	2
1372.0656	1	10	n/a	n/a	1	50	3
1373.3822	1	10	n/a	n/a	1	50	4
1374.4822	1	10	n/a	n/a	1	50	5
1375.5822	1	21	n/a	n/a	1	50	0
1376.8988	1	10	n/a	n/a	1	50	1
1377.982	1	10	n/a	n/a	1	50	2
1379.0486	1	10	n/a	n/a	1	50	3
1380.2986	1	10	n/a	n/a	1	50	4
1381.3818	1	10	n/a	n/a	1	50	5
1382.465	1	21	n/a	n/a	1	50	0
1460.1208	1	81	n/a	n/a	1	0	0
1460.3208	1	81	n/a	n/a	1	0	0
1460.5208	1	81	n/a	n/a	1	0	0
1460.7208	1	81	n/a	n/a	1	0	0
1460.9208	1	81	n/a	n/a	1	0	0
1461.1208	1	81	n/a	n/a	1	0	0
1461.3208	1	81	n/a	n/a	1	0	0
1461.5208	1	81	n/a	n/a	1	0	0
1461.7208	1	81	n/a	n/a	1	0	0
1461.9208	1	81	n/a	n/a	1	0	0
1463.327	1	10	n/a	n/a	1	51	1
1464.4602	1	10	n/a	n/a	1	51	2
1465.5102	1	10	n/a	n/a	1	51	3
1466.5434	1	10	n/a	n/a	1	51	4
1467.7934	1	10	n/a	n/a	1	51	5
1469.0432	1	21	n/a	n/a	1	51	0
1470.2932	1	10	n/a	n/a	1	51	1
1471.5432	1	21	n/a	n/a	1	51	0
1472.7764	1	10	n/a	n/a	1	51	1
1473.943	1	10	n/a	n/a	1	51	2
1475.0096	1	10	n/a	n/a	1	51	3
1476.1262	1	10	n/a	n/a	1	51	4
1477.4594	1	10	n/a	n/a	1	51	5
1478.5426	1	10	n/a	n/a	1	51	6
1479.8092	1	10	n/a	n/a	1	51	7
1481.0758	1	21	n/a	n/a	1	51	0
1482.3258	1	10	n/a	n/a	1	51	1
1483.5424	1	10	n/a	n/a	1	51	2
1484.7756	1	10	n/a	n/a	1	51	3
1485.9256	1	10	n/a	n/a	1	51	4
1486.8432	1	81	n/a	n/a	1	0	0
1487.0432	1	81	n/a	n/a	1	0	0
1487.2432	1	81	n/a	n/a	1	0	0
1487.4432	1	81	n/a	n/a	1	0	0
1487.6432	1	81	n/a	n/a	1	0	0
1487.8432	1	81	n/a	n/a	1	0	0
1488.0432	1	81	n/a	n/a	1	0	0
1488.2432	1	81	n/a	n/a	1	0	0
1488.4432	1	81	n/a	n/a	1	0	0
1488.6432	1	81	n/a	n/a	1	0	0
1489.7754	1	10	n/a	n/a	1	51	1
1491.092	1	10	n/a	n/a	1	51	2
1492.2752	1	10	n/a	n/a	1	51	3
1493.3252	1	10	n/a	n/a	1	51	4
1494.475	1	10	n/a	n/a	1	51	5
1495.625	1	21	n/a	n/a	1	51	0
1496.7582	1	10	n/a	n/a	1	51	1
1497.9082	1	10	n/a	n/a	1	51	2
1498.9748	1	10	n/a	n/a	1	51	3
1500.1414	1	10	n/a	n/a	1	51	4
1501.458	1	10	n/a	n/a	1	51	5
1502.6912	1	10	n/a	n/a	1	51	6
1503.9246	1	10	n/a	n/a	1	51	7
1505.1578	1	21	n/a	n/a	1	51	0
1506.241	1	10	n/a	n/a	1	51	1
1507.3244	1	21	n/a	n/a	1	51	0
1508.5242	1	10	n/a	n/a	1	51	1
1509.6908	1	10	n/a	n/a	1	51	2
1510.8908	1	10	n/a	n/a	1	51	3
1512.124	1	10	n/a	n/a	1	51	4
1512.9738	1	81	n/a	n/a	1	0	0
1513.1738	1	81	n/a	n/a	1	0	0
1513.3738	1	81	n/a	n/a	1	0	0
1513.5738	1	81	n/a	n/a	1	0	0
1513.7738	1	81	n/a	n/a	1	0	0
1513.9738	1	81	n/a	n/a	1	0	0
1514.1738	1	81	n/a	n/a	1	0	0
1514.3738	1	81	n/a	n/a	1	0	0
1514.5738	1	81	n/a	n/a	1	0	0
1514.7738	1	81	n/a	n/a	1	0	0
1516.1904	1	10	n/a	n/a	1	51	1
1517.307	1	10	n/a	n/a	1	51	2
1518.507	1	10	n/a	n/a	1	51	3
1519.6736	1	10	n/a	n/a	1	51	4
1520.9902	1	10	n/a	n/a	1	51	5
1522.3068	1	21	n/a	n/a	1	51	0
1523.49	1	10	n/a	n/a	1	51	1
1524.59	1	10	n/a	n/a	1	51	2
1525.8232	1	10	n/a	n/a	1	51	3
1526.9398	1	10	n/a	n/a	1	51	4
1528.2398	1	10	n/a	n/a	1	51	5
1529.5396	1	21	n/a	n/a	1	51	0
1530.7896	1	10	n/a	n/a	1	51	1
1531.9896	1	10	n/a	n/a	1	51	2
1533.1562	1	10	n/a	n/a	1	51	3
1534.2728	1	10	n/a	n/a	1	51	4
1535.4226	1	10	n/a	n/a	1	51	5
1536.6892	1	10	n/a	n/a	1	51	6
1537.8392	1	10	n/a	n/a	1	51	7
1538.9892	1	21	n/a	n/a	1	51	0
1539.8598	1	81	n/a	n/a	1	0	0
1540.0598	1	81	n/a	n/a	1	0	0
1540.2598	1	81	n/a	n/a	1	0	0
1540.4598	1	81	n/a	n/a	1	0	0
1540.6598	1	81	n/a	n/a	1	0	0
1540.8598	1	81	n/a	n/a	1	0	0
1541.0598	1	81	n/a	n/a	1	0	0
1541.2598	1	81	n/a	n/a	1	0	0
1541.4598	1	81	n/a	n/a	1	0	0
1541.6598	1	81	n/a	n/a	1	0	0
1543.0222	1	10	n/a	n/a	1	51	1
1544.1388	1	10	n/a	n/a	1	51	2
1545.2054	1	10	n/a	n/a	1	51	3
1546.422	1	10	n/a	n/a	1	51	4
1547.6552	1	10	n/a	n/a	1	51	5
1548.9552	1	10	n/a	n/a	1	51	6
1550.0718	1	10	n/a	n/a	1	51	7
1551.1884	1	21	n/a	n/a	1	51	0
1552.2884	1	10	n/a	n/a	1	51	1
1553.405	1	10	n/a	n/a	1	51	2
1554.5882	1	10	n/a	n/a	1	51	3
1555.7882	1	10	n/a	n/a	1	51	4
1556.8548	1	10	n/a	n/a	1	51	5
1557.9214	1	21	n/a	n/a	1	51	0
1559.0712	1	10	n/a	n/a	1	51	1
1560.2212	1	10	n/a	n/a	1	51	2
1561.3878	1	10	n/a	n/a	1	51	3
1562.4544	1	10	n/a	n/a	1	51	4
1563.771	1	10	n/a	n/a	1	51	5
1565.0876	1	21	n/a	n/a	1	51	0
1565.9142	1	81	n/a	n/a	1	0	0
1566.1142	1	81	n/a	n/a	1	0	0
1566.3142	1	81	n/a	n/a	1	0	0
1566.5142	1	81	n/a	n/a	1	0	0
1566.7142	1	81	n/a	n/a	1	0	0
1566.9142	1	81	n/a	n/a	1	0	0
1567.1142	1	81	n/a	n/a	1	0	0
1567.3142	1	81	n/a	n/a	1	0	0
1567.5142	1	81	n/a	n/a	1	0	0
1567.7142	1	81	n/a	n/a	1	0	0
1568.954	1	10	n/a	n/a	1	51	1
1570.0372	1	10	n/a	n/a	1	51	2
1571.2872	1	10	n/a	n/a	1	51	3
1572.4372	1	10	n/a	n/a	1	51	4
1573.6038	1	10	n/a	n/a	1	51	5
1574.7704	1	21	n/a	n/a	1	51	0
1575.9702	1	10	n/a	n/a	1	51	1
1577.2536	1	10	n/a	n/a	1	51	2
1578.5534	1	10	n/a	n/a	1	51	3
1579.7534	1	10	n/a	n/a	1	51	4
1580.87	1	10	n/a	n/a	1	51	5
1581.9866	1	21	n/a	n/a	1	51	0
1583.0866	1	10	n/a	n/a	1	51	1
1584.3198	1	10	n/a	n/a	1	51	2
1585.4364	1	10	n/a	n/a	1	51	3
1586.703	1	10	n/a	n/a	1	51	4
1587.8362	1	10	n/a	n/a	1	51	5
1588.9694	1	21	n/a	n/a	1	51	0
1590.2528	1	10	n/a	n/a	1	51	1
1591.4194	1	10	n/a	n/a	1	51	2
1637.5024	1	82	n/a	n/a	1	0	0
1637.6584	1	82	n/a	n/a	1	0	0
1637.6874	1	82	n/a	n/a	1	0	0
1637.7774	1	82	n/a	n/a	1	0	0
1638.0554	1	82	n/a	n/a	1	0	0
1638.5024	1	82	n/a	n/a	1	0	0
1638.5524	1	82	n/a	n/a	1	0	0
1638.6784	1	82	n/a	n/a	1	0	0
1639.0464	1	82	n/a	n/a	1	0	0
1639.1314	1	82	n/a	n/a	1	0	0
1640.6664	1	10	n/a	n/a	1	52	1
1641.983	1	10	n/a	n/a	1	52	2
1643.233	1	10	n/a	n/a	1	52	3
1644.4496	1	10	n/a	n/a	1	52	4
1645.6994	1	10	n/a	n/a	1	52	5
1646.9494	1	21	n/a	n/a	1	52	0
1648.1826	1	10	n/a	n/a	1	52	1
1649.416	1	21	n/a	n/a	1	52	0
1650.5992	1	10	n/a	n/a	1	52	1
1651.7824	1	21	n/a	n/a	1	52	0
1652.9324	1	10	n/a	n/a	1	52	1
1654.0822	1	21	n/a	n/a	1	52	0
1655.3488	1	10	n/a	n/a	1	52	1
1656.6154	1	21	n/a	n/a	1	52	0
1657.732	1	10	n/a	n/a	1	52	1
1658.9986	1	10	n/a	n/a	1	52	2
1660.0986	1	10	n/a	n/a	1	52	3
1661.1986	1	21	n/a	n/a	1	52	0
1662.4152	1	10	n/a	n/a	1	52	1
1663.4984	1	10	n/a	n/a	1	52	2
1664.3662	1	82	n/a	n/a	1	0	0
1664.4762	1	82	n/a	n/a	1	0	0
1664.5142	1	82	n/a	n/a	1	0	0
1664.6622	1	82	n/a	n/a	1	0	0
1665.0872	1	82	n/a	n/a	1	0	0
1665.3662	1	82	n/a	n/a	1	0	0
1665.3982	1	82	n/a	n/a	1	0	0
1665.8082	1	82	n/a	n/a	1	0	0
1666.1202	1	82	n/a	n/a	1	0	0
1666.2742	1	82	n/a	n/a	1	0	0
1667.5482	1	10	n/a	n/a	1	52	1
1668.8148	1	10	n/a	n/a	1	52	2
1670.098	1	10	n/a	n/a	1	52	3
1671.298	1	10	n/a	n/a	1	52	4
1672.4646	1	10	n/a	n/a	1	52	5
1673.6144	1	10	n/a	n/a	1	52	6
1674.681	1	10	n/a	n/a	1	52	7
1675.7476	1	21	n/a	n/a	1	52	0
1676.881	1	10	n/a	n/a	1	52	1
1678.1142	1	10	n/a	n/a	1	52	2
1679.1642	1	10	n/a	n/a	1	52	3
1680.214	1	21	n/a	n/a	1	52	0
1681.5474	1	10	n/a	n/a	1	52	1
1682.5972	1	10	n/a	n/a	1	52	2
1683.6972	1	10	n/a	n/a	1	52	3
1684.7972	1	21	n/a	n/a	1	52	0
1686.097	1	10	n/a	n/a	1	52	1
1687.397	1	21	n/a	n/a	1	52	0
1688.6136	1	10	n/a	n/a	1	52	1
1689.8302	1	21	n/a	n/a	1	52	0
1690.7398	1	82	n/a	n/a	1	0	0
1690.7918	1	82	n/a	n/a	1	0	0
1690.9538	1	82	n/a	n/a	1	0	0
1691.1798	1	82	n/a	n/a	1	0	0
1691.6148	1	82	n/a	n/a	1	0	0
1691.74	1	82	n/a	n/a	1	0	0
1692.073	1	82	n/a	n/a	1	0	0
1692.207	1	82	n/a	n/a	1	0	0
1692.403	1	82	n/a	n/a	1	0	0
1692.699	1	82	n/a	n/a	1	0	0
1693.6632	1	10	n/a	n/a	1	52	1
1694.8466	1	10	n/a	n/a	1	52	2
1696.1464	1	10	n/a	n/a	1	52	3
1697.463	1	10	n/a	n/a	1	52	4
1698.6964	1	10	n/a	n/a	1	52	5
1699.9296	1	21	n/a	n/a	1	52	0
1701.2128	1	10	n/a	n/a	1	52	1
1702.3628	1	10	n/a	n/a	1	52	2
1703.6626	1	10	n/a	n/a	1	52	3
1704.9626	1	21	n/a	n/a	1	52	0
1706.2126	1	10	n/a	n/a	1	52	1
1707.2458	1	10	n/a	n/a	1	52	2
1708.4458	1	10	n/a	n/a	1	52	3
1709.6624	1	10	n/a	n/a	1	52	4
1710.829	1	10	n/a	n/a	1	52	5
1711.9956	1	21	n/a	n/a	1	52	0
1713.2788	1	10	n/a	n/a	1	52	1
1714.5288	1	10	n/a	n/a	1	52	2
1715.862	1	10	n/a	n/a	1	52	3
1716.9286	1	10	n/a	n/a	1	52	4
1717.7362	1	82	n/a	n/a	1	0	0
1718.1542	1	82	n/a	n/a	1	0	0
1718.4802	1	82	n/a	n/a	1	0	0
1718.5222	1	82	n/a	n/a	1	0	0
1718.6912	1	82	n/a	n/a	1	0	0
1718.7362	1	82	n/a	n/a	1	0	0
1718.8712	1	82	n/a	n/a	1	0	0
1719.2832	1	82	n/a	n/a	1	0	0
1719.5304	1	82	n/a	n/a	1	0	0
1719.5954	1	82	n/a	n/a	1	0	0
1720.8116	1	10	n/a	n/a	1	52	1
1721.9782	1	10	n/a	n/a	1	52	2
1723.1448	1	10	n/a	n/a	1	52	3
1724.1782	1	10	n/a	n/a	1	52	4
1725.2614	1	10	n/a	n/a	1	52	5
1726.5614	1	10	n/a	n/a	1	52	6
1727.678	1	10	n/a	n/a	1	52	7
1728.7946	1	21	n/a	n/a	1	52	0
1729.8278	1	10	n/a	n/a	1	52	1
1731.0944	1	10	n/a	n/a	1	52	2
1732.1776	1	10	n/a	n/a	1	52	3
1733.261	1	21	n/a	n/a	1	52	0
1734.5276	1	10	n/a	n/a	1	52	1
1735.6108	1	10	n/a	n/a	1	52	2
1736.8608	1	10	n/a	n/a	1	52	3
1738.0106	1	10	n/a	n/a	1	52	4
1739.1272	1	10	n/a	n/a	1	52	5
1740.2438	1	10	n/a	n/a	1	52	6
1741.4272	1	10	n/a	n/a	1	52	7
1742.6104	1	21	n/a	n/a	1	52	0
1743.621	1	82	n/a	n/a	1	0	0
1743.772	1	82	n/a	n/a	1	0	0
1744.094	1	82	n/a	n/a	1	0	0
1744.444	1	82	n/a	n/a	1	0	0
1744.486	1	82	n/a	n/a	1	0	0
1744.6212	1	82	n/a	n/a	1	0	0
1744.9992	1	82	n/a	n/a	1	0	0
1745.1152	1	82	n/a	n/a	1	0	0
1745.1702	1	82	n/a	n/a	1	0	0
1745.3422	1	82	n/a	n/a	1	0	0
1746.6434	1	10	n/a	n/a	1	52	1
1747.7768	1	21	n/a	n/a	1	52	0
1748.91	1	10	n/a	n/a	1	52	1
1750.11	1	10	n/a	n/a	1	52	2
1751.2598	1	10	n/a	n/a	1	52	3
1752.4098	1	21	n/a	n/a	1	52	0
1753.5764	1	10	n/a	n/a	1	52	1
1754.693	1	10	n/a	n/a	1	52	2
1755.893	1	10	n/a	n/a	1	52	3
1757.0928	1	21	n/a	n/a	1	52	0
1758.1594	1	10	n/a	n/a	1	52	1
1759.2594	1	10	n/a	n/a	1	52	2
1760.3594	1	10	n/a	n/a	1	52	3
1761.4592	1	21	n/a	n/a	1	52	0
1762.7258	1	10	n/a	n/a	1	52	1
1763.9424	1	10	n/a	n/a	1	52	2
1765.259	1	10	n/a	n/a	1	52	3
1766.359	1	10	n/a	n/a	1	52	4
1767.6422	1	10	n/a	n/a	1	52	5
1768.7756	1	10	n/a	n/a	1	52	6
1782.0378	1	81	n/a	n/a	1	0	0
1782.2378	1	81	n/a	n/a	1	0	0
1782.4378	1	81	n/a	n/a	1	0	0
1782.6378	1	81	n/a	n/a	1	0	0
1782.8378	1	81	n/a	n/a	1	0	0
1783.0378	1	81	n/a	n/a	1	0	0
1783.2378	1	81	n/a	n/a	1	0	0
1783.4378	1	81	n/a	n/a	1	0	0
1783.6378	1	81	n/a	n/a	1	0	0
1783.8378	1	81	n/a	n/a	1	0	0
1785.2078	1	10	n/a	n/a	1	50	1
1786.3578	1	10	n/a	n/a	1	50	2
1787.5578	1	10	n/a	n/a	1	50	3
1788.6744	1	10	n/a	n/a	1	50	4
1789.891	1	10	n/a	n/a	1	50	5
1791.1076	1	21	n/a	n/a	1	50	0
1792.2908	1	10	n/a	n/a	1	50	1
1793.474	1	21	n/a	n/a	1	50	0
1794.6074	1	10	n/a	n/a	1	50	1
1795.674	1	10	n/a	n/a	1	50	2
1796.8572	1	10	n/a	n/a	1	50	3
1798.1404	1	10	n/a	n/a	1	50	4
1799.4404	1	10	n/a	n/a	1	50	5
1800.607	1	10	n/a	n/a	1	50	6
1801.9068	1	10	n/a	n/a	1	50	7
1803.2068	1	21	n/a	n/a	1	50	0
1804.4234	1	10	n/a	n/a	1	50	1
1805.6734	1	10	n/a	n/a	1	50	2
1806.74	1	10	n/a	n/a	1	50	3
1807.8066	1	21	n/a	n/a	1	50	0
1808.5992	1	81	n/a	n/a	1	0	0
1808.7992	1	81	n/a	n/a	1	0	0
1808.9992	1	81	n/a	n/a	1	0	0
1809.1992	1	81	n/a	n/a	1	0	0
1809.3992	1	81	n/a	n/a	1	0	0
1809.5992	1	81	n/a	n/a	1	0	0
1809.7992	1	81	n/a	n/a	1	0	0
1809.9992	1	81	n/a	n/a	1	0	0
1810.1992	1	81	n/a	n/a	1	0	0
1810.3992	1	81	n/a	n/a	1	0	0
1811.623	1	10	n/a	n/a	1	50	1
1812.8562	1	10	n/a	n/a	1	50	2
1814.1728	1	10	n/a	n/a	1	50	3
1815.4894	1	21	n/a	n/a	1	50	0
1816.556	1	10	n/a	n/a	1	50	1
1817.6226	1	21	n/a	n/a	1	50	0
1818.8892	1	10	n/a	n/a	1	50	1
1820.0058	1	10	n/a	n/a	1	50	2
1821.1558	1	10	n/a	n/a	1	50	3
1822.239	1	10	n/a	n/a	1	50	4
1823.5056	1	10	n/a	n/a	1	50	5
1824.8222	1	10	n/a	n/a	1	50	6
1825.9888	1	10	n/a	n/a	1	50	7
1827.1554	1	21	n/a	n/a	1	50	0
1828.2886	1	10	n/a	n/a	1	50	1
1829.422	1	21	n/a	n/a	1	50	0
1830.4552	1	10	n/a	n/a	1	50	1
1831.6552	1	10	n/a	n/a	1	50	2
1832.705	1	10	n/a	n/a	1	50	3
1833.755	1	21	n/a	n/a	1	50	0
1834.7144	1	81	n/a	n/a	1	0	0
1834.9144	1	81	n/a	n/a	1	0	0
1835.1144	1	81	n/a	n/a	1	0	0
1835.3144	1	81	n/a	n/a	1	0	0
1835.5144	1	81	n/a	n/a	1	0	0
1835.7144	1	81	n/a	n/a	1	0	0
1835.9144	1	81	n/a	n/a	1	0	0
1836.1144	1	81	n/a	n/a	1	0	0
1836.3144	1	81	n/a	n/a	1	0	0
1836.5144	1	81	n/a	n/a	1	0	0
1837.9214	1	10	n/a	n/a	1	50	1
1839.2046	1	10	n/a	n/a	1	50	2
1840.4546	1	10	n/a	n/a	1	50	3
1841.6546	1	10	n/a	n/a	1	50	4
1842.7212	1	10	n/a	n/a	1	50	5
1843.921	1	10	n/a	n/a	1	50	6
1845.2376	1	10	n/a	n/a	1	50	7
1846.5542	1	21	n/a	n/a	1	50	0
1847.8374	1	10	n/a	n/a	1	50	1
1849.0374	1	10	n/a	n/a	1	50	2
1850.0706	1	10	n/a	n/a	1	50	3
1851.154	1	10	n/a	n/a	1	50	4
1852.4706	1	10	n/a	n/a	1	50	5
1853.5872	1	10	n/a	n/a	1	50	6
1854.8204	1	10	n/a	n/a	1	50	7
1856.0536	1	21	n/a	n/a	1	50	0
1857.1536	1	10	n/a	n/a	1	50	1
1858.2036	1	10	n/a	n/a	1	50	2
1859.4034	1	10	n/a	n/a	1	50	3
1860.7034	1	10	n/a	n/a	1	50	4
1861.4278	1	81	n/a	n/a	1	0	0
1861.6278	1	81	n/a	n/a	1	0	0
1861.8278	1	81	n/a	n/a	1	0	0
1862.0278	1	81	n/a	n/a	1	0	0
1862.2278	1	81	n/a	n/a	1	0	0
1862.4278	1	81	n/a	n/a	1	0	0
1862.6278	1	81	n/a	n/a	1	0	0
1862.8278	1	81	n/a	n/a	1	0	0
1863.0278	1	81	n/a	n/a	1	0	0
1863.2278	1	81	n/a	n/a	1	0	0
1864.5198	1	10	n/a	n/a	1	50	1
1865.6698	1	10	n/a	n/a	1	50	2
1866.8364	1	10	n/a	n/a	1	50	3
1867.903	1	10	n/a	n/a	1	50	4
1869.1696	1	10	n/a	n/a	1	50	5
1870.4362	1	21	n/a	n/a	1	50	0
1871.536	1	10	n/a	n/a	1	50	1
1872.636	1	21	n/a	n/a	1	50	0
1873.7692	1	10	n/a	n/a	1	50	1
1874.8858	1	10	n/a	n/a	1	50	2
1876.0192	1	10	n/a	n/a	1	50	3
1877.1524	1	21	n/a	n/a	1	50	0
1878.3524	1	10	n/a	n/a	1	50	1
1879.669	1	10	n/a	n/a	1	50	2
1880.8688	1	10	n/a	n/a	1	50	3
1882.0688	1	10	n/a	n/a	1	50	4
1883.2354	1	10	n/a	n/a	1	50	5
1884.402	1	21	n/a	n/a	1	50	0
1885.452	1	10	n/a	n/a	1	50	1
1886.5686	1	10	n/a	n/a	1	50	2
1887.626	1	81	n/a	n/a	1	0	0
1887.826	1	81	n/a	n/a	1	0	0
1888.026	1	81	n/a	n/a	1	0	0
1888.226	1	81	n/a	n/a	1	0	0
1888.426	1	81	n/a	n/a	1	0	0
1888.626	1	81	n/a	n/a	1	0	0
1888.826	1	81	n/a	n/a	1	0	0
1889.026	1	81	n/a	n/a	1	0	0
1889.226	1	81	n/a	n/a	1	0	0
1889.426	1	81	n/a	n/a	1	0	0
1890.685	1	10	n/a	n/a	1	50	1
1891.8516	1	21	n/a	n/a	1	50	0
1893.1348	1	10	n/a	n/a	1	50	1
1894.4514	1	10	n/a	n/a	1	50	2
1895.5514	1	10	n/a	n/a	1	50	3
1896.5846	1	10	n/a	n/a	1	50	4
1897.6512	1	10	n/a	n/a	1	50	5
1898.7844	1	10	n/a	n/a	1	50	6
1899.851	1	10	n/a	n/a	1	50	7
1900.9176	1	21	n/a	n/a	1	50	0
1902.051	1	10	n/a	n/a	1	50	1
1903.1842	1	21	n/a	n/a	1	50	0
1904.2342	1	10	n/a	n/a	1	50	1
1905.284	1	21	n/a	n/a	1	50	0
1906.484	1	10	n/a	n/a	1	50	1
1907.584	1	10	n/a	n/a	1	50	2
1908.6338	1	10	n/a	n/a	1	50	3
1909.9172	1	10	n/a	n/a	1	50	4
1911.1338	1	10	n/a	n/a	1	50	5
1912.3504	1	21	n/a	n/a	1	50	0
1941.6554	1	81	n/a	n/a	1	0	0
1941.8554	1	81	n/a	n/a	1	0	0
1942.0554	1	81	n/a	n/a	1	0	0
1942.2554	1	81	n/a	n/a	1	0	0
1942.4554	1	81	n/a	n/a	1	0	0
1942.6554	1	81	n/a	n/a	1	0	0
1942.8554	1	81	n/a	n/a	1	0	0
1943.0554	1	81	n/a	n/a	1	0	0
1943.2554	1	81	n/a	n/a	1	0	0
1943.4554	1	81	n/a	n/a	1	0	0
1944.6818	1	10	n/a	n/a	1	51	1
1945.8984	1	10	n/a	n/a	1	51	2
1947.1482	1	10	n/a	n/a	1	51	3
1948.3982	1	21	n/a	n/a	1	51	0
1949.6148	1	10	n/a	n/a	1	51	1
1950.8314	1	21	n/a	n/a	1	51	0
1952.1314	1	10	n/a	n/a	1	51	1
1953.3146	1	10	n/a	n/a	1	51	2
1954.5312	1	10	n/a	n/a	1	51	3
1955.7478	1	21	n/a	n/a	1	51	0
1956.7976	1	10	n/a	n/a	1	51	1
1957.8476	1	21	n/a	n/a	1	51	0
1959.0308	1	10	n/a	n/a	1	51	1
1960.2308	1	10	n/a	n/a	1	51	2
1961.3974	1	10	n/a	n/a	1	51	3
1962.564	1	21	n/a	n/a	1	51	0
1963.864	1	10	n/a	n/a	1	51	1
1964.9306	1	10	n/a	n/a	1	51	2
1966.1972	1	10	n/a	n/a	1	51	3
1967.3304	1	10	n/a	n/a	1	51	4
1968.1308	1	81	n/a	n/a	1	0	0
1968.3308	1	81	n/a	n/a	1	0	0
1968.5308	1	81	n/a	n/a	1	0	0
1968.7308	1	81	n/a	n/a	1	0	0
1968.9308	1	81	n/a	n/a	1	0	0
1969.1308	1	81	n/a	n/a	1	0	0
1969.3308	1	81	n/a	n/a	1	0	0
1969.5308	1	81	n/a	n/a	1	0	0
1969.7308	1	81	n/a	n/a	1	0	0
1969.9308	1	81	n/a	n/a	1	0	0
1971.1136	1	10	n/a	n/a	1	51	1
1972.1968	1	21	n/a	n/a	1	51	0
1973.23	1	10	n/a	n/a	1	51	1
1974.2966	1	10	n/a	n/a	1	51	2
1975.5966	1	10	n/a	n/a	1	51	3
1976.8964	1	21	n/a	n/a	1	51	0
1978.0298	1	10	n/a	n/a	1	51	1
1979.1964	1	10	n/a	n/a	1	51	2
1980.4796	1	10	n/a	n/a	1	51	3
1981.5128	1	10	n/a	n/a	1	51	4
1982.7294	1	10	n/a	n/a	1	51	5
1983.8628	1	10	n/a	n/a	1	51	6
1984.9626	1	10	n/a	n/a	1	51	7
1986.0626	1	21	n/a	n/a	1	51	0
1987.1958	1	10	n/a	n/a	1	51	1
1988.2792	1	10	n/a	n/a	1	51	2
1989.5624	1	10	n/a	n/a	1	51	3
1990.8456	1	21	n/a	n/a	1	51	0
1992.029	1	10	n/a	n/a	1	51	1
1993.1622	1	10	n/a	n/a	1	51	2
1994.0088	1	81	n/a	n/a	1	0	0
1994.2088	1	81	n/a	n/a	1	0	0
1994.4088	1	81	n/a	n/a	1	0	0
1994.6088	1	81	n/a	n/a	1	0	0
1994.8088	1	81	n/a	n/a	1	0	0
1995.0088	1	81	n/a	n/a	1	0	0
1995.2088	1	81	n/a	n/a	1	0	0
1995.4088	1	81	n/a	n/a	1	0	0
1995.6088	1	81	n/a	n/a	1	0	0
1995.8088	1	81	n/a	n/a	1	0	0
1997.0786	1	10	n/a	n/a	1	51	1
1998.3786	1	10	n/a	n/a	1	51	2
1999.5118	1	10	n/a	n/a	1	51	3
2000.6618	1	10	n/a	n/a	1	51	4
2001.945	1	10	n/a	n/a	1	51	5
2003.045	1	10	n/a	n/a	1	51	6
2004.2948	1	10	n/a	n/a	1	51	7
2005.5448	1	21	n/a	n/a	1	51	0
2006.7948	1	10	n/a	n/a	1	51	1
2008.0446	1	21	n/a	n/a	1	51	0
2009.2112	1	10	n/a	n/a	1	51	1
2010.2446	1	10	n/a	n/a	1	51	2
2011.5444	1	10	n/a	n/a	1	51	3
2012.711	1	10	n/a	n/a	1	51	4
2014.0276	1	10	n/a	n/a	1	51	5
2015.3442	1	21	n/a	n/a	1	51	0
2016.6274	1	10	n/a	n/a	1	51	1
2017.9274	1	10	n/a	n/a	1	51	2
2019.0606	1	10	n/a	n/a	1	51	3
2020.144	1	10	n/a	n/a	1	51	4
2020.9634	1	81	n/a	n/a	1	0	0
2021.1634	1	81	n/a	n/a	1	0	0
2021.3634	1	81	n/a	n/a	1	0	0
2021.5634	1	81	n/a	n/a	1	0	0
2021.7634	1	81	n/a	n/a	1	0	0
2021.9634	1	81	n/a	n/a	1	0	0
2022.1634	1	81	n/a	n/a	1	0	0
2022.3634	1	81	n/a	n/a	1	0	0
2022.5634	1	81	n/a	n/a	1	0	0
2022.7634	1	81	n/a	n/a	1	0	0
2024.177	1	10	n/a	n/a	1	51	1
2025.4936	1	10	n/a	n/a	1	51	2
2026.7268	1	10	n/a	n/a	1	51	3
2028.0602	1	10	n/a	n/a	1	51	4
2029.26	1	10	n/a	n/a	1	51	5
2030.46	1	21	n/a	n/a	1	51	0
2031.76	1	10	n/a	n/a	1	51	1
2033.0432	1	10	n/a	n/a	1	51	2
2034.3098	1	10	n/a	n/a	1	51	3
2035.5764	1	21	n/a	n/a	1	51	0
2036.8596	1	10	n/a	n/a	1	51	1
2038.0428	1	10	n/a	n/a	1	51	2
2039.2928	1	10	n/a	n/a	1	51	3
2040.3594	1	10	n/a	n/a	1	51	4
2041.5094	1	10	n/a	n/a	1	51	5
2042.6592	1	21	n/a	n/a	1	51	0
2043.9258	1	10	n/a	n/a	1	51	1
2045.1924	1	21	n/a	n/a	1	51	0
2046.459	1	10	n/a	n/a	1	51	1
2047.659	1	10	n/a	n/a	1	51	2
2048.5556	1	81	n/a	n/a	1	0	0
2048.7556	1	81	n/a	n/a	1	0	0
2048.9556	1	81	n/a	n/a	1	0	0
2049.1556	1	81	n/a	n/a	1	0	0
2049.3556	1	81	n/a	n/a	1	0	0
2049.5556	1	81	n/a	n/a	1	0	0
2049.7556	1	81	n/a	n/a	1	0	0
2049.9556	1	81	n/a	n/a	1	0	0
2050.1556	1	81	n/a	n/a	1	0	0
2050.3556	1	81	n/a	n/a	1	0	0
2051.7588	1	10	n/a	n/a	1	51	1
2052.792	1	10	n/a	n/a	1	51	2
2054.0252	1	10	n/a	n/a	1	51	3
2055.2586	1	21	n/a	n/a	1	51	0
2056.5418	1	10	n/a	n/a	1	51	1
2057.6584	1	10	n/a	n/a	1	51	2
2058.725	1	10	n/a	n/a	1	51	3
2059.9916	1	10	n/a	n/a	1	51	4
2061.2914	1	10	n/a	n/a	1	51	5
2062.5914	1	21	n/a	n/a	1	51	0
2063.8414	1	10	n/a	n/a	1	51	1
2065.0912	1	21	n/a	n/a	1	51	0
2066.1912	1	10	n/a	n/a	1	51	1
2067.4244	1	10	n/a	n/a	1	51	2
2068.4744	1	10	n/a	n/a	1	51	3
2069.7076	1	10	n/a	n/a	1	51	4
2070.741	1	10	n/a	n/a	1	51	5
2071.9576	1	10	n/a	n/a	1	51	6
2073.2074	1	10	n/a	n/a	1	51	7
2074.4574	1	21	n/a	n/a	1	51	0
