onset	duration	value	response	rt	good	TMS	seq
97.576	1	82	n/a	n/a	1	0	0
97.645	1	82	n/a	n/a	1	0	0
97.96	1	82	n/a	n/a	1	0	0
98.23	1	82	n/a	n/a	1	0	0
98.462	1	82	n/a	n/a	1	0	0
98.576	1	82	n/a	n/a	1	0	0
98.829	1	82	n/a	n/a	1	0	0
98.889	1	82	n/a	n/a	1	0	0
99.028	1	82	n/a	n/a	1	0	0
99.207	1	82	n/a	n/a	1	0	0
100.5634	1	10	n/a	n/a	1	52	1
101.6466	1	10	n/a	n/a	1	52	2
102.7466	1	10	n/a	n/a	1	52	3
104.0132	1	10	n/a	n/a	1	52	4
105.0464	1	10	n/a	n/a	1	52	5
106.1464	1	10	n/a	n/a	1	52	6
107.1796	1	10	n/a	n/a	1	52	7
108.2128	1	21	n/a	n/a	1	52	0
109.4294	1	10	n/a	n/a	1	52	1
110.646	1	10	n/a	n/a	1	52	2
111.9294	1	10	n/a	n/a	1	52	3
113.1626	1	10	n/a	n/a	1	52	4
114.4124	1	10	n/a	n/a	1	52	5
115.7124	1	10	n/a	n/a	1	52	6
116.929	1	10	n/a	n/a	1	52	7
118.1456	1	21	n/a	n/a	1	52	0
119.3788	1	10	n/a	n/a	1	52	1
120.5622	1	10	n/a	n/a	1	52	2
121.862	1	10	n/a	n/a	1	52	3
123.162	1	10	n/a	n/a	1	52	4
124.2694	1	82	n/a	n/a	1	0	0
124.5504	1	82	n/a	n/a	1	0	0
124.8864	1	82	n/a	n/a	1	0	0
125.0694	1	82	n/a	n/a	1	0	0
125.1134	1	82	n/a	n/a	1	0	0
125.2694	1	82	n/a	n/a	1	0	0
125.6074	1	82	n/a	n/a	1	0	0
125.7334	1	82	n/a	n/a	1	0	0
125.9914	1	82	n/a	n/a	1	0	0
126.0874	1	82	n/a	n/a	1	0	0
127.195	1	10	n/a	n/a	1	52	1
128.3116	1	10	n/a	n/a	1	52	2
129.595	1	10	n/a	n/a	1	52	3
130.6448	1	10	n/a	n/a	1	52	4
131.9614	1	10	n/a	n/a	1	52	5
133.278	1	21	n/a	n/a	1	52	0
134.5612	1	10	n/a	n/a	1	52	1
135.8278	1	10	n/a	n/a	1	52	2
136.8944	1	10	n/a	n/a	1	52	3
137.961	1	10	n/a	n/a	1	52	4
139.1444	1	10	n/a	n/a	1	52	5
140.3276	1	21	n/a	n/a	1	52	0
141.3776	1	10	n/a	n/a	1	52	1
142.5274	1	10	n/a	n/a	1	52	2
143.6108	1	10	n/a	n/a	1	52	3
144.794	1	10	n/a	n/a	1	52	4
146.0272	1	10	n/a	n/a	1	52	5
147.2606	1	21	n/a	n/a	1	52	0
148.577	1	10	n/a	n/a	1	52	1
149.7604	1	10	n/a	n/a	1	52	2
150.6658	1	82	n/a	n/a	1	0	0
150.9528	1	82	n/a	n/a	1	0	0
151.1848	1	82	n/a	n/a	1	0	0
151.2398	1	82	n/a	n/a	1	0	0
151.2678	1	82	n/a	n/a	1	0	0
151.6658	1	82	n/a	n/a	1	0	0
151.9948	1	82	n/a	n/a	1	0	0
152.0778	1	82	n/a	n/a	1	0	0
152.2358	1	82	n/a	n/a	1	0	0
152.2928	1	82	n/a	n/a	1	0	0
153.8434	1	10	n/a	n/a	1	52	1
154.96	1	10	n/a	n/a	1	52	2
156.1766	1	10	n/a	n/a	1	52	3
157.3598	1	10	n/a	n/a	1	52	4
158.5264	1	10	n/a	n/a	1	52	5
159.5764	1	10	n/a	n/a	1	52	6
160.7264	1	10	n/a	n/a	1	52	7
161.8762	1	21	n/a	n/a	1	52	0
163.0596	1	10	n/a	n/a	1	52	1
164.1262	1	10	n/a	n/a	1	52	2
165.176	1	10	n/a	n/a	1	52	3
166.226	1	21	n/a	n/a	1	52	0
167.376	1	10	n/a	n/a	1	52	1
168.5258	1	21	n/a	n/a	1	52	0
169.6924	1	10	n/a	n/a	1	52	1
171.009	1	10	n/a	n/a	1	52	2
172.2256	1	10	n/a	n/a	1	52	3
173.4922	1	10	n/a	n/a	1	52	4
174.7256	1	10	n/a	n/a	1	52	5
175.9922	1	10	n/a	n/a	1	52	6
176.7846	1	82	n/a	n/a	1	0	0
176.9276	1	82	n/a	n/a	1	0	0
177.2976	1	82	n/a	n/a	1	0	0
177.4626	1	82	n/a	n/a	1	0	0
177.7436	1	82	n/a	n/a	1	0	0
177.7846	1	82	n/a	n/a	1	0	0
177.9166	1	82	n/a	n/a	1	0	0
178.1916	1	82	n/a	n/a	1	0	0
178.5436	1	82	n/a	n/a	1	0	0
178.6476	1	82	n/a	n/a	1	0	0
179.7918	1	10	n/a	n/a	1	52	1
181.0418	1	10	n/a	n/a	1	52	2
182.225	1	10	n/a	n/a	1	52	3
183.2584	1	10	n/a	n/a	1	52	4
184.4082	1	10	n/a	n/a	1	52	5
185.5582	1	10	n/a	n/a	1	52	6
186.8082	1	10	n/a	n/a	1	52	7
188.058	1	21	n/a	n/a	1	52	0
189.358	1	10	n/a	n/a	1	52	1
190.6578	1	21	n/a	n/a	1	52	0
191.9078	1	10	n/a	n/a	1	52	1
193.1244	1	10	n/a	n/a	1	52	2
194.4244	1	10	n/a	n/a	1	52	3
195.6076	1	10	n/a	n/a	1	52	4
196.7576	1	10	n/a	n/a	1	52	5
197.9074	1	21	n/a	n/a	1	52	0
199.1574	1	10	n/a	n/a	1	52	1
200.3406	1	10	n/a	n/a	1	52	2
201.6238	1	10	n/a	n/a	1	52	3
202.8072	1	10	n/a	n/a	1	52	4
203.674	1	82	n/a	n/a	1	0	0
203.697	1	82	n/a	n/a	1	0	0
203.858	1	82	n/a	n/a	1	0	0
204.279	1	82	n/a	n/a	1	0	0
204.608	1	82	n/a	n/a	1	0	0
204.674	1	82	n/a	n/a	1	0	0
204.966	1	82	n/a	n/a	1	0	0
205.063	1	82	n/a	n/a	1	0	0
205.189	1	82	n/a	n/a	1	0	0
205.255	1	82	n/a	n/a	1	0	0
206.8736	1	10	n/a	n/a	1	52	1
208.0236	1	10	n/a	n/a	1	52	2
209.1734	1	10	n/a	n/a	1	52	3
210.4566	1	10	n/a	n/a	1	52	4
211.5234	1	10	n/a	n/a	1	52	5
212.59	1	21	n/a	n/a	1	52	0
213.8398	1	10	n/a	n/a	1	52	1
215.0898	1	21	n/a	n/a	1	52	0
216.3396	1	10	n/a	n/a	1	52	1
217.4562	1	10	n/a	n/a	1	52	2
218.5228	1	10	n/a	n/a	1	52	3
219.5894	1	21	n/a	n/a	1	52	0
220.6394	1	10	n/a	n/a	1	52	1
221.806	1	10	n/a	n/a	1	52	2
222.9392	1	10	n/a	n/a	1	52	3
224.1226	1	10	n/a	n/a	1	52	4
225.2724	1	10	n/a	n/a	1	52	5
226.6058	1	10	n/a	n/a	1	52	6
227.7224	1	10	n/a	n/a	1	52	7
228.839	1	21	n/a	n/a	1	52	0
251.321	1	81	n/a	n/a	1	0	0
251.521	1	81	n/a	n/a	1	0	0
251.721	1	81	n/a	n/a	1	0	0
251.921	1	81	n/a	n/a	1	0	0
252.121	1	81	n/a	n/a	1	0	0
252.321	1	81	n/a	n/a	1	0	0
252.521	1	81	n/a	n/a	1	0	0
252.721	1	81	n/a	n/a	1	0	0
252.921	1	81	n/a	n/a	1	0	0
253.121	1	81	n/a	n/a	1	0	0
254.3874	1	10	n/a	n/a	1	50	1
255.6206	1	10	n/a	n/a	1	50	2
256.7872	1	10	n/a	n/a	1	50	3
257.8706	1	10	n/a	n/a	1	50	4
259.0204	1	10	n/a	n/a	1	50	5
260.187	1	10	n/a	n/a	1	50	6
261.437	1	10	n/a	n/a	1	50	7
262.6868	1	21	n/a	n/a	1	50	0
263.9702	1	10	n/a	n/a	1	50	1
265.2534	1	21	n/a	n/a	1	50	0
266.5034	1	10	n/a	n/a	1	50	1
267.67	1	10	n/a	n/a	1	50	2
268.8866	1	10	n/a	n/a	1	50	3
269.9364	1	10	n/a	n/a	1	50	4
270.9864	1	10	n/a	n/a	1	50	5
272.0364	1	21	n/a	n/a	1	50	0
273.203	1	10	n/a	n/a	1	50	1
274.4862	1	10	n/a	n/a	1	50	2
275.5362	1	10	n/a	n/a	1	50	3
276.586	1	21	n/a	n/a	1	50	0
277.3988	1	81	n/a	n/a	1	0	0
277.5988	1	81	n/a	n/a	1	0	0
277.7988	1	81	n/a	n/a	1	0	0
277.9988	1	81	n/a	n/a	1	0	0
278.1988	1	81	n/a	n/a	1	0	0
278.3988	1	81	n/a	n/a	1	0	0
278.5988	1	81	n/a	n/a	1	0	0
278.7988	1	81	n/a	n/a	1	0	0
278.9988	1	81	n/a	n/a	1	0	0
279.1988	1	81	n/a	n/a	1	0	0
280.3858	1	10	n/a	n/a	1	50	1
281.5358	1	10	n/a	n/a	1	50	2
282.7524	1	10	n/a	n/a	1	50	3
283.9356	1	10	n/a	n/a	1	50	4
285.0022	1	10	n/a	n/a	1	50	5
286.2022	1	10	n/a	n/a	1	50	6
287.4188	1	10	n/a	n/a	1	50	7
288.6354	1	21	n/a	n/a	1	50	0
289.7686	1	10	n/a	n/a	1	50	1
291.0186	1	10	n/a	n/a	1	50	2
292.1852	1	10	n/a	n/a	1	50	3
293.4516	1	10	n/a	n/a	1	50	4
294.685	1	10	n/a	n/a	1	50	5
295.9182	1	21	n/a	n/a	1	50	0
296.9682	1	10	n/a	n/a	1	50	1
298.268	1	10	n/a	n/a	1	50	2
299.5846	1	10	n/a	n/a	1	50	3
300.9012	1	21	n/a	n/a	1	50	0
302.2178	1	10	n/a	n/a	1	50	1
303.5344	1	21	n/a	n/a	1	50	0
304.425	1	81	n/a	n/a	1	0	0
304.625	1	81	n/a	n/a	1	0	0
304.825	1	81	n/a	n/a	1	0	0
305.025	1	81	n/a	n/a	1	0	0
305.225	1	81	n/a	n/a	1	0	0
305.425	1	81	n/a	n/a	1	0	0
305.625	1	81	n/a	n/a	1	0	0
305.825	1	81	n/a	n/a	1	0	0
306.025	1	81	n/a	n/a	1	0	0
306.225	1	81	n/a	n/a	1	0	0
307.5176	1	10	n/a	n/a	1	50	1
308.7174	1	10	n/a	n/a	1	50	2
309.8508	1	10	n/a	n/a	1	50	3
310.934	1	10	n/a	n/a	1	50	4
312.0006	1	10	n/a	n/a	1	50	5
313.0838	1	10	n/a	n/a	1	50	6
314.3838	1	10	n/a	n/a	1	50	7
315.6836	1	21	n/a	n/a	1	50	0
316.967	1	10	n/a	n/a	1	50	1
318.1502	1	10	n/a	n/a	1	50	2
319.3834	1	10	n/a	n/a	1	50	3
320.6	1	10	n/a	n/a	1	50	4
321.75	1	10	n/a	n/a	1	50	5
322.9	1	21	n/a	n/a	1	50	0
323.9832	1	10	n/a	n/a	1	50	1
325.0164	1	10	n/a	n/a	1	50	2
326.283	1	10	n/a	n/a	1	50	3
327.3164	1	10	n/a	n/a	1	50	4
328.633	1	10	n/a	n/a	1	50	5
329.9494	1	21	n/a	n/a	1	50	0
330.9602	1	81	n/a	n/a	1	0	0
331.1602	1	81	n/a	n/a	1	0	0
331.3602	1	81	n/a	n/a	1	0	0
331.5602	1	81	n/a	n/a	1	0	0
331.7602	1	81	n/a	n/a	1	0	0
331.9602	1	81	n/a	n/a	1	0	0
332.1602	1	81	n/a	n/a	1	0	0
332.3602	1	81	n/a	n/a	1	0	0
332.5602	1	81	n/a	n/a	1	0	0
332.7602	1	81	n/a	n/a	1	0	0
334.0492	1	10	n/a	n/a	1	50	1
335.1992	1	10	n/a	n/a	1	50	2
336.4658	1	10	n/a	n/a	1	50	3
337.599	1	10	n/a	n/a	1	50	4
338.8656	1	10	n/a	n/a	1	50	5
340.1488	1	10	n/a	n/a	1	50	6
341.4488	1	10	n/a	n/a	1	50	7
342.7488	1	21	n/a	n/a	1	50	0
343.8654	1	10	n/a	n/a	1	50	1
345.1652	1	10	n/a	n/a	1	50	2
346.4152	1	10	n/a	n/a	1	50	3
347.5152	1	10	n/a	n/a	1	50	4
348.7984	1	10	n/a	n/a	1	50	5
349.8816	1	10	n/a	n/a	1	50	6
351.0648	1	10	n/a	n/a	1	50	7
352.2482	1	21	n/a	n/a	1	50	0
353.5648	1	10	n/a	n/a	1	50	1
354.8814	1	21	n/a	n/a	1	50	0
355.948	1	10	n/a	n/a	1	50	1
357.1978	1	10	n/a	n/a	1	50	2
358.0762	1	81	n/a	n/a	1	0	0
358.2762	1	81	n/a	n/a	1	0	0
358.4762	1	81	n/a	n/a	1	0	0
358.6762	1	81	n/a	n/a	1	0	0
358.8762	1	81	n/a	n/a	1	0	0
359.0762	1	81	n/a	n/a	1	0	0
359.2762	1	81	n/a	n/a	1	0	0
359.4762	1	81	n/a	n/a	1	0	0
359.6762	1	81	n/a	n/a	1	0	0
359.8762	1	81	n/a	n/a	1	0	0
361.1642	1	10	n/a	n/a	1	50	1
362.4308	1	10	n/a	n/a	1	50	2
363.5974	1	10	n/a	n/a	1	50	3
364.764	1	21	n/a	n/a	1	50	0
365.814	1	10	n/a	n/a	1	50	1
366.9972	1	10	n/a	n/a	1	50	2
368.2472	1	10	n/a	n/a	1	50	3
369.3638	1	10	n/a	n/a	1	50	4
370.5638	1	10	n/a	n/a	1	50	5
371.8136	1	10	n/a	n/a	1	50	6
373.0302	1	10	n/a	n/a	1	50	7
374.2468	1	21	n/a	n/a	1	50	0
375.3968	1	10	n/a	n/a	1	50	1
376.6634	1	10	n/a	n/a	1	50	2
377.78	1	10	n/a	n/a	1	50	3
378.9298	1	10	n/a	n/a	1	50	4
380.2132	1	10	n/a	n/a	1	50	5
381.2798	1	10	n/a	n/a	1	50	6
382.4464	1	10	n/a	n/a	1	50	7
383.613	1	21	n/a	n/a	1	50	0
399.0238	1	81	n/a	n/a	1	0	0
399.2238	1	81	n/a	n/a	1	0	0
399.4238	1	81	n/a	n/a	1	0	0
399.6238	1	81	n/a	n/a	1	0	0
399.8238	1	81	n/a	n/a	1	0	0
400.0238	1	81	n/a	n/a	1	0	0
400.2238	1	81	n/a	n/a	1	0	0
400.4238	1	81	n/a	n/a	1	0	0
400.6238	1	81	n/a	n/a	1	0	0
400.8238	1	81	n/a	n/a	1	0	0
402.1452	1	10	n/a	n/a	1	51	1
403.3784	1	10	n/a	n/a	1	51	2
404.6116	1	10	n/a	n/a	1	51	3
405.795	1	10	n/a	n/a	1	51	4
406.9782	1	10	n/a	n/a	1	51	5
408.1614	1	21	n/a	n/a	1	51	0
409.2948	1	10	n/a	n/a	1	51	1
410.4946	1	10	n/a	n/a	1	51	2
411.8112	1	10	n/a	n/a	1	51	3
412.8446	1	10	n/a	n/a	1	51	4
414.0944	1	10	n/a	n/a	1	51	5
415.3444	1	21	n/a	n/a	1	51	0
416.5276	1	10	n/a	n/a	1	51	1
417.7442	1	10	n/a	n/a	1	51	2
419.0274	1	10	n/a	n/a	1	51	3
420.194	1	10	n/a	n/a	1	51	4
421.344	1	10	n/a	n/a	1	51	5
422.494	1	21	n/a	n/a	1	51	0
423.8106	1	10	n/a	n/a	1	51	1
425.1272	1	21	n/a	n/a	1	51	0
426.0868	1	81	n/a	n/a	1	0	0
426.2868	1	81	n/a	n/a	1	0	0
426.4868	1	81	n/a	n/a	1	0	0
426.6868	1	81	n/a	n/a	1	0	0
426.8868	1	81	n/a	n/a	1	0	0
427.0868	1	81	n/a	n/a	1	0	0
427.2868	1	81	n/a	n/a	1	0	0
427.4868	1	81	n/a	n/a	1	0	0
427.6868	1	81	n/a	n/a	1	0	0
427.8868	1	81	n/a	n/a	1	0	0
429.0268	1	10	n/a	n/a	1	51	1
430.3434	1	10	n/a	n/a	1	51	2
431.4268	1	10	n/a	n/a	1	51	3
432.6934	1	10	n/a	n/a	1	51	4
433.81	1	10	n/a	n/a	1	51	5
435.0266	1	10	n/a	n/a	1	51	6
436.3098	1	10	n/a	n/a	1	51	7
437.593	1	21	n/a	n/a	1	51	0
438.6262	1	10	n/a	n/a	1	51	1
439.6928	1	10	n/a	n/a	1	51	2
440.9262	1	10	n/a	n/a	1	51	3
442.0428	1	10	n/a	n/a	1	51	4
443.326	1	10	n/a	n/a	1	51	5
444.376	1	10	n/a	n/a	1	51	6
445.5426	1	10	n/a	n/a	1	51	7
446.7092	1	21	n/a	n/a	1	51	0
447.7924	1	10	n/a	n/a	1	51	1
448.859	1	10	n/a	n/a	1	51	2
449.9756	1	10	n/a	n/a	1	51	3
451.0922	1	21	n/a	n/a	1	51	0
452.1968	1	81	n/a	n/a	1	0	0
452.3968	1	81	n/a	n/a	1	0	0
452.5968	1	81	n/a	n/a	1	0	0
452.7968	1	81	n/a	n/a	1	0	0
452.9968	1	81	n/a	n/a	1	0	0
453.1968	1	81	n/a	n/a	1	0	0
453.3968	1	81	n/a	n/a	1	0	0
453.5968	1	81	n/a	n/a	1	0	0
453.7968	1	81	n/a	n/a	1	0	0
453.9968	1	81	n/a	n/a	1	0	0
455.2086	1	10	n/a	n/a	1	51	1
456.4418	1	10	n/a	n/a	1	51	2
457.5918	1	10	n/a	n/a	1	51	3
458.825	1	10	n/a	n/a	1	51	4
459.8584	1	10	n/a	n/a	1	51	5
460.8916	1	21	n/a	n/a	1	51	0
461.9416	1	10	n/a	n/a	1	51	1
463.1414	1	10	n/a	n/a	1	51	2
464.208	1	10	n/a	n/a	1	51	3
465.458	1	10	n/a	n/a	1	51	4
466.5746	1	10	n/a	n/a	1	51	5
467.8912	1	10	n/a	n/a	1	51	6
469.1078	1	10	n/a	n/a	1	51	7
470.3244	1	21	n/a	n/a	1	51	0
471.591	1	10	n/a	n/a	1	51	1
472.8908	1	10	n/a	n/a	1	51	2
474.0408	1	10	n/a	n/a	1	51	3
475.1908	1	21	n/a	n/a	1	51	0
476.4074	1	10	n/a	n/a	1	51	1
477.7072	1	10	n/a	n/a	1	51	2
478.5676	1	81	n/a	n/a	1	0	0
478.7676	1	81	n/a	n/a	1	0	0
478.9676	1	81	n/a	n/a	1	0	0
479.1676	1	81	n/a	n/a	1	0	0
479.3676	1	81	n/a	n/a	1	0	0
479.5676	1	81	n/a	n/a	1	0	0
479.7676	1	81	n/a	n/a	1	0	0
479.9676	1	81	n/a	n/a	1	0	0
480.1676	1	81	n/a	n/a	1	0	0
480.3676	1	81	n/a	n/a	1	0	0
481.7404	1	10	n/a	n/a	1	51	1
482.8902	1	10	n/a	n/a	1	51	2
484.0568	1	10	n/a	n/a	1	51	3
485.2568	1	10	n/a	n/a	1	51	4
486.44	1	10	n/a	n/a	1	51	5
487.6234	1	21	n/a	n/a	1	51	0
488.6566	1	10	n/a	n/a	1	51	1
489.6898	1	21	n/a	n/a	1	51	0
490.9398	1	10	n/a	n/a	1	51	1
492.1064	1	10	n/a	n/a	1	51	2
493.2064	1	10	n/a	n/a	1	51	3
494.2562	1	10	n/a	n/a	1	51	4
495.4562	1	10	n/a	n/a	1	51	5
496.6562	1	21	n/a	n/a	1	51	0
497.956	1	10	n/a	n/a	1	51	1
499.1726	1	10	n/a	n/a	1	51	2
500.2726	1	10	n/a	n/a	1	51	3
501.3726	1	21	n/a	n/a	1	51	0
502.5724	1	10	n/a	n/a	1	51	1
503.839	1	10	n/a	n/a	1	51	2
504.8714	1	81	n/a	n/a	1	0	0
505.0714	1	81	n/a	n/a	1	0	0
505.2714	1	81	n/a	n/a	1	0	0
505.4714	1	81	n/a	n/a	1	0	0
505.6714	1	81	n/a	n/a	1	0	0
505.8714	1	81	n/a	n/a	1	0	0
506.0714	1	81	n/a	n/a	1	0	0
506.2714	1	81	n/a	n/a	1	0	0
506.4714	1	81	n/a	n/a	1	0	0
506.6714	1	81	n/a	n/a	1	0	0
507.8054	1	10	n/a	n/a	1	51	1
509.0554	1	10	n/a	n/a	1	51	2
510.3386	1	10	n/a	n/a	1	51	3
511.5052	1	10	n/a	n/a	1	51	4
512.6384	1	10	n/a	n/a	1	51	5
513.805	1	10	n/a	n/a	1	51	6
514.955	1	10	n/a	n/a	1	51	7
516.105	1	21	n/a	n/a	1	51	0
517.2048	1	10	n/a	n/a	1	51	1
518.4548	1	10	n/a	n/a	1	51	2
519.6548	1	10	n/a	n/a	1	51	3
520.888	1	10	n/a	n/a	1	51	4
521.9212	1	10	n/a	n/a	1	51	5
522.9546	1	21	n/a	n/a	1	51	0
524.1212	1	10	n/a	n/a	1	51	1
525.2878	1	21	n/a	n/a	1	51	0
526.5544	1	10	n/a	n/a	1	51	1
527.821	1	10	n/a	n/a	1	51	2
529.0042	1	10	n/a	n/a	1	51	3
530.1374	1	10	n/a	n/a	1	51	4
726.3534	1	81	n/a	n/a	1	0	0
726.5534	1	81	n/a	n/a	1	0	0
726.7534	1	81	n/a	n/a	1	0	0
726.9534	1	81	n/a	n/a	1	0	0
727.1534	1	81	n/a	n/a	1	0	0
727.3534	1	81	n/a	n/a	1	0	0
727.5534	1	81	n/a	n/a	1	0	0
727.7534	1	81	n/a	n/a	1	0	0
727.9534	1	81	n/a	n/a	1	0	0
728.1534	1	81	n/a	n/a	1	0	0
729.3922	1	10	n/a	n/a	1	51	1
730.442	1	10	n/a	n/a	1	51	2
731.7254	1	10	n/a	n/a	1	51	3
732.9418	1	10	n/a	n/a	1	51	4
733.9918	1	10	n/a	n/a	1	51	5
735.3084	1	10	n/a	n/a	1	51	6
736.4584	1	10	n/a	n/a	1	51	7
737.6082	1	21	n/a	n/a	1	51	0
738.7248	1	10	n/a	n/a	1	51	1
739.8414	1	21	n/a	n/a	1	51	0
741.058	1	10	n/a	n/a	1	51	1
742.2746	1	21	n/a	n/a	1	51	0
743.3746	1	10	n/a	n/a	1	51	1
744.6578	1	10	n/a	n/a	1	51	2
745.8912	1	10	n/a	n/a	1	51	3
747.1744	1	10	n/a	n/a	1	51	4
748.391	1	10	n/a	n/a	1	51	5
749.441	1	10	n/a	n/a	1	51	6
750.6574	1	10	n/a	n/a	1	51	7
751.874	1	21	n/a	n/a	1	51	0
752.6128	1	81	n/a	n/a	1	0	0
752.8128	1	81	n/a	n/a	1	0	0
753.0128	1	81	n/a	n/a	1	0	0
753.2128	1	81	n/a	n/a	1	0	0
753.4128	1	81	n/a	n/a	1	0	0
753.6128	1	81	n/a	n/a	1	0	0
753.8128	1	81	n/a	n/a	1	0	0
754.0128	1	81	n/a	n/a	1	0	0
754.2128	1	81	n/a	n/a	1	0	0
754.4128	1	81	n/a	n/a	1	0	0
755.6238	1	10	n/a	n/a	1	51	1
756.7404	1	10	n/a	n/a	1	51	2
757.807	1	10	n/a	n/a	1	51	3
758.8736	1	21	n/a	n/a	1	51	0
759.907	1	10	n/a	n/a	1	51	1
761.0568	1	10	n/a	n/a	1	51	2
762.1734	1	10	n/a	n/a	1	51	3
763.29	1	21	n/a	n/a	1	51	0
764.4734	1	10	n/a	n/a	1	51	1
765.6732	1	10	n/a	n/a	1	51	2
766.7898	1	10	n/a	n/a	1	51	3
768.1064	1	10	n/a	n/a	1	51	4
769.3564	1	10	n/a	n/a	1	51	5
770.423	1	10	n/a	n/a	1	51	6
771.523	1	10	n/a	n/a	1	51	7
772.6228	1	21	n/a	n/a	1	51	0
773.8228	1	10	n/a	n/a	1	51	1
775.0394	1	10	n/a	n/a	1	51	2
776.1726	1	10	n/a	n/a	1	51	3
777.3058	1	21	n/a	n/a	1	51	0
778.2526	1	81	n/a	n/a	1	0	0
778.4526	1	81	n/a	n/a	1	0	0
778.6526	1	81	n/a	n/a	1	0	0
778.8526	1	81	n/a	n/a	1	0	0
779.0526	1	81	n/a	n/a	1	0	0
779.2526	1	81	n/a	n/a	1	0	0
779.4526	1	81	n/a	n/a	1	0	0
779.6526	1	81	n/a	n/a	1	0	0
779.8526	1	81	n/a	n/a	1	0	0
780.0526	1	81	n/a	n/a	1	0	0
781.4056	1	10	n/a	n/a	1	51	1
782.689	1	10	n/a	n/a	1	51	2
783.7888	1	10	n/a	n/a	1	51	3
784.9554	1	10	n/a	n/a	1	51	4
786.172	1	10	n/a	n/a	1	51	5
787.272	1	10	n/a	n/a	1	51	6
788.3386	1	10	n/a	n/a	1	51	7
789.4052	1	21	n/a	n/a	1	51	0
790.7218	1	10	n/a	n/a	1	51	1
792.0384	1	21	n/a	n/a	1	51	0
793.355	1	10	n/a	n/a	1	51	1
794.4716	1	10	n/a	n/a	1	51	2
795.7214	1	10	n/a	n/a	1	51	3
797.0048	1	10	n/a	n/a	1	51	4
798.3212	1	10	n/a	n/a	1	51	5
799.6378	1	21	n/a	n/a	1	51	0
800.7878	1	10	n/a	n/a	1	51	1
802.0044	1	10	n/a	n/a	1	51	2
803.0876	1	10	n/a	n/a	1	51	3
804.2042	1	10	n/a	n/a	1	51	4
805.0078	1	81	n/a	n/a	1	0	0
805.2078	1	81	n/a	n/a	1	0	0
805.4078	1	81	n/a	n/a	1	0	0
805.6078	1	81	n/a	n/a	1	0	0
805.8078	1	81	n/a	n/a	1	0	0
806.0078	1	81	n/a	n/a	1	0	0
806.2078	1	81	n/a	n/a	1	0	0
806.4078	1	81	n/a	n/a	1	0	0
806.6078	1	81	n/a	n/a	1	0	0
806.8078	1	81	n/a	n/a	1	0	0
808.054	1	10	n/a	n/a	1	51	1
809.204	1	21	n/a	n/a	1	51	0
810.304	1	10	n/a	n/a	1	51	1
811.5038	1	10	n/a	n/a	1	51	2
812.5872	1	10	n/a	n/a	1	51	3
813.7704	1	10	n/a	n/a	1	51	4
814.937	1	10	n/a	n/a	1	51	5
816.0702	1	10	n/a	n/a	1	51	6
817.1036	1	10	n/a	n/a	1	51	7
818.1368	1	21	n/a	n/a	1	51	0
819.42	1	10	n/a	n/a	1	51	1
820.5532	1	10	n/a	n/a	1	51	2
821.6532	1	10	n/a	n/a	1	51	3
822.9532	1	10	n/a	n/a	1	51	4
824.1364	1	10	n/a	n/a	1	51	5
825.2696	1	10	n/a	n/a	1	51	6
826.4362	1	10	n/a	n/a	1	51	7
827.6028	1	21	n/a	n/a	1	51	0
828.8028	1	10	n/a	n/a	1	51	1
830.0028	1	10	n/a	n/a	1	51	2
831.0582	1	81	n/a	n/a	1	0	0
831.2582	1	81	n/a	n/a	1	0	0
831.4582	1	81	n/a	n/a	1	0	0
831.6582	1	81	n/a	n/a	1	0	0
831.8582	1	81	n/a	n/a	1	0	0
832.0582	1	81	n/a	n/a	1	0	0
832.2582	1	81	n/a	n/a	1	0	0
832.4582	1	81	n/a	n/a	1	0	0
832.6582	1	81	n/a	n/a	1	0	0
832.8582	1	81	n/a	n/a	1	0	0
834.2192	1	10	n/a	n/a	1	51	1
835.469	1	10	n/a	n/a	1	51	2
836.769	1	10	n/a	n/a	1	51	3
838.069	1	21	n/a	n/a	1	51	0
839.2854	1	10	n/a	n/a	1	51	1
840.5854	1	10	n/a	n/a	1	51	2
841.8186	1	10	n/a	n/a	1	51	3
843.102	1	10	n/a	n/a	1	51	4
844.3852	1	10	n/a	n/a	1	51	5
845.5518	1	10	n/a	n/a	1	51	6
846.785	1	10	n/a	n/a	1	51	7
848.0184	1	21	n/a	n/a	1	51	0
849.3182	1	10	n/a	n/a	1	51	1
850.6182	1	10	n/a	n/a	1	51	2
851.7348	1	10	n/a	n/a	1	51	3
852.9846	1	10	n/a	n/a	1	51	4
854.1012	1	10	n/a	n/a	1	51	5
855.4012	1	10	n/a	n/a	1	51	6
856.6844	1	10	n/a	n/a	1	51	7
857.9678	1	21	n/a	n/a	1	51	0
870.4706	1	81	n/a	n/a	1	0	0
870.6706	1	81	n/a	n/a	1	0	0
870.8706	1	81	n/a	n/a	1	0	0
871.0706	1	81	n/a	n/a	1	0	0
871.2706	1	81	n/a	n/a	1	0	0
871.4706	1	81	n/a	n/a	1	0	0
871.6706	1	81	n/a	n/a	1	0	0
871.8706	1	81	n/a	n/a	1	0	0
872.0706	1	81	n/a	n/a	1	0	0
872.2706	1	81	n/a	n/a	1	0	0
873.6	1	10	n/a	n/a	1	50	1
874.8666	1	10	n/a	n/a	1	50	2
876.0666	1	10	n/a	n/a	1	50	3
877.2666	1	21	n/a	n/a	1	50	0
878.4998	1	10	n/a	n/a	1	50	1
879.733	1	21	n/a	n/a	1	50	0
880.833	1	10	n/a	n/a	1	50	1
882.133	1	10	n/a	n/a	1	50	2
883.2496	1	10	n/a	n/a	1	50	3
884.3662	1	21	n/a	n/a	1	50	0
885.516	1	10	n/a	n/a	1	50	1
886.816	1	10	n/a	n/a	1	50	2
888.0658	1	10	n/a	n/a	1	50	3
889.3492	1	10	n/a	n/a	1	50	4
890.399	1	10	n/a	n/a	1	50	5
891.449	1	21	n/a	n/a	1	50	0
892.649	1	10	n/a	n/a	1	50	1
893.8488	1	21	n/a	n/a	1	50	0
895.1322	1	10	n/a	n/a	1	50	1
896.4154	1	10	n/a	n/a	1	50	2
897.2638	1	81	n/a	n/a	1	0	0
897.4638	1	81	n/a	n/a	1	0	0
897.6638	1	81	n/a	n/a	1	0	0
897.8638	1	81	n/a	n/a	1	0	0
898.0638	1	81	n/a	n/a	1	0	0
898.2638	1	81	n/a	n/a	1	0	0
898.4638	1	81	n/a	n/a	1	0	0
898.6638	1	81	n/a	n/a	1	0	0
898.8638	1	81	n/a	n/a	1	0	0
899.0638	1	81	n/a	n/a	1	0	0
900.2152	1	10	n/a	n/a	1	50	1
901.5318	1	10	n/a	n/a	1	50	2
902.6816	1	10	n/a	n/a	1	50	3
903.8316	1	21	n/a	n/a	1	50	0
905.0148	1	10	n/a	n/a	1	50	1
906.1982	1	21	n/a	n/a	1	50	0
907.4648	1	10	n/a	n/a	1	50	1
908.548	1	10	n/a	n/a	1	50	2
909.648	1	10	n/a	n/a	1	50	3
910.8146	1	10	n/a	n/a	1	50	4
911.9144	1	10	n/a	n/a	1	50	5
913.1644	1	10	n/a	n/a	1	50	6
914.3976	1	10	n/a	n/a	1	50	7
915.631	1	21	n/a	n/a	1	50	0
916.8974	1	10	n/a	n/a	1	50	1
918.164	1	21	n/a	n/a	1	50	0
919.3306	1	10	n/a	n/a	1	50	1
920.5306	1	10	n/a	n/a	1	50	2
921.7806	1	10	n/a	n/a	1	50	3
923.0304	1	21	n/a	n/a	1	50	0
923.9472	1	81	n/a	n/a	1	0	0
924.1472	1	81	n/a	n/a	1	0	0
924.3472	1	81	n/a	n/a	1	0	0
924.5472	1	81	n/a	n/a	1	0	0
924.7472	1	81	n/a	n/a	1	0	0
924.9472	1	81	n/a	n/a	1	0	0
925.1472	1	81	n/a	n/a	1	0	0
925.3472	1	81	n/a	n/a	1	0	0
925.5472	1	81	n/a	n/a	1	0	0
925.7472	1	81	n/a	n/a	1	0	0
927.0636	1	10	n/a	n/a	1	50	1
928.3468	1	10	n/a	n/a	1	50	2
929.6134	1	10	n/a	n/a	1	50	3
930.8134	1	10	n/a	n/a	1	50	4
932.0132	1	10	n/a	n/a	1	50	5
933.2632	1	10	n/a	n/a	1	50	6
934.3298	1	10	n/a	n/a	1	50	7
935.3964	1	21	n/a	n/a	1	50	0
936.6296	1	10	n/a	n/a	1	50	1
937.9462	1	10	n/a	n/a	1	50	2
939.0628	1	10	n/a	n/a	1	50	3
940.296	1	10	n/a	n/a	1	50	4
941.546	1	10	n/a	n/a	1	50	5
942.796	1	21	n/a	n/a	1	50	0
944.0126	1	10	n/a	n/a	1	50	1
945.1124	1	10	n/a	n/a	1	50	2
946.3124	1	10	n/a	n/a	1	50	3
947.5456	1	10	n/a	n/a	1	50	4
948.7622	1	10	n/a	n/a	1	50	5
949.9788	1	21	n/a	n/a	1	50	0
951.0654	1	81	n/a	n/a	1	0	0
951.2654	1	81	n/a	n/a	1	0	0
951.4654	1	81	n/a	n/a	1	0	0
951.6654	1	81	n/a	n/a	1	0	0
951.8654	1	81	n/a	n/a	1	0	0
952.0656	1	81	n/a	n/a	1	0	0
952.2656	1	81	n/a	n/a	1	0	0
952.4656	1	81	n/a	n/a	1	0	0
952.6654	1	81	n/a	n/a	1	0	0
952.8654	1	81	n/a	n/a	1	0	0
954.112	1	10	n/a	n/a	1	50	1
955.2618	1	21	n/a	n/a	1	50	0
956.4118	1	10	n/a	n/a	1	50	1
957.5618	1	21	n/a	n/a	1	50	0
958.595	1	10	n/a	n/a	1	50	1
959.8116	1	10	n/a	n/a	1	50	2
961.1282	1	10	n/a	n/a	1	50	3
962.2114	1	10	n/a	n/a	1	50	4
963.4446	1	10	n/a	n/a	1	50	5
964.678	1	21	n/a	n/a	1	50	0
965.7612	1	10	n/a	n/a	1	50	1
966.8278	1	10	n/a	n/a	1	50	2
968.0278	1	10	n/a	n/a	1	50	3
969.2276	1	21	n/a	n/a	1	50	0
970.461	1	10	n/a	n/a	1	50	1
971.6942	1	21	n/a	n/a	1	50	0
972.9274	1	10	n/a	n/a	1	50	1
974.1608	1	21	n/a	n/a	1	50	0
975.3274	1	10	n/a	n/a	1	50	1
976.3772	1	10	n/a	n/a	1	50	2
977.484	1	81	n/a	n/a	1	0	0
977.684	1	81	n/a	n/a	1	0	0
977.884	1	81	n/a	n/a	1	0	0
978.084	1	81	n/a	n/a	1	0	0
978.284	1	81	n/a	n/a	1	0	0
978.484	1	81	n/a	n/a	1	0	0
978.684	1	81	n/a	n/a	1	0	0
978.884	1	81	n/a	n/a	1	0	0
979.084	1	81	n/a	n/a	1	0	0
979.284	1	81	n/a	n/a	1	0	0
980.4604	1	10	n/a	n/a	1	50	1
981.5436	1	21	n/a	n/a	1	50	0
982.7436	1	10	n/a	n/a	1	50	1
983.9434	1	21	n/a	n/a	1	50	0
985.16	1	10	n/a	n/a	1	50	1
986.21	1	10	n/a	n/a	1	50	2
987.51	1	10	n/a	n/a	1	50	3
988.6432	1	10	n/a	n/a	1	50	4
989.9598	1	10	n/a	n/a	1	50	5
991.2764	1	21	n/a	n/a	1	50	0
992.3596	1	10	n/a	n/a	1	50	1
993.5428	1	10	n/a	n/a	1	50	2
994.5762	1	10	n/a	n/a	1	50	3
995.826	1	10	n/a	n/a	1	50	4
996.926	1	10	n/a	n/a	1	50	5
998.026	1	21	n/a	n/a	1	50	0
999.2758	1	10	n/a	n/a	1	50	1
1000.4092	1	10	n/a	n/a	1	50	2
1001.5258	1	10	n/a	n/a	1	50	3
1002.6424	1	21	n/a	n/a	1	50	0
1046.5772	1	82	n/a	n/a	1	0	0
1046.6442	1	82	n/a	n/a	1	0	0
1046.9752	1	82	n/a	n/a	1	0	0
1047.1852	1	82	n/a	n/a	1	0	0
1047.2772	1	82	n/a	n/a	1	0	0
1047.5772	1	82	n/a	n/a	1	0	0
1047.9802	1	82	n/a	n/a	1	0	0
1048.1352	1	82	n/a	n/a	1	0	0
1048.1972	1	82	n/a	n/a	1	0	0
1048.2252	1	82	n/a	n/a	1	0	0
1049.5562	1	10	n/a	n/a	1	52	1
1050.7228	1	10	n/a	n/a	1	52	2
1052.0394	1	10	n/a	n/a	1	52	3
1053.356	1	21	n/a	n/a	1	52	0
1054.4058	1	10	n/a	n/a	1	52	1
1055.4558	1	10	n/a	n/a	1	52	2
1056.6058	1	10	n/a	n/a	1	52	3
1057.9056	1	10	n/a	n/a	1	52	4
1058.989	1	10	n/a	n/a	1	52	5
1060.0722	1	21	n/a	n/a	1	52	0
1061.2222	1	10	n/a	n/a	1	52	1
1062.2888	1	10	n/a	n/a	1	52	2
1063.5886	1	10	n/a	n/a	1	52	3
1064.8886	1	21	n/a	n/a	1	52	0
1065.9718	1	10	n/a	n/a	1	52	1
1067.2884	1	10	n/a	n/a	1	52	2
1068.355	1	10	n/a	n/a	1	52	3
1069.4216	1	21	n/a	n/a	1	52	0
1070.5716	1	10	n/a	n/a	1	52	1
1071.7048	1	10	n/a	n/a	1	52	2
1072.6796	1	82	n/a	n/a	1	0	0
1072.8536	1	82	n/a	n/a	1	0	0
1073.0916	1	82	n/a	n/a	1	0	0
1073.1926	1	82	n/a	n/a	1	0	0
1073.2216	1	82	n/a	n/a	1	0	0
1073.6796	1	82	n/a	n/a	1	0	0
1073.8536	1	82	n/a	n/a	1	0	0
1074.1506	1	82	n/a	n/a	1	0	0
1074.2546	1	82	n/a	n/a	1	0	0
1074.6166	1	82	n/a	n/a	1	0	0
1075.8712	1	10	n/a	n/a	1	52	1
1077.1212	1	10	n/a	n/a	1	52	2
1078.4044	1	10	n/a	n/a	1	52	3
1079.6876	1	21	n/a	n/a	1	52	0
1080.8376	1	10	n/a	n/a	1	52	1
1081.9876	1	21	n/a	n/a	1	52	0
1083.2874	1	10	n/a	n/a	1	52	1
1084.4374	1	10	n/a	n/a	1	52	2
1085.654	1	10	n/a	n/a	1	52	3
1086.9372	1	10	n/a	n/a	1	52	4
1088.0538	1	10	n/a	n/a	1	52	5
1089.2204	1	10	n/a	n/a	1	52	6
1090.387	1	10	n/a	n/a	1	52	7
1091.5536	1	21	n/a	n/a	1	52	0
1092.8702	1	10	n/a	n/a	1	52	1
1094.1534	1	10	n/a	n/a	1	52	2
1095.4034	1	10	n/a	n/a	1	52	3
1096.6534	1	21	n/a	n/a	1	52	0
1097.8032	1	10	n/a	n/a	1	52	1
1098.8532	1	10	n/a	n/a	1	52	2
1099.6756	1	82	n/a	n/a	1	0	0
1099.9126	1	82	n/a	n/a	1	0	0
1099.9516	1	82	n/a	n/a	1	0	0
1100.2156	1	82	n/a	n/a	1	0	0
1100.5776	1	82	n/a	n/a	1	0	0
1100.6758	1	82	n/a	n/a	1	0	0
1100.7048	1	82	n/a	n/a	1	0	0
1100.7658	1	82	n/a	n/a	1	0	0
1101.0338	1	82	n/a	n/a	1	0	0
1101.3328	1	82	n/a	n/a	1	0	0
1102.6364	1	10	n/a	n/a	1	52	1
1103.703	1	21	n/a	n/a	1	52	0
1104.9028	1	10	n/a	n/a	1	52	1
1106.1362	1	10	n/a	n/a	1	52	2
1107.2194	1	10	n/a	n/a	1	52	3
1108.5026	1	10	n/a	n/a	1	52	4
1109.6358	1	10	n/a	n/a	1	52	5
1110.8024	1	10	n/a	n/a	1	52	6
1111.919	1	10	n/a	n/a	1	52	7
1113.0356	1	21	n/a	n/a	1	52	0
1114.0856	1	10	n/a	n/a	1	52	1
1115.1356	1	21	n/a	n/a	1	52	0
1116.1688	1	10	n/a	n/a	1	52	1
1117.3854	1	10	n/a	n/a	1	52	2
1118.5854	1	10	n/a	n/a	1	52	3
1119.852	1	10	n/a	n/a	1	52	4
1120.9686	1	10	n/a	n/a	1	52	5
1122.1852	1	10	n/a	n/a	1	52	6
1123.235	1	10	n/a	n/a	1	52	7
1124.285	1	21	n/a	n/a	1	52	0
1125.0048	1	82	n/a	n/a	1	0	0
1125.1028	1	82	n/a	n/a	1	0	0
1125.1238	1	82	n/a	n/a	1	0	0
1125.5468	1	82	n/a	n/a	1	0	0
1125.8008	1	82	n/a	n/a	1	0	0
1126.0048	1	82	n/a	n/a	1	0	0
1126.1528	1	82	n/a	n/a	1	0	0
1126.2348	1	82	n/a	n/a	1	0	0
1126.2668	1	82	n/a	n/a	1	0	0
1126.4908	1	82	n/a	n/a	1	0	0
1128.1848	1	10	n/a	n/a	1	52	1
1129.2514	1	10	n/a	n/a	1	52	2
1130.5512	1	10	n/a	n/a	1	52	3
1131.8512	1	21	n/a	n/a	1	52	0
1133.0012	1	10	n/a	n/a	1	52	1
1134.2678	1	10	n/a	n/a	1	52	2
1135.401	1	10	n/a	n/a	1	52	3
1136.5342	1	21	n/a	n/a	1	52	0
1137.8342	1	10	n/a	n/a	1	52	1
1139.0508	1	10	n/a	n/a	1	52	2
1140.084	1	10	n/a	n/a	1	52	3
1141.1174	1	10	n/a	n/a	1	52	4
1142.184	1	10	n/a	n/a	1	52	5
1143.2838	1	10	n/a	n/a	1	52	6
1144.4504	1	10	n/a	n/a	1	52	7
1145.617	1	21	n/a	n/a	1	52	0
1146.767	1	10	n/a	n/a	1	52	1
1147.8502	1	10	n/a	n/a	1	52	2
1149.1502	1	10	n/a	n/a	1	52	3
1150.4502	1	21	n/a	n/a	1	52	0
1151.5038	1	82	n/a	n/a	1	0	0
1151.6098	1	82	n/a	n/a	1	0	0
1151.8378	1	82	n/a	n/a	1	0	0
1152.0198	1	82	n/a	n/a	1	0	0
1152.3278	1	82	n/a	n/a	1	0	0
1152.5038	1	82	n/a	n/a	1	0	0
1152.5438	1	82	n/a	n/a	1	0	0
1152.7658	1	82	n/a	n/a	1	0	0
1153.1028	1	82	n/a	n/a	1	0	0
1153.2738	1	82	n/a	n/a	1	0	0
1154.4666	1	10	n/a	n/a	1	52	1
1155.7164	1	10	n/a	n/a	1	52	2
1156.8664	1	10	n/a	n/a	1	52	3
1157.983	1	10	n/a	n/a	1	52	4
1159.183	1	10	n/a	n/a	1	52	5
1160.3828	1	21	n/a	n/a	1	52	0
1161.5828	1	10	n/a	n/a	1	52	1
1162.7826	1	10	n/a	n/a	1	52	2
1164.016	1	10	n/a	n/a	1	52	3
1165.3158	1	10	n/a	n/a	1	52	4
1166.4992	1	10	n/a	n/a	1	52	5
1167.6824	1	21	n/a	n/a	1	52	0
1168.849	1	10	n/a	n/a	1	52	1
1170.0156	1	21	n/a	n/a	1	52	0
1171.0988	1	10	n/a	n/a	1	52	1
1172.1822	1	21	n/a	n/a	1	52	0
1173.2488	1	10	n/a	n/a	1	52	1
1174.5154	1	10	n/a	n/a	1	52	2
1175.5486	1	10	n/a	n/a	1	52	3
1176.5818	1	21	n/a	n/a	1	52	0
1244.8304	1	81	n/a	n/a	1	0	0
1245.0304	1	81	n/a	n/a	1	0	0
1245.2304	1	81	n/a	n/a	1	0	0
1245.4304	1	81	n/a	n/a	1	0	0
1245.6304	1	81	n/a	n/a	1	0	0
1245.8304	1	81	n/a	n/a	1	0	0
1246.0304	1	81	n/a	n/a	1	0	0
1246.2304	1	81	n/a	n/a	1	0	0
1246.4304	1	81	n/a	n/a	1	0	0
1246.6304	1	81	n/a	n/a	1	0	0
1247.749	1	10	n/a	n/a	1	51	1
1248.7822	1	21	n/a	n/a	1	51	0
1249.8488	1	10	n/a	n/a	1	51	1
1250.9154	1	10	n/a	n/a	1	51	2
1252.132	1	10	n/a	n/a	1	51	3
1253.432	1	10	n/a	n/a	1	51	4
1254.5152	1	10	n/a	n/a	1	51	5
1255.5984	1	21	n/a	n/a	1	51	0
1256.7984	1	10	n/a	n/a	1	51	1
1257.9984	1	21	n/a	n/a	1	51	0
1259.215	1	10	n/a	n/a	1	51	1
1260.3148	1	10	n/a	n/a	1	51	2
1261.3648	1	10	n/a	n/a	1	51	3
1262.6314	1	10	n/a	n/a	1	51	4
1263.7646	1	10	n/a	n/a	1	51	5
1264.8978	1	21	n/a	n/a	1	51	0
1265.9478	1	10	n/a	n/a	1	51	1
1266.9978	1	21	n/a	n/a	1	51	0
1268.1644	1	10	n/a	n/a	1	51	1
1269.331	1	21	n/a	n/a	1	51	0
1270.2224	1	81	n/a	n/a	1	0	0
1270.4224	1	81	n/a	n/a	1	0	0
1270.6224	1	81	n/a	n/a	1	0	0
1270.8224	1	81	n/a	n/a	1	0	0
1271.0224	1	81	n/a	n/a	1	0	0
1271.2224	1	81	n/a	n/a	1	0	0
1271.4224	1	81	n/a	n/a	1	0	0
1271.6224	1	81	n/a	n/a	1	0	0
1271.8224	1	81	n/a	n/a	1	0	0
1272.0224	1	81	n/a	n/a	1	0	0
1273.3308	1	10	n/a	n/a	1	51	1
1274.564	1	10	n/a	n/a	1	51	2
1275.814	1	10	n/a	n/a	1	51	3
1276.9306	1	10	n/a	n/a	1	51	4
1278.0472	1	10	n/a	n/a	1	51	5
1279.1638	1	21	n/a	n/a	1	51	0
1280.397	1	10	n/a	n/a	1	51	1
1281.5636	1	10	n/a	n/a	1	51	2
1282.7968	1	10	n/a	n/a	1	51	3
1283.93	1	10	n/a	n/a	1	51	4
1285.1966	1	10	n/a	n/a	1	51	5
1286.5132	1	10	n/a	n/a	1	51	6
1287.7632	1	10	n/a	n/a	1	51	7
1289.0132	1	21	n/a	n/a	1	51	0
1290.1298	1	10	n/a	n/a	1	51	1
1291.2464	1	21	n/a	n/a	1	51	0
1292.313	1	10	n/a	n/a	1	51	1
1293.6128	1	10	n/a	n/a	1	51	2
1294.896	1	10	n/a	n/a	1	51	3
1296.1794	1	21	n/a	n/a	1	51	0
1297.2158	1	81	n/a	n/a	1	0	0
1297.4158	1	81	n/a	n/a	1	0	0
1297.6158	1	81	n/a	n/a	1	0	0
1297.8158	1	81	n/a	n/a	1	0	0
1298.0158	1	81	n/a	n/a	1	0	0
1298.2158	1	81	n/a	n/a	1	0	0
1298.4158	1	81	n/a	n/a	1	0	0
1298.6158	1	81	n/a	n/a	1	0	0
1298.8158	1	81	n/a	n/a	1	0	0
1299.0158	1	81	n/a	n/a	1	0	0
1300.4124	1	10	n/a	n/a	1	51	1
1301.629	1	10	n/a	n/a	1	51	2
1302.729	1	10	n/a	n/a	1	51	3
1303.8122	1	10	n/a	n/a	1	51	4
1305.0454	1	10	n/a	n/a	1	51	5
1306.2788	1	21	n/a	n/a	1	51	0
1307.5954	1	10	n/a	n/a	1	51	1
1308.712	1	10	n/a	n/a	1	51	2
1309.8618	1	10	n/a	n/a	1	51	3
1311.0618	1	10	n/a	n/a	1	51	4
1312.2618	1	10	n/a	n/a	1	51	5
1313.3784	1	10	n/a	n/a	1	51	6
1314.4116	1	10	n/a	n/a	1	51	7
1315.4448	1	21	n/a	n/a	1	51	0
1316.5282	1	10	n/a	n/a	1	51	1
1317.8114	1	10	n/a	n/a	1	51	2
1319.1112	1	10	n/a	n/a	1	51	3
1320.2946	1	10	n/a	n/a	1	51	4
1321.3778	1	10	n/a	n/a	1	51	5
1322.461	1	21	n/a	n/a	1	51	0
1323.5528	1	81	n/a	n/a	1	0	0
1323.7528	1	81	n/a	n/a	1	0	0
1323.9528	1	81	n/a	n/a	1	0	0
1324.1528	1	81	n/a	n/a	1	0	0
1324.3528	1	81	n/a	n/a	1	0	0
1324.5528	1	81	n/a	n/a	1	0	0
1324.7528	1	81	n/a	n/a	1	0	0
1324.9528	1	81	n/a	n/a	1	0	0
1325.1528	1	81	n/a	n/a	1	0	0
1325.3528	1	81	n/a	n/a	1	0	0
1326.7608	1	10	n/a	n/a	1	51	1
1328.0774	1	21	n/a	n/a	1	51	0
1329.2106	1	10	n/a	n/a	1	51	1
1330.344	1	21	n/a	n/a	1	51	0
1331.5438	1	10	n/a	n/a	1	51	1
1332.6604	1	10	n/a	n/a	1	51	2
1333.727	1	10	n/a	n/a	1	51	3
1334.7936	1	21	n/a	n/a	1	51	0
1335.8602	1	10	n/a	n/a	1	51	1
1336.9768	1	10	n/a	n/a	1	51	2
1338.1434	1	10	n/a	n/a	1	51	3
1339.26	1	10	n/a	n/a	1	51	4
1340.4434	1	10	n/a	n/a	1	51	5
1341.6266	1	21	n/a	n/a	1	51	0
1342.7432	1	10	n/a	n/a	1	51	1
1343.8598	1	21	n/a	n/a	1	51	0
1345.0264	1	10	n/a	n/a	1	51	1
1346.1096	1	10	n/a	n/a	1	51	2
1347.1762	1	10	n/a	n/a	1	51	3
1348.3096	1	10	n/a	n/a	1	51	4
1349.345	1	81	n/a	n/a	1	0	0
1349.545	1	81	n/a	n/a	1	0	0
1349.745	1	81	n/a	n/a	1	0	0
1349.945	1	81	n/a	n/a	1	0	0
1350.145	1	81	n/a	n/a	1	0	0
1350.345	1	81	n/a	n/a	1	0	0
1350.545	1	81	n/a	n/a	1	0	0
1350.745	1	81	n/a	n/a	1	0	0
1350.945	1	81	n/a	n/a	1	0	0
1351.145	1	81	n/a	n/a	1	0	0
1352.4926	1	10	n/a	n/a	1	51	1
1353.7926	1	10	n/a	n/a	1	51	2
1355.0924	1	10	n/a	n/a	1	51	3
1356.3924	1	21	n/a	n/a	1	51	0
1357.6924	1	10	n/a	n/a	1	51	1
1358.8422	1	10	n/a	n/a	1	51	2
1360.0922	1	10	n/a	n/a	1	51	3
1361.342	1	21	n/a	n/a	1	51	0
1362.3754	1	10	n/a	n/a	1	51	1
1363.692	1	10	n/a	n/a	1	51	2
1364.9418	1	10	n/a	n/a	1	51	3
1366.1918	1	21	n/a	n/a	1	51	0
1367.2918	1	10	n/a	n/a	1	51	1
1368.3584	1	10	n/a	n/a	1	51	2
1369.525	1	10	n/a	n/a	1	51	3
1370.7748	1	10	n/a	n/a	1	51	4
1372.0582	1	10	n/a	n/a	1	51	5
1373.158	1	10	n/a	n/a	1	51	6
1374.308	1	10	n/a	n/a	1	51	7
1375.458	1	21	n/a	n/a	1	51	0
1396.1548	1	82	n/a	n/a	1	0	0
1396.5558	1	82	n/a	n/a	1	0	0
1396.6258	1	82	n/a	n/a	1	0	0
1396.9948	1	82	n/a	n/a	1	0	0
1397.1168	1	82	n/a	n/a	1	0	0
1397.1548	1	82	n/a	n/a	1	0	0
1397.4508	1	82	n/a	n/a	1	0	0
1397.8068	1	82	n/a	n/a	1	0	0
1398.0498	1	82	n/a	n/a	1	0	0
1398.0938	1	82	n/a	n/a	1	0	0
1399.1564	1	10	n/a	n/a	1	50	1
1400.273	1	10	n/a	n/a	1	50	2
1401.5396	1	10	n/a	n/a	1	50	3
1402.8562	1	10	n/a	n/a	1	50	4
1403.9062	1	10	n/a	n/a	1	50	5
1405.0562	1	10	n/a	n/a	1	50	6
1406.1394	1	10	n/a	n/a	1	50	7
1407.2226	1	21	n/a	n/a	1	50	0
1408.2726	1	10	n/a	n/a	1	50	1
1409.4726	1	10	n/a	n/a	1	50	2
1410.6558	1	10	n/a	n/a	1	50	3
1411.9224	1	10	n/a	n/a	1	50	4
1413.0224	1	10	n/a	n/a	1	50	5
1414.189	1	10	n/a	n/a	1	50	6
1415.2388	1	10	n/a	n/a	1	50	7
1416.2888	1	21	n/a	n/a	1	50	0
1417.5054	1	10	n/a	n/a	1	50	1
1418.722	1	21	n/a	n/a	1	50	0
1420.0052	1	10	n/a	n/a	1	50	1
1421.2552	1	10	n/a	n/a	1	50	2
1422.0586	1	82	n/a	n/a	1	0	0
1422.3356	1	82	n/a	n/a	1	0	0
1422.4846	1	82	n/a	n/a	1	0	0
1422.8726	1	82	n/a	n/a	1	0	0
1422.9526	1	82	n/a	n/a	1	0	0
1423.0586	1	82	n/a	n/a	1	0	0
1423.3326	1	82	n/a	n/a	1	0	0
1423.4936	1	82	n/a	n/a	1	0	0
1423.8176	1	82	n/a	n/a	1	0	0
1423.8566	1	82	n/a	n/a	1	0	0
1424.9882	1	10	n/a	n/a	1	50	1
1426.2882	1	10	n/a	n/a	1	50	2
1427.5048	1	10	n/a	n/a	1	50	3
1428.7214	1	10	n/a	n/a	1	50	4
1430.0212	1	10	n/a	n/a	1	50	5
1431.3212	1	21	n/a	n/a	1	50	0
1432.3712	1	10	n/a	n/a	1	50	1
1433.4378	1	10	n/a	n/a	1	50	2
1434.6544	1	10	n/a	n/a	1	50	3
1435.8376	1	10	n/a	n/a	1	50	4
1437.1042	1	10	n/a	n/a	1	50	5
1438.3708	1	21	n/a	n/a	1	50	0
1439.6708	1	10	n/a	n/a	1	50	1
1440.7374	1	10	n/a	n/a	1	50	2
1441.904	1	10	n/a	n/a	1	50	3
1443.0872	1	10	n/a	n/a	1	50	4
1444.337	1	10	n/a	n/a	1	50	5
1445.587	1	21	n/a	n/a	1	50	0
1446.887	1	10	n/a	n/a	1	50	1
1448.1368	1	10	n/a	n/a	1	50	2
1448.8916	1	82	n/a	n/a	1	0	0
1448.9616	1	82	n/a	n/a	1	0	0
1449.1366	1	82	n/a	n/a	1	0	0
1449.1636	1	82	n/a	n/a	1	0	0
1449.5856	1	82	n/a	n/a	1	0	0
1449.8916	1	82	n/a	n/a	1	0	0
1450.1246	1	82	n/a	n/a	1	0	0
1450.1636	1	82	n/a	n/a	1	0	0
1450.2246	1	82	n/a	n/a	1	0	0
1450.5296	1	82	n/a	n/a	1	0	0
1451.9532	1	10	n/a	n/a	1	50	1
1453.1198	1	10	n/a	n/a	1	50	2
1454.1532	1	10	n/a	n/a	1	50	3
1455.3864	1	10	n/a	n/a	1	50	4
1456.703	1	10	n/a	n/a	1	50	5
1458.0196	1	21	n/a	n/a	1	50	0
1459.1362	1	10	n/a	n/a	1	50	1
1460.2862	1	10	n/a	n/a	1	50	2
1461.4194	1	10	n/a	n/a	1	50	3
1462.4526	1	10	n/a	n/a	1	50	4
1463.736	1	10	n/a	n/a	1	50	5
1464.9692	1	10	n/a	n/a	1	50	6
1466.0192	1	10	n/a	n/a	1	50	7
1467.069	1	21	n/a	n/a	1	50	0
1468.2356	1	10	n/a	n/a	1	50	1
1469.269	1	10	n/a	n/a	1	50	2
1470.4022	1	10	n/a	n/a	1	50	3
1471.5354	1	21	n/a	n/a	1	50	0
1472.702	1	10	n/a	n/a	1	50	1
1473.9354	1	10	n/a	n/a	1	50	2
1474.833	1	82	n/a	n/a	1	0	0
1475.197	1	82	n/a	n/a	1	0	0
1475.307	1	82	n/a	n/a	1	0	0
1475.333	1	82	n/a	n/a	1	0	0
1475.658	1	82	n/a	n/a	1	0	0
1475.833	1	82	n/a	n/a	1	0	0
1476.005	1	82	n/a	n/a	1	0	0
1476.133	1	82	n/a	n/a	1	0	0
1476.435	1	82	n/a	n/a	1	0	0
1476.523	1	82	n/a	n/a	1	0	0
1477.9684	1	10	n/a	n/a	1	50	1
1479.235	1	10	n/a	n/a	1	50	2
1480.5016	1	10	n/a	n/a	1	50	3
1481.7682	1	21	n/a	n/a	1	50	0
1482.9182	1	10	n/a	n/a	1	50	1
1484.2514	1	10	n/a	n/a	1	50	2
1485.468	1	10	n/a	n/a	1	50	3
1486.6846	1	21	n/a	n/a	1	50	0
1488.0012	1	10	n/a	n/a	1	50	1
1489.3178	1	21	n/a	n/a	1	50	0
1490.6342	1	10	n/a	n/a	1	50	1
1491.9676	1	10	n/a	n/a	1	50	2
1493.2174	1	10	n/a	n/a	1	50	3
1494.4674	1	21	n/a	n/a	1	50	0
1495.634	1	10	n/a	n/a	1	50	1
1496.9006	1	10	n/a	n/a	1	50	2
1498.0172	1	10	n/a	n/a	1	50	3
1499.1338	1	21	n/a	n/a	1	50	0
1500.3338	1	10	n/a	n/a	1	50	1
1501.517	1	10	n/a	n/a	1	50	2
1502.2604	1	82	n/a	n/a	1	0	0
1502.3034	1	82	n/a	n/a	1	0	0
1502.6074	1	82	n/a	n/a	1	0	0
1503.0244	1	82	n/a	n/a	1	0	0
1503.1124	1	82	n/a	n/a	1	0	0
1503.2604	1	82	n/a	n/a	1	0	0
1503.5774	1	82	n/a	n/a	1	0	0
1503.7424	1	82	n/a	n/a	1	0	0
1503.8344	1	82	n/a	n/a	1	0	0
1503.8944	1	82	n/a	n/a	1	0	0
1505.1834	1	10	n/a	n/a	1	50	1
1506.5166	1	10	n/a	n/a	1	50	2
1507.6332	1	10	n/a	n/a	1	50	3
1508.7666	1	10	n/a	n/a	1	50	4
1509.9832	1	10	n/a	n/a	1	50	5
1511.0998	1	10	n/a	n/a	1	50	6
1512.3996	1	10	n/a	n/a	1	50	7
1513.6996	1	21	n/a	n/a	1	50	0
1514.7328	1	10	n/a	n/a	1	50	1
1515.7994	1	10	n/a	n/a	1	50	2
1517.116	1	10	n/a	n/a	1	50	3
1518.1826	1	10	n/a	n/a	1	50	4
1519.2826	1	10	n/a	n/a	1	50	5
1520.3826	1	21	n/a	n/a	1	50	0
1521.6324	1	10	n/a	n/a	1	50	1
1522.8824	1	21	n/a	n/a	1	50	0
1524.0156	1	10	n/a	n/a	1	50	1
1525.2488	1	10	n/a	n/a	1	50	2
1526.3488	1	10	n/a	n/a	1	50	3
1527.382	1	10	n/a	n/a	1	50	4
1537.2992	1	82	n/a	n/a	1	0	0
1537.4502	1	82	n/a	n/a	1	0	0
1537.5572	1	82	n/a	n/a	1	0	0
1537.9272	1	82	n/a	n/a	1	0	0
1538.0022	1	82	n/a	n/a	1	0	0
1538.2992	1	82	n/a	n/a	1	0	0
1538.3252	1	82	n/a	n/a	1	0	0
1538.4352	1	82	n/a	n/a	1	0	0
1538.8162	1	82	n/a	n/a	1	0	0
1539.1752	1	82	n/a	n/a	1	0	0
1540.3314	1	10	n/a	n/a	1	52	1
1541.498	1	10	n/a	n/a	1	52	2
1542.6812	1	10	n/a	n/a	1	52	3
1543.8644	1	10	n/a	n/a	1	52	4
1545.0144	1	10	n/a	n/a	1	52	5
1546.1642	1	21	n/a	n/a	1	52	0
1547.2476	1	10	n/a	n/a	1	52	1
1548.2974	1	10	n/a	n/a	1	52	2
1549.5974	1	10	n/a	n/a	1	52	3
1550.7806	1	10	n/a	n/a	1	52	4
1551.964	1	10	n/a	n/a	1	52	5
1553.1638	1	10	n/a	n/a	1	52	6
1554.3304	1	10	n/a	n/a	1	52	7
1555.4804	1	21	n/a	n/a	1	52	0
1556.547	1	10	n/a	n/a	1	52	1
1557.697	1	10	n/a	n/a	1	52	2
1558.9968	1	10	n/a	n/a	1	52	3
1560.1968	1	10	n/a	n/a	1	52	4
1561.5134	1	10	n/a	n/a	1	52	5
1562.8466	1	10	n/a	n/a	1	52	6
1563.6134	1	82	n/a	n/a	1	0	0
1563.6334	1	82	n/a	n/a	1	0	0
1564.0384	1	82	n/a	n/a	1	0	0
1564.2114	1	82	n/a	n/a	1	0	0
1564.4614	1	82	n/a	n/a	1	0	0
1564.6134	1	82	n/a	n/a	1	0	0
1564.7694	1	82	n/a	n/a	1	0	0
1564.8284	1	82	n/a	n/a	1	0	0
1564.8654	1	82	n/a	n/a	1	0	0
1564.9664	1	82	n/a	n/a	1	0	0
1566.763	1	10	n/a	n/a	1	52	1
1568.013	1	21	n/a	n/a	1	52	0
1569.2796	1	10	n/a	n/a	1	52	1
1570.5628	1	10	n/a	n/a	1	52	2
1571.7628	1	10	n/a	n/a	1	52	3
1572.846	1	10	n/a	n/a	1	52	4
1574.1626	1	10	n/a	n/a	1	52	5
1575.2458	1	10	n/a	n/a	1	52	6
1576.4792	1	10	n/a	n/a	1	52	7
1577.7124	1	21	n/a	n/a	1	52	0
1578.929	1	10	n/a	n/a	1	52	1
1580.229	1	10	n/a	n/a	1	52	2
1581.3622	1	10	n/a	n/a	1	52	3
1582.4954	1	21	n/a	n/a	1	52	0
1583.6954	1	10	n/a	n/a	1	52	1
1584.8952	1	21	n/a	n/a	1	52	0
1586.1618	1	10	n/a	n/a	1	52	1
1587.4118	1	10	n/a	n/a	1	52	2
1588.495	1	10	n/a	n/a	1	52	3
1589.5784	1	21	n/a	n/a	1	52	0
1590.36	1	82	n/a	n/a	1	0	0
1590.489	1	82	n/a	n/a	1	0	0
1590.588	1	82	n/a	n/a	1	0	0
1590.838	1	82	n/a	n/a	1	0	0
1591.265	1	82	n/a	n/a	1	0	0
1591.36	1	82	n/a	n/a	1	0	0
1591.452	1	82	n/a	n/a	1	0	0
1591.847	1	82	n/a	n/a	1	0	0
1592.011	1	82	n/a	n/a	1	0	0
1592.068	1	82	n/a	n/a	1	0	0
1593.5448	1	10	n/a	n/a	1	52	1
1594.8446	1	10	n/a	n/a	1	52	2
1595.9612	1	10	n/a	n/a	1	52	3
1597.0778	1	21	n/a	n/a	1	52	0
1598.3112	1	10	n/a	n/a	1	52	1
1599.4278	1	10	n/a	n/a	1	52	2
1600.7444	1	10	n/a	n/a	1	52	3
1602.0442	1	10	n/a	n/a	1	52	4
1603.1108	1	10	n/a	n/a	1	52	5
1604.3942	1	10	n/a	n/a	1	52	6
1605.6108	1	10	n/a	n/a	1	52	7
1606.8274	1	21	n/a	n/a	1	52	0
1608.0772	1	10	n/a	n/a	1	52	1
1609.3272	1	10	n/a	n/a	1	52	2
1610.527	1	10	n/a	n/a	1	52	3
1611.827	1	10	n/a	n/a	1	52	4
1612.877	1	10	n/a	n/a	1	52	5
1613.9602	1	10	n/a	n/a	1	52	6
1615.1268	1	10	n/a	n/a	1	52	7
1616.2934	1	21	n/a	n/a	1	52	0
1617.1512	1	82	n/a	n/a	1	0	0
1617.2102	1	82	n/a	n/a	1	0	0
1617.2302	1	82	n/a	n/a	1	0	0
1617.6062	1	82	n/a	n/a	1	0	0
1617.9422	1	82	n/a	n/a	1	0	0
1618.1512	1	82	n/a	n/a	1	0	0
1618.2202	1	82	n/a	n/a	1	0	0
1618.4972	1	82	n/a	n/a	1	0	0
1618.7522	1	82	n/a	n/a	1	0	0
1618.9312	1	82	n/a	n/a	1	0	0
1620.3098	1	10	n/a	n/a	1	52	1
1621.4764	1	10	n/a	n/a	1	52	2
1622.6264	1	10	n/a	n/a	1	52	3
1623.693	1	10	n/a	n/a	1	52	4
1624.8928	1	10	n/a	n/a	1	52	5
1626.0928	1	21	n/a	n/a	1	52	0
1627.226	1	10	n/a	n/a	1	52	1
1628.3926	1	10	n/a	n/a	1	52	2
1629.5426	1	10	n/a	n/a	1	52	3
1630.7092	1	10	n/a	n/a	1	52	4
1631.9424	1	10	n/a	n/a	1	52	5
1633.1258	1	10	n/a	n/a	1	52	6
1634.3424	1	10	n/a	n/a	1	52	7
1635.559	1	21	n/a	n/a	1	52	0
1636.8754	1	10	n/a	n/a	1	52	1
1638.0588	1	10	n/a	n/a	1	52	2
1639.3086	1	10	n/a	n/a	1	52	3
1640.3586	1	10	n/a	n/a	1	52	4
1641.4918	1	10	n/a	n/a	1	52	5
1642.6752	1	10	n/a	n/a	1	52	6
1643.725	1	82	n/a	n/a	1	0	0
1644.019	1	82	n/a	n/a	1	0	0
1644.042	1	82	n/a	n/a	1	0	0
1644.283	1	82	n/a	n/a	1	0	0
1644.444	1	82	n/a	n/a	1	0	0
1644.725	1	82	n/a	n/a	1	0	0
1644.997	1	82	n/a	n/a	1	0	0
1645.03	1	82	n/a	n/a	1	0	0
1645.183	1	82	n/a	n/a	1	0	0
1645.542	1	82	n/a	n/a	1	0	0
1646.9416	1	10	n/a	n/a	1	52	1
1648.1082	1	10	n/a	n/a	1	52	2
1649.3748	1	10	n/a	n/a	1	52	3
1650.6414	1	21	n/a	n/a	1	52	0
1651.7912	1	10	n/a	n/a	1	52	1
1652.8912	1	10	n/a	n/a	1	52	2
1654.0744	1	10	n/a	n/a	1	52	3
1655.2578	1	21	n/a	n/a	1	52	0
1656.3244	1	10	n/a	n/a	1	52	1
1657.5076	1	10	n/a	n/a	1	52	2
1658.6408	1	10	n/a	n/a	1	52	3
1659.8242	1	10	n/a	n/a	1	52	4
1660.9408	1	10	n/a	n/a	1	52	5
1662.024	1	10	n/a	n/a	1	52	6
1663.274	1	10	n/a	n/a	1	52	7
1664.5238	1	21	n/a	n/a	1	52	0
1665.8404	1	10	n/a	n/a	1	52	1
1667.1404	1	10	n/a	n/a	1	52	2
1668.3902	1	10	n/a	n/a	1	52	3
1669.5068	1	10	n/a	n/a	1	52	4
1770.5482	1	82	n/a	n/a	1	0	0
1770.8692	1	82	n/a	n/a	1	0	0
1770.9522	1	82	n/a	n/a	1	0	0
1771.0982	1	82	n/a	n/a	1	0	0
1771.4452	1	82	n/a	n/a	1	0	0
1771.5482	1	82	n/a	n/a	1	0	0
1771.6102	1	82	n/a	n/a	1	0	0
1771.9002	1	82	n/a	n/a	1	0	0
1771.9212	1	82	n/a	n/a	1	0	0
1772.2952	1	82	n/a	n/a	1	0	0
1773.634	1	10	n/a	n/a	1	52	1
1774.6838	1	10	n/a	n/a	1	52	2
1775.8838	1	10	n/a	n/a	1	52	3
1777.1504	1	10	n/a	n/a	1	52	4
1778.3504	1	10	n/a	n/a	1	52	5
1779.5502	1	21	n/a	n/a	1	52	0
1780.7668	1	10	n/a	n/a	1	52	1
1782.0834	1	10	n/a	n/a	1	52	2
1783.2166	1	10	n/a	n/a	1	52	3
1784.35	1	21	n/a	n/a	1	52	0
1785.3832	1	10	n/a	n/a	1	52	1
1786.4998	1	10	n/a	n/a	1	52	2
1787.6664	1	10	n/a	n/a	1	52	3
1788.7496	1	10	n/a	n/a	1	52	4
1789.8996	1	10	n/a	n/a	1	52	5
1791.0496	1	21	n/a	n/a	1	52	0
1792.1662	1	10	n/a	n/a	1	52	1
1793.3328	1	10	n/a	n/a	1	52	2
1794.4326	1	10	n/a	n/a	1	52	3
1795.5492	1	10	n/a	n/a	1	52	4
1796.599	1	82	n/a	n/a	1	0	0
1796.98	1	82	n/a	n/a	1	0	0
1797.007	1	82	n/a	n/a	1	0	0
1797.086	1	82	n/a	n/a	1	0	0
1797.352	1	82	n/a	n/a	1	0	0
1797.599	1	82	n/a	n/a	1	0	0
1798.035	1	82	n/a	n/a	1	0	0
1798.204	1	82	n/a	n/a	1	0	0
1798.305	1	82	n/a	n/a	1	0	0
1798.352	1	82	n/a	n/a	1	0	0
1799.6658	1	10	n/a	n/a	1	52	1
1800.8322	1	21	n/a	n/a	1	52	0
1802.1488	1	10	n/a	n/a	1	52	1
1803.1822	1	10	n/a	n/a	1	52	2
1804.232	1	10	n/a	n/a	1	52	3
1805.282	1	21	n/a	n/a	1	52	0
1806.5486	1	10	n/a	n/a	1	52	1
1807.6318	1	10	n/a	n/a	1	52	2
1808.6984	1	10	n/a	n/a	1	52	3
1809.815	1	10	n/a	n/a	1	52	4
1811.0816	1	10	n/a	n/a	1	52	5
1812.3482	1	21	n/a	n/a	1	52	0
1813.6648	1	10	n/a	n/a	1	52	1
1814.7148	1	10	n/a	n/a	1	52	2
1816.0314	1	10	n/a	n/a	1	52	3
1817.0814	1	10	n/a	n/a	1	52	4
1818.1312	1	10	n/a	n/a	1	52	5
1819.3312	1	10	n/a	n/a	1	52	6
1820.3812	1	10	n/a	n/a	1	52	7
1821.431	1	21	n/a	n/a	1	52	0
1822.1998	1	82	n/a	n/a	1	0	0
1822.4688	1	82	n/a	n/a	1	0	0
1822.9008	1	82	n/a	n/a	1	0	0
1822.9508	1	82	n/a	n/a	1	0	0
1823.0948	1	82	n/a	n/a	1	0	0
1823.1998	1	82	n/a	n/a	1	0	0
1823.3478	1	82	n/a	n/a	1	0	0
1823.4448	1	82	n/a	n/a	1	0	0
1823.4898	1	82	n/a	n/a	1	0	0
1823.8398	1	82	n/a	n/a	1	0	0
1825.2642	1	10	n/a	n/a	1	52	1
1826.3808	1	10	n/a	n/a	1	52	2
1827.414	1	10	n/a	n/a	1	52	3
1828.6806	1	10	n/a	n/a	1	52	4
1829.7306	1	10	n/a	n/a	1	52	5
1830.7804	1	21	n/a	n/a	1	52	0
1832.0304	1	10	n/a	n/a	1	52	1
1833.2804	1	21	n/a	n/a	1	52	0
1834.4136	1	10	n/a	n/a	1	52	1
1835.5468	1	21	n/a	n/a	1	52	0
1836.6302	1	10	n/a	n/a	1	52	1
1837.7134	1	21	n/a	n/a	1	52	0
1838.8466	1	10	n/a	n/a	1	52	1
1840.1132	1	10	n/a	n/a	1	52	2
1841.3132	1	10	n/a	n/a	1	52	3
1842.4964	1	10	n/a	n/a	1	52	4
1843.5464	1	10	n/a	n/a	1	52	5
1844.663	1	10	n/a	n/a	1	52	6
1845.7962	1	10	n/a	n/a	1	52	7
1846.9296	1	21	n/a	n/a	1	52	0
1847.9842	1	82	n/a	n/a	1	0	0
1848.0062	1	82	n/a	n/a	1	0	0
1848.2312	1	82	n/a	n/a	1	0	0
1848.4052	1	82	n/a	n/a	1	0	0
1848.7682	1	82	n/a	n/a	1	0	0
1848.9842	1	82	n/a	n/a	1	0	0
1849.1272	1	82	n/a	n/a	1	0	0
1849.1542	1	82	n/a	n/a	1	0	0
1849.3332	1	82	n/a	n/a	1	0	0
1849.5602	1	82	n/a	n/a	1	0	0
1851.1792	1	10	n/a	n/a	1	52	1
1852.4792	1	21	n/a	n/a	1	52	0
1853.6624	1	10	n/a	n/a	1	52	1
1854.8458	1	21	n/a	n/a	1	52	0
1855.979	1	10	n/a	n/a	1	52	1
1857.0122	1	10	n/a	n/a	1	52	2
1858.2288	1	10	n/a	n/a	1	52	3
1859.4454	1	21	n/a	n/a	1	52	0
1860.7286	1	10	n/a	n/a	1	52	1
1861.7786	1	10	n/a	n/a	1	52	2
1862.9452	1	10	n/a	n/a	1	52	3
1864.1118	1	21	n/a	n/a	1	52	0
1865.3618	1	10	n/a	n/a	1	52	1
1866.645	1	10	n/a	n/a	1	52	2
1867.795	1	10	n/a	n/a	1	52	3
1868.9448	1	21	n/a	n/a	1	52	0
1870.2614	1	10	n/a	n/a	1	52	1
1871.3448	1	10	n/a	n/a	1	52	2
1872.4614	1	10	n/a	n/a	1	52	3
1873.578	1	21	n/a	n/a	1	52	0
1874.5726	1	82	n/a	n/a	1	0	0
1874.9146	1	82	n/a	n/a	1	0	0
1875.0516	1	82	n/a	n/a	1	0	0
1875.1266	1	82	n/a	n/a	1	0	0
1875.5046	1	82	n/a	n/a	1	0	0
1875.5726	1	82	n/a	n/a	1	0	0
1875.8986	1	82	n/a	n/a	1	0	0
1876.1556	1	82	n/a	n/a	1	0	0
1876.3906	1	82	n/a	n/a	1	0	0
1876.5206	1	82	n/a	n/a	1	0	0
1877.661	1	10	n/a	n/a	1	52	1
1878.9276	1	10	n/a	n/a	1	52	2
1880.2108	1	10	n/a	n/a	1	52	3
1881.4942	1	21	n/a	n/a	1	52	0
1882.7274	1	10	n/a	n/a	1	52	1
1884.0274	1	10	n/a	n/a	1	52	2
1885.2438	1	10	n/a	n/a	1	52	3
1886.2938	1	10	n/a	n/a	1	52	4
1887.3438	1	10	n/a	n/a	1	52	5
1888.3936	1	21	n/a	n/a	1	52	0
1889.6436	1	10	n/a	n/a	1	52	1
1890.9268	1	10	n/a	n/a	1	52	2
1892.0434	1	10	n/a	n/a	1	52	3
1893.11	1	10	n/a	n/a	1	52	4
1894.21	1	10	n/a	n/a	1	52	5
1895.31	1	21	n/a	n/a	1	52	0
1896.5432	1	10	n/a	n/a	1	52	1
1897.5764	1	10	n/a	n/a	1	52	2
1898.6764	1	10	n/a	n/a	1	52	3
1899.943	1	10	n/a	n/a	1	52	4
1909.4276	1	82	n/a	n/a	1	0	0
1909.4546	1	82	n/a	n/a	1	0	0
1909.7696	1	82	n/a	n/a	1	0	0
1909.8876	1	82	n/a	n/a	1	0	0
1910.1276	1	82	n/a	n/a	1	0	0
1910.4284	1	82	n/a	n/a	1	0	0
1910.4954	1	82	n/a	n/a	1	0	0
1910.7174	1	82	n/a	n/a	1	0	0
1911.0434	1	82	n/a	n/a	1	0	0
1911.3964	1	82	n/a	n/a	1	0	0
1912.609	1	10	n/a	n/a	1	50	1
1913.6922	1	10	n/a	n/a	1	50	2
1914.9588	1	10	n/a	n/a	1	50	3
1916.2254	1	21	n/a	n/a	1	50	0
1917.2752	1	10	n/a	n/a	1	50	1
1918.3252	1	21	n/a	n/a	1	50	0
1919.6418	1	10	n/a	n/a	1	50	1
1920.875	1	10	n/a	n/a	1	50	2
1921.9916	1	10	n/a	n/a	1	50	3
1923.1082	1	21	n/a	n/a	1	50	0
1924.1748	1	10	n/a	n/a	1	50	1
1925.2414	1	21	n/a	n/a	1	50	0
1926.558	1	10	n/a	n/a	1	50	1
1927.758	1	10	n/a	n/a	1	50	2
1928.8246	1	10	n/a	n/a	1	50	3
1929.9578	1	10	n/a	n/a	1	50	4
1931.2244	1	10	n/a	n/a	1	50	5
1932.491	1	21	n/a	n/a	1	50	0
1933.6576	1	10	n/a	n/a	1	50	1
1934.8742	1	10	n/a	n/a	1	50	2
1935.7218	1	82	n/a	n/a	1	0	0
1936.0508	1	82	n/a	n/a	1	0	0
1936.1788	1	82	n/a	n/a	1	0	0
1936.2628	1	82	n/a	n/a	1	0	0
1936.4228	1	82	n/a	n/a	1	0	0
1936.7218	1	82	n/a	n/a	1	0	0
1937.0288	1	82	n/a	n/a	1	0	0
1937.2498	1	82	n/a	n/a	1	0	0
1937.6068	1	82	n/a	n/a	1	0	0
1937.6638	1	82	n/a	n/a	1	0	0
1938.724	1	10	n/a	n/a	1	50	1
1939.974	1	10	n/a	n/a	1	50	2
1941.1906	1	10	n/a	n/a	1	50	3
1942.4072	1	21	n/a	n/a	1	50	0
1943.5238	1	10	n/a	n/a	1	50	1
1944.6402	1	10	n/a	n/a	1	50	2
1945.8568	1	10	n/a	n/a	1	50	3
1947.1734	1	10	n/a	n/a	1	50	4
1948.49	1	10	n/a	n/a	1	50	5
1949.8066	1	21	n/a	n/a	1	50	0
1951.0066	1	10	n/a	n/a	1	50	1
1952.1398	1	10	n/a	n/a	1	50	2
1953.2732	1	10	n/a	n/a	1	50	3
1954.4064	1	21	n/a	n/a	1	50	0
1955.673	1	10	n/a	n/a	1	50	1
1956.8896	1	10	n/a	n/a	1	50	2
1958.0562	1	10	n/a	n/a	1	50	3
1959.306	1	10	n/a	n/a	1	50	4
1960.606	1	10	n/a	n/a	1	50	5
1961.6726	1	10	n/a	n/a	1	50	6
1962.3954	1	82	n/a	n/a	1	0	0
1962.6474	1	82	n/a	n/a	1	0	0
1962.7464	1	82	n/a	n/a	1	0	0
1962.9364	1	82	n/a	n/a	1	0	0
1963.0754	1	82	n/a	n/a	1	0	0
1963.3954	1	82	n/a	n/a	1	0	0
1963.7294	1	82	n/a	n/a	1	0	0
1963.8474	1	82	n/a	n/a	1	0	0
1963.9924	1	82	n/a	n/a	1	0	0
1964.2924	1	82	n/a	n/a	1	0	0
1965.5058	1	10	n/a	n/a	1	50	1
1966.789	1	10	n/a	n/a	1	50	2
1968.0722	1	10	n/a	n/a	1	50	3
1969.2888	1	10	n/a	n/a	1	50	4
1970.3554	1	10	n/a	n/a	1	50	5
1971.422	1	10	n/a	n/a	1	50	6
1972.722	1	10	n/a	n/a	1	50	7
1974.0218	1	21	n/a	n/a	1	50	0
1975.1884	1	10	n/a	n/a	1	50	1
1976.4884	1	10	n/a	n/a	1	50	2
1977.805	1	10	n/a	n/a	1	50	3
1979.0882	1	10	n/a	n/a	1	50	4
1980.3048	1	10	n/a	n/a	1	50	5
1981.5214	1	21	n/a	n/a	1	50	0
1982.8046	1	10	n/a	n/a	1	50	1
1983.838	1	10	n/a	n/a	1	50	2
1985.1546	1	10	n/a	n/a	1	50	3
1986.3712	1	10	n/a	n/a	1	50	4
1987.621	1	10	n/a	n/a	1	50	5
1988.871	1	21	n/a	n/a	1	50	0
1989.8664	1	82	n/a	n/a	1	0	0
1989.8904	1	82	n/a	n/a	1	0	0
1990.2974	1	82	n/a	n/a	1	0	0
1990.5054	1	82	n/a	n/a	1	0	0
1990.7784	1	82	n/a	n/a	1	0	0
1990.8664	1	82	n/a	n/a	1	0	0
1991.1754	1	82	n/a	n/a	1	0	0
1991.2914	1	82	n/a	n/a	1	0	0
1991.3314	1	82	n/a	n/a	1	0	0
1991.4854	1	82	n/a	n/a	1	0	0
1992.7874	1	10	n/a	n/a	1	50	1
1993.9374	1	10	n/a	n/a	1	50	2
1995.204	1	10	n/a	n/a	1	50	3
1996.4706	1	21	n/a	n/a	1	50	0
1997.5038	1	10	n/a	n/a	1	50	1
1998.537	1	21	n/a	n/a	1	50	0
1999.687	1	10	n/a	n/a	1	50	1
2000.7202	1	10	n/a	n/a	1	50	2
2001.9368	1	10	n/a	n/a	1	50	3
2003.2368	1	10	n/a	n/a	1	50	4
2004.3534	1	10	n/a	n/a	1	50	5
2005.47	1	21	n/a	n/a	1	50	0
2006.7198	1	10	n/a	n/a	1	50	1
2007.9698	1	21	n/a	n/a	1	50	0
2009.1198	1	10	n/a	n/a	1	50	1
2010.3696	1	10	n/a	n/a	1	50	2
2011.5696	1	10	n/a	n/a	1	50	3
2012.8028	1	10	n/a	n/a	1	50	4
2013.9694	1	10	n/a	n/a	1	50	5
2015.136	1	21	n/a	n/a	1	50	0
2016.1598	1	82	n/a	n/a	1	0	0
2016.3118	1	82	n/a	n/a	1	0	0
2016.5768	1	82	n/a	n/a	1	0	0
2016.9538	1	82	n/a	n/a	1	0	0
2017.0578	1	82	n/a	n/a	1	0	0
2017.1598	1	82	n/a	n/a	1	0	0
2017.3078	1	82	n/a	n/a	1	0	0
2017.4078	1	82	n/a	n/a	1	0	0
2017.4418	1	82	n/a	n/a	1	0	0
2017.8658	1	82	n/a	n/a	1	0	0
2019.3358	1	10	n/a	n/a	1	50	1
2020.5524	1	10	n/a	n/a	1	50	2
2021.8524	1	10	n/a	n/a	1	50	3
2023.1356	1	21	n/a	n/a	1	50	0
2024.4354	1	10	n/a	n/a	1	50	1
2025.7354	1	10	n/a	n/a	1	50	2
2026.8186	1	10	n/a	n/a	1	50	3
2028.0852	1	10	n/a	n/a	1	50	4
2029.3518	1	10	n/a	n/a	1	50	5
2030.6184	1	21	n/a	n/a	1	50	0
2031.6684	1	10	n/a	n/a	1	50	1
2032.7184	1	21	n/a	n/a	1	50	0
2033.935	1	10	n/a	n/a	1	50	1
2035.2182	1	10	n/a	n/a	1	50	2
2036.5348	1	10	n/a	n/a	1	50	3
2037.6014	1	10	n/a	n/a	1	50	4
2038.6346	1	10	n/a	n/a	1	50	5
2039.7346	1	10	n/a	n/a	1	50	6
2041.0512	1	10	n/a	n/a	1	50	7
2042.3678	1	21	n/a	n/a	1	50	0
2051.0842	1	81	n/a	n/a	1	0	0
2051.2842	1	81	n/a	n/a	1	0	0
2051.4842	1	81	n/a	n/a	1	0	0
2051.6842	1	81	n/a	n/a	1	0	0
2051.8842	1	81	n/a	n/a	1	0	0
2052.0842	1	81	n/a	n/a	1	0	0
2052.2842	1	81	n/a	n/a	1	0	0
2052.4842	1	81	n/a	n/a	1	0	0
2052.6842	1	81	n/a	n/a	1	0	0
2052.8842	1	81	n/a	n/a	1	0	0
2054.167	1	10	n/a	n/a	1	51	1
2055.2336	1	10	n/a	n/a	1	51	2
2056.317	1	10	n/a	n/a	1	51	3
2057.3668	1	10	n/a	n/a	1	51	4
2058.6502	1	10	n/a	n/a	1	51	5
2059.9334	1	21	n/a	n/a	1	51	0
2061	1	10	n/a	n/a	1	51	1
2062.0666	1	21	n/a	n/a	1	51	0
2063.0998	1	10	n/a	n/a	1	51	1
2064.333	1	10	n/a	n/a	1	51	2
2065.633	1	10	n/a	n/a	1	51	3
2066.933	1	21	n/a	n/a	1	51	0
2068.2328	1	10	n/a	n/a	1	51	1
2069.3828	1	10	n/a	n/a	1	51	2
2070.616	1	10	n/a	n/a	1	51	3
2071.8494	1	10	n/a	n/a	1	51	4
2072.8992	1	10	n/a	n/a	1	51	5
2073.9492	1	21	n/a	n/a	1	51	0
2075.0324	1	10	n/a	n/a	1	51	1
2076.3324	1	10	n/a	n/a	1	51	2
2077.3068	1	81	n/a	n/a	1	0	0
2077.5068	1	81	n/a	n/a	1	0	0
2077.7068	1	81	n/a	n/a	1	0	0
2077.9068	1	81	n/a	n/a	1	0	0
2078.1068	1	81	n/a	n/a	1	0	0
2078.3068	1	81	n/a	n/a	1	0	0
2078.5068	1	81	n/a	n/a	1	0	0
2078.7068	1	81	n/a	n/a	1	0	0
2078.9068	1	81	n/a	n/a	1	0	0
2079.1068	1	81	n/a	n/a	1	0	0
2080.3654	1	10	n/a	n/a	1	51	1
2081.532	1	21	n/a	n/a	1	51	0
2082.5986	1	10	n/a	n/a	1	51	1
2083.782	1	10	n/a	n/a	1	51	2
2084.8486	1	10	n/a	n/a	1	51	3
2085.8984	1	10	n/a	n/a	1	51	4
2087.0984	1	10	n/a	n/a	1	51	5
2088.2984	1	21	n/a	n/a	1	51	0
2089.3816	1	10	n/a	n/a	1	51	1
2090.5982	1	10	n/a	n/a	1	51	2
2091.6482	1	10	n/a	n/a	1	51	3
2092.9648	1	10	n/a	n/a	1	51	4
2094.148	1	10	n/a	n/a	1	51	5
2095.3146	1	10	n/a	n/a	1	51	6
2096.5644	1	10	n/a	n/a	1	51	7
2097.8144	1	21	n/a	n/a	1	51	0
2099.0644	1	10	n/a	n/a	1	51	1
2100.3142	1	21	n/a	n/a	1	51	0
2101.5976	1	10	n/a	n/a	1	51	1
2102.8808	1	21	n/a	n/a	1	51	0
2103.8364	1	81	n/a	n/a	1	0	0
2104.0364	1	81	n/a	n/a	1	0	0
2104.2364	1	81	n/a	n/a	1	0	0
2104.4364	1	81	n/a	n/a	1	0	0
2104.6364	1	81	n/a	n/a	1	0	0
2104.8364	1	81	n/a	n/a	1	0	0
2105.0364	1	81	n/a	n/a	1	0	0
2105.2364	1	81	n/a	n/a	1	0	0
2105.4364	1	81	n/a	n/a	1	0	0
2105.6364	1	81	n/a	n/a	1	0	0
2106.7638	1	10	n/a	n/a	1	51	1
2107.7972	1	21	n/a	n/a	1	51	0
2108.847	1	10	n/a	n/a	1	51	1
2109.897	1	21	n/a	n/a	1	51	0
2111.1302	1	10	n/a	n/a	1	51	1
2112.3636	1	21	n/a	n/a	1	51	0
2113.5634	1	10	n/a	n/a	1	51	1
2114.7634	1	21	n/a	n/a	1	51	0
2116.0634	1	10	n/a	n/a	1	51	1
2117.3632	1	21	n/a	n/a	1	51	0
2118.6632	1	10	n/a	n/a	1	51	1
2119.763	1	10	n/a	n/a	1	51	2
2120.863	1	10	n/a	n/a	1	51	3
2121.9296	1	10	n/a	n/a	1	51	4
2122.9796	1	10	n/a	n/a	1	51	5
2124.0296	1	21	n/a	n/a	1	51	0
2125.246	1	10	n/a	n/a	1	51	1
2126.4126	1	10	n/a	n/a	1	51	2
2127.7292	1	10	n/a	n/a	1	51	3
2128.8458	1	10	n/a	n/a	1	51	4
2129.7434	1	81	n/a	n/a	1	0	0
2129.9434	1	81	n/a	n/a	1	0	0
2130.1434	1	81	n/a	n/a	1	0	0
2130.3434	1	81	n/a	n/a	1	0	0
2130.5432	1	81	n/a	n/a	1	0	0
2130.7434	1	81	n/a	n/a	1	0	0
2130.9434	1	81	n/a	n/a	1	0	0
2131.1434	1	81	n/a	n/a	1	0	0
2131.3434	1	81	n/a	n/a	1	0	0
2131.5434	1	81	n/a	n/a	1	0	0
2132.9456	1	10	n/a	n/a	1	51	1
2134.0788	1	10	n/a	n/a	1	51	2
2135.1954	1	10	n/a	n/a	1	51	3
2136.2288	1	10	n/a	n/a	1	51	4
2137.2954	1	10	n/a	n/a	1	51	5
2138.362	1	21	n/a	n/a	1	51	0
2139.4786	1	10	n/a	n/a	1	51	1
2140.5952	1	21	n/a	n/a	1	51	0
2141.7118	1	10	n/a	n/a	1	51	1
2142.895	1	10	n/a	n/a	1	51	2
2144.145	1	10	n/a	n/a	1	51	3
2145.2616	1	10	n/a	n/a	1	51	4
2146.3448	1	10	n/a	n/a	1	51	5
2147.428	1	21	n/a	n/a	1	51	0
2148.6946	1	10	n/a	n/a	1	51	1
2149.8946	1	10	n/a	n/a	1	51	2
2151.0946	1	10	n/a	n/a	1	51	3
2152.2278	1	10	n/a	n/a	1	51	4
2153.361	1	10	n/a	n/a	1	51	5
2154.4944	1	21	n/a	n/a	1	51	0
2155.299	1	81	n/a	n/a	1	0	0
2155.499	1	81	n/a	n/a	1	0	0
2155.699	1	81	n/a	n/a	1	0	0
2155.899	1	81	n/a	n/a	1	0	0
2156.099	1	81	n/a	n/a	1	0	0
2156.299	1	81	n/a	n/a	1	0	0
2156.499	1	81	n/a	n/a	1	0	0
2156.699	1	81	n/a	n/a	1	0	0
2156.899	1	81	n/a	n/a	1	0	0
2157.099	1	81	n/a	n/a	1	0	0
2158.494	1	10	n/a	n/a	1	51	1
2159.794	1	10	n/a	n/a	1	51	2
2160.894	1	10	n/a	n/a	1	51	3
2161.9772	1	10	n/a	n/a	1	51	4
2163.0272	1	10	n/a	n/a	1	51	5
2164.0604	1	10	n/a	n/a	1	51	6
2165.0936	1	10	n/a	n/a	1	51	7
2166.127	1	21	n/a	n/a	1	51	0
2167.177	1	10	n/a	n/a	1	51	1
2168.4602	1	10	n/a	n/a	1	51	2
2169.51	1	10	n/a	n/a	1	51	3
2170.76	1	10	n/a	n/a	1	51	4
2172.0266	1	10	n/a	n/a	1	51	5
2173.3098	1	10	n/a	n/a	1	51	6
2174.5932	1	10	n/a	n/a	1	51	7
2175.8764	1	21	n/a	n/a	1	51	0
2177.143	1	10	n/a	n/a	1	51	1
2178.2428	1	10	n/a	n/a	1	51	2
2179.4762	1	10	n/a	n/a	1	51	3
2180.7094	1	21	n/a	n/a	1	51	0
