onset	duration	value	response	rt	good	TMS	seq
72.244	1	81	n/a	n/a	1	0	0
72.444	1	81	n/a	n/a	1	0	0
72.644	1	81	n/a	n/a	1	0	0
72.844	1	81	n/a	n/a	1	0	0
73.044	1	81	n/a	n/a	1	0	0
73.244	1	81	n/a	n/a	1	0	0
73.444	1	81	n/a	n/a	1	0	0
73.644	1	81	n/a	n/a	1	0	0
73.844	1	81	n/a	n/a	1	0	0
74.044	1	81	n/a	n/a	1	0	0
75.4072	1	10	n/a	n/a	1	51	1
76.5072	1	10	n/a	n/a	1	51	2
77.607	1	10	n/a	n/a	1	51	3
78.707	1	21	n/a	n/a	1	51	0
79.7902	1	10	n/a	n/a	1	51	1
80.8736	1	21	n/a	n/a	1	51	0
81.9402	1	10	n/a	n/a	1	51	1
83.2568	1	10	n/a	n/a	1	51	2
84.49	1	10	n/a	n/a	1	51	3
85.7232	1	21	n/a	n/a	1	51	0
86.8066	1	10	n/a	n/a	1	51	1
88.0232	1	10	n/a	n/a	1	51	2
89.3064	1	10	n/a	n/a	1	51	3
90.3396	1	10	n/a	n/a	1	51	4
91.6396	1	10	n/a	n/a	1	51	5
92.9394	1	21	n/a	n/a	1	51	0
94.156	1	10	n/a	n/a	1	51	1
95.3894	1	10	n/a	n/a	1	51	2
96.4226	1	10	n/a	n/a	1	51	3
97.6726	1	10	n/a	n/a	1	51	4
98.409	1	81	n/a	n/a	1	0	0
98.609	1	81	n/a	n/a	1	0	0
98.809	1	81	n/a	n/a	1	0	0
99.009	1	81	n/a	n/a	1	0	0
99.209	1	81	n/a	n/a	1	0	0
99.409	1	81	n/a	n/a	1	0	0
99.609	1	81	n/a	n/a	1	0	0
99.809	1	81	n/a	n/a	1	0	0
100.009	1	81	n/a	n/a	1	0	0
100.209	1	81	n/a	n/a	1	0	0
101.489	1	10	n/a	n/a	1	51	1
102.6222	1	10	n/a	n/a	1	51	2
103.9388	1	10	n/a	n/a	1	51	3
105.2554	1	10	n/a	n/a	1	51	4
106.3886	1	10	n/a	n/a	1	51	5
107.6386	1	10	n/a	n/a	1	51	6
108.9552	1	10	n/a	n/a	1	51	7
110.2718	1	21	n/a	n/a	1	51	0
111.5718	1	10	n/a	n/a	1	51	1
112.8716	1	21	n/a	n/a	1	51	0
114.005	1	10	n/a	n/a	1	51	1
115.1382	1	10	n/a	n/a	1	51	2
116.3214	1	10	n/a	n/a	1	51	3
117.5046	1	21	n/a	n/a	1	51	0
118.588	1	10	n/a	n/a	1	51	1
119.7212	1	10	n/a	n/a	1	51	2
120.9878	1	10	n/a	n/a	1	51	3
122.2544	1	21	n/a	n/a	1	51	0
123.5544	1	10	n/a	n/a	1	51	1
124.8542	1	21	n/a	n/a	1	51	0
125.816	1	81	n/a	n/a	1	0	0
126.016	1	81	n/a	n/a	1	0	0
126.216	1	81	n/a	n/a	1	0	0
126.416	1	81	n/a	n/a	1	0	0
126.616	1	81	n/a	n/a	1	0	0
126.816	1	81	n/a	n/a	1	0	0
127.016	1	81	n/a	n/a	1	0	0
127.216	1	81	n/a	n/a	1	0	0
127.416	1	81	n/a	n/a	1	0	0
127.616	1	81	n/a	n/a	1	0	0
128.7874	1	10	n/a	n/a	1	51	1
129.954	1	10	n/a	n/a	1	51	2
131.0372	1	10	n/a	n/a	1	51	3
132.1038	1	10	n/a	n/a	1	51	4
133.287	1	10	n/a	n/a	1	51	5
134.4036	1	10	n/a	n/a	1	51	6
135.6036	1	10	n/a	n/a	1	51	7
136.8036	1	21	n/a	n/a	1	51	0
138.1034	1	10	n/a	n/a	1	51	1
139.37	1	10	n/a	n/a	1	51	2
140.5534	1	10	n/a	n/a	1	51	3
141.82	1	10	n/a	n/a	1	51	4
143.0198	1	10	n/a	n/a	1	51	5
144.2198	1	21	n/a	n/a	1	51	0
145.453	1	10	n/a	n/a	1	51	1
146.6864	1	21	n/a	n/a	1	51	0
147.7696	1	10	n/a	n/a	1	51	1
148.8528	1	21	n/a	n/a	1	51	0
149.9362	1	10	n/a	n/a	1	51	1
151.0194	1	21	n/a	n/a	1	51	0
151.992	1	81	n/a	n/a	1	0	0
152.192	1	81	n/a	n/a	1	0	0
152.392	1	81	n/a	n/a	1	0	0
152.592	1	81	n/a	n/a	1	0	0
152.792	1	81	n/a	n/a	1	0	0
152.992	1	81	n/a	n/a	1	0	0
153.192	1	81	n/a	n/a	1	0	0
153.392	1	81	n/a	n/a	1	0	0
153.592	1	81	n/a	n/a	1	0	0
153.792	1	81	n/a	n/a	1	0	0
155.1358	1	10	n/a	n/a	1	51	1
156.3858	1	21	n/a	n/a	1	51	0
157.669	1	10	n/a	n/a	1	51	1
158.8356	1	10	n/a	n/a	1	51	2
159.9022	1	10	n/a	n/a	1	51	3
160.9522	1	10	n/a	n/a	1	51	4
162.0854	1	10	n/a	n/a	1	51	5
163.2186	1	21	n/a	n/a	1	51	0
164.3186	1	10	n/a	n/a	1	51	1
165.4186	1	21	n/a	n/a	1	51	0
166.5352	1	10	n/a	n/a	1	51	1
167.685	1	10	n/a	n/a	1	51	2
168.935	1	10	n/a	n/a	1	51	3
170.2516	1	10	n/a	n/a	1	51	4
171.4514	1	10	n/a	n/a	1	51	5
172.6514	1	21	n/a	n/a	1	51	0
173.8846	1	10	n/a	n/a	1	51	1
175.0846	1	10	n/a	n/a	1	51	2
176.2012	1	10	n/a	n/a	1	51	3
177.5178	1	10	n/a	n/a	1	51	4
178.4352	1	81	n/a	n/a	1	0	0
178.6352	1	81	n/a	n/a	1	0	0
178.8352	1	81	n/a	n/a	1	0	0
179.0352	1	81	n/a	n/a	1	0	0
179.2352	1	81	n/a	n/a	1	0	0
179.4352	1	81	n/a	n/a	1	0	0
179.6352	1	81	n/a	n/a	1	0	0
179.8352	1	81	n/a	n/a	1	0	0
180.0352	1	81	n/a	n/a	1	0	0
180.2352	1	81	n/a	n/a	1	0	0
181.3676	1	10	n/a	n/a	1	51	1
182.4008	1	21	n/a	n/a	1	51	0
183.4508	1	10	n/a	n/a	1	51	1
184.734	1	10	n/a	n/a	1	51	2
185.984	1	10	n/a	n/a	1	51	3
187.234	1	21	n/a	n/a	1	51	0
188.4338	1	10	n/a	n/a	1	51	1
189.6504	1	10	n/a	n/a	1	51	2
190.9836	1	10	n/a	n/a	1	51	3
192.317	1	21	n/a	n/a	1	51	0
193.3502	1	10	n/a	n/a	1	51	1
194.3834	1	21	n/a	n/a	1	51	0
195.55	1	10	n/a	n/a	1	51	1
196.7166	1	21	n/a	n/a	1	51	0
197.8332	1	10	n/a	n/a	1	51	1
198.9166	1	10	n/a	n/a	1	51	2
200.1998	1	10	n/a	n/a	1	51	3
201.5164	1	10	n/a	n/a	1	51	4
202.6164	1	10	n/a	n/a	1	51	5
203.7162	1	21	n/a	n/a	1	51	0
212.5838	1	82	n/a	n/a	1	0	0
212.6778	1	82	n/a	n/a	1	0	0
212.8488	1	82	n/a	n/a	1	0	0
213.0428	1	82	n/a	n/a	1	0	0
213.3228	1	82	n/a	n/a	1	0	0
213.5838	1	82	n/a	n/a	1	0	0
213.6188	1	82	n/a	n/a	1	0	0
213.7198	1	82	n/a	n/a	1	0	0
213.9468	1	82	n/a	n/a	1	0	0
214.2278	1	82	n/a	n/a	1	0	0
215.7322	1	10	n/a	n/a	1	50	1
216.9322	1	10	n/a	n/a	1	50	2
217.9654	1	10	n/a	n/a	1	50	3
219.2654	1	10	n/a	n/a	1	50	4
220.332	1	10	n/a	n/a	1	50	5
221.3986	1	21	n/a	n/a	1	50	0
222.6984	1	10	n/a	n/a	1	50	1
223.9484	1	10	n/a	n/a	1	50	2
225.1484	1	10	n/a	n/a	1	50	3
226.265	1	10	n/a	n/a	1	50	4
227.5148	1	10	n/a	n/a	1	50	5
228.7648	1	21	n/a	n/a	1	50	0
229.798	1	10	n/a	n/a	1	50	1
230.8314	1	21	n/a	n/a	1	50	0
231.8812	1	10	n/a	n/a	1	50	1
232.9478	1	21	n/a	n/a	1	50	0
234.0144	1	10	n/a	n/a	1	50	1
235.0978	1	21	n/a	n/a	1	50	0
236.2144	1	10	n/a	n/a	1	50	1
237.4642	1	10	n/a	n/a	1	50	2
238.2598	1	82	n/a	n/a	1	0	0
238.3468	1	82	n/a	n/a	1	0	0
238.4738	1	82	n/a	n/a	1	0	0
238.6448	1	82	n/a	n/a	1	0	0
238.9618	1	82	n/a	n/a	1	0	0
239.2598	1	82	n/a	n/a	1	0	0
239.4078	1	82	n/a	n/a	1	0	0
239.7198	1	82	n/a	n/a	1	0	0
240.0908	1	82	n/a	n/a	1	0	0
240.1488	1	82	n/a	n/a	1	0	0
241.264	1	10	n/a	n/a	1	50	1
242.464	1	10	n/a	n/a	1	50	2
243.4972	1	10	n/a	n/a	1	50	3
244.5306	1	21	n/a	n/a	1	50	0
245.797	1	10	n/a	n/a	1	50	1
247.047	1	10	n/a	n/a	1	50	2
248.347	1	10	n/a	n/a	1	50	3
249.6302	1	10	n/a	n/a	1	50	4
250.9134	1	10	n/a	n/a	1	50	5
252.03	1	10	n/a	n/a	1	50	6
253.0966	1	10	n/a	n/a	1	50	7
254.1632	1	21	n/a	n/a	1	50	0
255.4132	1	10	n/a	n/a	1	50	1
256.5632	1	10	n/a	n/a	1	50	2
257.613	1	10	n/a	n/a	1	50	3
258.663	1	21	n/a	n/a	1	50	0
259.9296	1	10	n/a	n/a	1	50	1
261.2462	1	10	n/a	n/a	1	50	2
262.3128	1	10	n/a	n/a	1	50	3
263.3628	1	10	n/a	n/a	1	50	4
264.3012	1	82	n/a	n/a	1	0	0
264.4792	1	82	n/a	n/a	1	0	0
264.8292	1	82	n/a	n/a	1	0	0
264.8842	1	82	n/a	n/a	1	0	0
265.1462	1	82	n/a	n/a	1	0	0
265.3012	1	82	n/a	n/a	1	0	0
265.4022	1	82	n/a	n/a	1	0	0
265.6742	1	82	n/a	n/a	1	0	0
265.9222	1	82	n/a	n/a	1	0	0
266.0922	1	82	n/a	n/a	1	0	0
267.4124	1	10	n/a	n/a	1	50	1
268.4458	1	10	n/a	n/a	1	50	2
269.7456	1	10	n/a	n/a	1	50	3
271.0456	1	21	n/a	n/a	1	50	0
272.1956	1	10	n/a	n/a	1	50	1
273.3454	1	10	n/a	n/a	1	50	2
274.512	1	10	n/a	n/a	1	50	3
275.6954	1	10	n/a	n/a	1	50	4
276.7786	1	10	n/a	n/a	1	50	5
277.8618	1	21	n/a	n/a	1	50	0
278.9784	1	10	n/a	n/a	1	50	1
280.1618	1	10	n/a	n/a	1	50	2
281.445	1	10	n/a	n/a	1	50	3
282.5116	1	10	n/a	n/a	1	50	4
283.5948	1	10	n/a	n/a	1	50	5
284.6448	1	10	n/a	n/a	1	50	6
285.9614	1	10	n/a	n/a	1	50	7
287.278	1	21	n/a	n/a	1	50	0
288.3612	1	10	n/a	n/a	1	50	1
289.4446	1	10	n/a	n/a	1	50	2
290.368	1	82	n/a	n/a	1	0	0
290.707	1	82	n/a	n/a	1	0	0
290.807	1	82	n/a	n/a	1	0	0
290.856	1	82	n/a	n/a	1	0	0
290.987	1	82	n/a	n/a	1	0	0
291.368	1	82	n/a	n/a	1	0	0
291.645	1	82	n/a	n/a	1	0	0
291.776	1	82	n/a	n/a	1	0	0
292.082	1	82	n/a	n/a	1	0	0
292.312	1	82	n/a	n/a	1	0	0
293.4942	1	10	n/a	n/a	1	50	1
294.5442	1	10	n/a	n/a	1	50	2
295.6442	1	10	n/a	n/a	1	50	3
296.744	1	21	n/a	n/a	1	50	0
298.044	1	10	n/a	n/a	1	50	1
299.344	1	10	n/a	n/a	1	50	2
300.4438	1	10	n/a	n/a	1	50	3
301.6938	1	10	n/a	n/a	1	50	4
302.8438	1	10	n/a	n/a	1	50	5
304.1436	1	10	n/a	n/a	1	50	6
305.377	1	10	n/a	n/a	1	50	7
306.6102	1	21	n/a	n/a	1	50	0
307.9268	1	10	n/a	n/a	1	50	1
309.1434	1	10	n/a	n/a	1	50	2
310.46	1	10	n/a	n/a	1	50	3
311.6766	1	10	n/a	n/a	1	50	4
312.8764	1	10	n/a	n/a	1	50	5
314.0764	1	21	n/a	n/a	1	50	0
315.393	1	10	n/a	n/a	1	50	1
316.4262	1	10	n/a	n/a	1	50	2
317.3668	1	82	n/a	n/a	1	0	0
317.6878	1	82	n/a	n/a	1	0	0
317.8158	1	82	n/a	n/a	1	0	0
317.8468	1	82	n/a	n/a	1	0	0
318.1018	1	82	n/a	n/a	1	0	0
318.3668	1	82	n/a	n/a	1	0	0
318.4138	1	82	n/a	n/a	1	0	0
318.5438	1	82	n/a	n/a	1	0	0
318.8488	1	82	n/a	n/a	1	0	0
319.0128	1	82	n/a	n/a	1	0	0
320.5594	1	10	n/a	n/a	1	50	1
321.8592	1	21	n/a	n/a	1	50	0
322.9592	1	10	n/a	n/a	1	50	1
324.0924	1	10	n/a	n/a	1	50	2
325.159	1	10	n/a	n/a	1	50	3
326.459	1	10	n/a	n/a	1	50	4
327.6922	1	10	n/a	n/a	1	50	5
328.8256	1	10	n/a	n/a	1	50	6
330.0088	1	10	n/a	n/a	1	50	7
331.192	1	21	n/a	n/a	1	50	0
332.492	1	10	n/a	n/a	1	50	1
333.6918	1	10	n/a	n/a	1	50	2
334.7752	1	10	n/a	n/a	1	50	3
335.9584	1	10	n/a	n/a	1	50	4
337.225	1	10	n/a	n/a	1	50	5
338.2582	1	10	n/a	n/a	1	50	6
339.4082	1	10	n/a	n/a	1	50	7
340.5582	1	21	n/a	n/a	1	50	0
341.708	1	10	n/a	n/a	1	50	1
342.858	1	21	n/a	n/a	1	50	0
365.4168	1	82	n/a	n/a	1	0	0
365.5008	1	82	n/a	n/a	1	0	0
365.6228	1	82	n/a	n/a	1	0	0
365.8878	1	82	n/a	n/a	1	0	0
366.2178	1	82	n/a	n/a	1	0	0
366.4168	1	82	n/a	n/a	1	0	0
366.5588	1	82	n/a	n/a	1	0	0
366.6508	1	82	n/a	n/a	1	0	0
367.0828	1	82	n/a	n/a	1	0	0
367.3758	1	82	n/a	n/a	1	0	0
368.4232	1	10	n/a	n/a	1	52	1
369.5398	1	10	n/a	n/a	1	52	2
370.573	1	10	n/a	n/a	1	52	3
371.823	1	10	n/a	n/a	1	52	4
372.9896	1	10	n/a	n/a	1	52	5
374.1562	1	21	n/a	n/a	1	52	0
375.3894	1	10	n/a	n/a	1	52	1
376.4726	1	10	n/a	n/a	1	52	2
377.6226	1	10	n/a	n/a	1	52	3
378.7892	1	10	n/a	n/a	1	52	4
380.0724	1	10	n/a	n/a	1	52	5
381.239	1	10	n/a	n/a	1	52	6
382.4056	1	10	n/a	n/a	1	52	7
383.5722	1	21	n/a	n/a	1	52	0
384.6722	1	10	n/a	n/a	1	52	1
385.8222	1	10	n/a	n/a	1	52	2
386.922	1	10	n/a	n/a	1	52	3
388.1054	1	10	n/a	n/a	1	52	4
389.272	1	10	n/a	n/a	1	52	5
390.5218	1	10	n/a	n/a	1	52	6
391.4264	1	82	n/a	n/a	1	0	0
391.7034	1	82	n/a	n/a	1	0	0
391.8694	1	82	n/a	n/a	1	0	0
392.0834	1	82	n/a	n/a	1	0	0
392.1124	1	82	n/a	n/a	1	0	0
392.4264	1	82	n/a	n/a	1	0	0
392.4644	1	82	n/a	n/a	1	0	0
392.8004	1	82	n/a	n/a	1	0	0
392.9474	1	82	n/a	n/a	1	0	0
393.0684	1	82	n/a	n/a	1	0	0
394.5384	1	10	n/a	n/a	1	52	1
395.655	1	10	n/a	n/a	1	52	2
396.7716	1	10	n/a	n/a	1	52	3
397.9548	1	10	n/a	n/a	1	52	4
399.1714	1	10	n/a	n/a	1	52	5
400.388	1	21	n/a	n/a	1	52	0
401.4878	1	10	n/a	n/a	1	52	1
402.8044	1	10	n/a	n/a	1	52	2
404.0544	1	10	n/a	n/a	1	52	3
405.3044	1	21	n/a	n/a	1	52	0
406.421	1	10	n/a	n/a	1	52	1
407.6708	1	10	n/a	n/a	1	52	2
408.8542	1	10	n/a	n/a	1	52	3
410.0708	1	10	n/a	n/a	1	52	4
411.304	1	10	n/a	n/a	1	52	5
412.5372	1	21	n/a	n/a	1	52	0
413.7704	1	10	n/a	n/a	1	52	1
414.9704	1	10	n/a	n/a	1	52	2
416.2704	1	10	n/a	n/a	1	52	3
417.487	1	10	n/a	n/a	1	52	4
418.5604	1	82	n/a	n/a	1	0	0
418.6484	1	82	n/a	n/a	1	0	0
418.9674	1	82	n/a	n/a	1	0	0
419.1004	1	82	n/a	n/a	1	0	0
419.2734	1	82	n/a	n/a	1	0	0
419.5604	1	82	n/a	n/a	1	0	0
419.6114	1	82	n/a	n/a	1	0	0
420.0044	1	82	n/a	n/a	1	0	0
420.0824	1	82	n/a	n/a	1	0	0
420.3574	1	82	n/a	n/a	1	0	0
421.67	1	10	n/a	n/a	1	52	1
422.8866	1	10	n/a	n/a	1	52	2
424.1198	1	10	n/a	n/a	1	52	3
425.3698	1	10	n/a	n/a	1	52	4
426.603	1	10	n/a	n/a	1	52	5
427.8364	1	21	n/a	n/a	1	52	0
429.153	1	10	n/a	n/a	1	52	1
430.3028	1	10	n/a	n/a	1	52	2
431.3362	1	10	n/a	n/a	1	52	3
432.3694	1	21	n/a	n/a	1	52	0
433.5526	1	10	n/a	n/a	1	52	1
434.6692	1	10	n/a	n/a	1	52	2
435.7192	1	10	n/a	n/a	1	52	3
436.9192	1	10	n/a	n/a	1	52	4
438.1524	1	10	n/a	n/a	1	52	5
439.2524	1	10	n/a	n/a	1	52	6
440.2856	1	10	n/a	n/a	1	52	7
441.3188	1	21	n/a	n/a	1	52	0
442.4188	1	10	n/a	n/a	1	52	1
443.4854	1	10	n/a	n/a	1	52	2
444.6028	1	82	n/a	n/a	1	0	0
444.7128	1	82	n/a	n/a	1	0	0
445.1448	1	82	n/a	n/a	1	0	0
445.4698	1	82	n/a	n/a	1	0	0
445.5148	1	82	n/a	n/a	1	0	0
445.6028	1	82	n/a	n/a	1	0	0
445.6518	1	82	n/a	n/a	1	0	0
445.6738	1	82	n/a	n/a	1	0	0
445.9068	1	82	n/a	n/a	1	0	0
446.3208	1	82	n/a	n/a	1	0	0
447.5518	1	10	n/a	n/a	1	52	1
448.8518	1	10	n/a	n/a	1	52	2
450.1516	1	10	n/a	n/a	1	52	3
451.4516	1	21	n/a	n/a	1	52	0
452.5682	1	10	n/a	n/a	1	52	1
453.6514	1	10	n/a	n/a	1	52	2
454.718	1	10	n/a	n/a	1	52	3
455.868	1	10	n/a	n/a	1	52	4
457.0346	1	10	n/a	n/a	1	52	5
458.2012	1	21	n/a	n/a	1	52	0
459.3012	1	10	n/a	n/a	1	52	1
460.3844	1	10	n/a	n/a	1	52	2
461.451	1	10	n/a	n/a	1	52	3
462.5176	1	21	n/a	n/a	1	52	0
463.7342	1	10	n/a	n/a	1	52	1
464.9008	1	10	n/a	n/a	1	52	2
466.1674	1	10	n/a	n/a	1	52	3
467.434	1	21	n/a	n/a	1	52	0
468.5006	1	10	n/a	n/a	1	52	1
469.5672	1	21	n/a	n/a	1	52	0
470.465	1	82	n/a	n/a	1	0	0
470.733	1	82	n/a	n/a	1	0	0
471.139	1	82	n/a	n/a	1	0	0
471.182	1	82	n/a	n/a	1	0	0
471.2028	1	82	n/a	n/a	1	0	0
471.465	1	82	n/a	n/a	1	0	0
471.721	1	82	n/a	n/a	1	0	0
472.053	1	82	n/a	n/a	1	0	0
472.075	1	82	n/a	n/a	1	0	0
472.171	1	82	n/a	n/a	1	0	0
473.6002	1	10	n/a	n/a	1	52	1
474.6836	1	10	n/a	n/a	1	52	2
475.7336	1	10	n/a	n/a	1	52	3
476.8334	1	10	n/a	n/a	1	52	4
478.1166	1	10	n/a	n/a	1	52	5
479.3832	1	10	n/a	n/a	1	52	6
480.4998	1	10	n/a	n/a	1	52	7
481.6164	1	21	n/a	n/a	1	52	0
482.6664	1	10	n/a	n/a	1	52	1
483.7164	1	21	n/a	n/a	1	52	0
484.833	1	10	n/a	n/a	1	52	1
485.9496	1	21	n/a	n/a	1	52	0
487.1994	1	10	n/a	n/a	1	52	1
488.4994	1	10	n/a	n/a	1	52	2
489.566	1	10	n/a	n/a	1	52	3
490.616	1	10	n/a	n/a	1	52	4
491.6992	1	10	n/a	n/a	1	52	5
492.7326	1	10	n/a	n/a	1	52	6
493.8658	1	10	n/a	n/a	1	52	7
494.999	1	21	n/a	n/a	1	52	0
551.499	1	81	n/a	n/a	1	0	0
551.699	1	81	n/a	n/a	1	0	0
551.899	1	81	n/a	n/a	1	0	0
552.099	1	81	n/a	n/a	1	0	0
552.299	1	81	n/a	n/a	1	0	0
552.499	1	81	n/a	n/a	1	0	0
552.699	1	81	n/a	n/a	1	0	0
552.899	1	81	n/a	n/a	1	0	0
553.099	1	81	n/a	n/a	1	0	0
553.299	1	81	n/a	n/a	1	0	0
554.5956	1	10	n/a	n/a	1	51	1
555.7622	1	10	n/a	n/a	1	51	2
556.8454	1	10	n/a	n/a	1	51	3
558.1286	1	10	n/a	n/a	1	51	4
559.1786	1	10	n/a	n/a	1	51	5
560.4118	1	10	n/a	n/a	1	51	6
561.4618	1	10	n/a	n/a	1	51	7
562.5118	1	21	n/a	n/a	1	51	0
563.6784	1	10	n/a	n/a	1	51	1
564.9282	1	10	n/a	n/a	1	51	2
566.0948	1	10	n/a	n/a	1	51	3
567.1948	1	10	n/a	n/a	1	51	4
568.3114	1	10	n/a	n/a	1	51	5
569.428	1	21	n/a	n/a	1	51	0
570.578	1	10	n/a	n/a	1	51	1
571.8112	1	10	n/a	n/a	1	51	2
573.1278	1	10	n/a	n/a	1	51	3
574.3444	1	10	n/a	n/a	1	51	4
575.6442	1	10	n/a	n/a	1	51	5
576.6776	1	10	n/a	n/a	1	51	6
577.775	1	81	n/a	n/a	1	0	0
577.975	1	81	n/a	n/a	1	0	0
578.175	1	81	n/a	n/a	1	0	0
578.375	1	81	n/a	n/a	1	0	0
578.575	1	81	n/a	n/a	1	0	0
578.775	1	81	n/a	n/a	1	0	0
578.975	1	81	n/a	n/a	1	0	0
579.175	1	81	n/a	n/a	1	0	0
579.375	1	81	n/a	n/a	1	0	0
579.575	1	81	n/a	n/a	1	0	0
580.7106	1	10	n/a	n/a	1	51	1
582.0438	1	10	n/a	n/a	1	51	2
583.1104	1	10	n/a	n/a	1	51	3
584.4104	1	10	n/a	n/a	1	51	4
585.4604	1	10	n/a	n/a	1	51	5
586.5104	1	21	n/a	n/a	1	51	0
587.6936	1	10	n/a	n/a	1	51	1
588.8768	1	21	n/a	n/a	1	51	0
589.9934	1	10	n/a	n/a	1	51	1
591.1434	1	10	n/a	n/a	1	51	2
592.21	1	10	n/a	n/a	1	51	3
593.2766	1	21	n/a	n/a	1	51	0
594.5264	1	10	n/a	n/a	1	51	1
595.7764	1	21	n/a	n/a	1	51	0
596.9596	1	10	n/a	n/a	1	51	1
598.2096	1	10	n/a	n/a	1	51	2
599.3262	1	10	n/a	n/a	1	51	3
600.4428	1	21	n/a	n/a	1	51	0
601.626	1	10	n/a	n/a	1	51	1
602.876	1	10	n/a	n/a	1	51	2
603.8234	1	81	n/a	n/a	1	0	0
604.0234	1	81	n/a	n/a	1	0	0
604.2234	1	81	n/a	n/a	1	0	0
604.4234	1	81	n/a	n/a	1	0	0
604.6234	1	81	n/a	n/a	1	0	0
604.8234	1	81	n/a	n/a	1	0	0
605.0234	1	81	n/a	n/a	1	0	0
605.2234	1	81	n/a	n/a	1	0	0
605.4234	1	81	n/a	n/a	1	0	0
605.6234	1	81	n/a	n/a	1	0	0
606.9258	1	10	n/a	n/a	1	51	1
608.059	1	10	n/a	n/a	1	51	2
609.3422	1	10	n/a	n/a	1	51	3
610.6256	1	21	n/a	n/a	1	51	0
611.6754	1	10	n/a	n/a	1	51	1
612.7088	1	10	n/a	n/a	1	51	2
613.8754	1	10	n/a	n/a	1	51	3
615.042	1	21	n/a	n/a	1	51	0
616.2252	1	10	n/a	n/a	1	51	1
617.4084	1	21	n/a	n/a	1	51	0
618.6418	1	10	n/a	n/a	1	51	1
619.7584	1	10	n/a	n/a	1	51	2
620.975	1	10	n/a	n/a	1	51	3
622.0582	1	10	n/a	n/a	1	51	4
623.3082	1	10	n/a	n/a	1	51	5
624.558	1	21	n/a	n/a	1	51	0
625.708	1	10	n/a	n/a	1	51	1
627.008	1	10	n/a	n/a	1	51	2
628.1412	1	10	n/a	n/a	1	51	3
629.2744	1	21	n/a	n/a	1	51	0
630.1962	1	81	n/a	n/a	1	0	0
630.3962	1	81	n/a	n/a	1	0	0
630.5962	1	81	n/a	n/a	1	0	0
630.7962	1	81	n/a	n/a	1	0	0
630.9962	1	81	n/a	n/a	1	0	0
631.1962	1	81	n/a	n/a	1	0	0
631.3962	1	81	n/a	n/a	1	0	0
631.5962	1	81	n/a	n/a	1	0	0
631.7962	1	81	n/a	n/a	1	0	0
631.9962	1	81	n/a	n/a	1	0	0
633.3076	1	10	n/a	n/a	1	51	1
634.5242	1	21	n/a	n/a	1	51	0
635.5574	1	10	n/a	n/a	1	51	1
636.774	1	10	n/a	n/a	1	51	2
637.924	1	10	n/a	n/a	1	51	3
638.9572	1	10	n/a	n/a	1	51	4
640.0572	1	10	n/a	n/a	1	51	5
641.157	1	21	n/a	n/a	1	51	0
642.2904	1	10	n/a	n/a	1	51	1
643.4902	1	10	n/a	n/a	1	51	2
644.6236	1	10	n/a	n/a	1	51	3
645.7568	1	21	n/a	n/a	1	51	0
646.9568	1	10	n/a	n/a	1	51	1
648.0066	1	10	n/a	n/a	1	51	2
649.24	1	10	n/a	n/a	1	51	3
650.4398	1	10	n/a	n/a	1	51	4
651.5232	1	10	n/a	n/a	1	51	5
652.6064	1	21	n/a	n/a	1	51	0
653.923	1	10	n/a	n/a	1	51	1
655.123	1	10	n/a	n/a	1	51	2
656.2182	1	81	n/a	n/a	1	0	0
656.4182	1	81	n/a	n/a	1	0	0
656.6182	1	81	n/a	n/a	1	0	0
656.8182	1	81	n/a	n/a	1	0	0
657.0182	1	81	n/a	n/a	1	0	0
657.2182	1	81	n/a	n/a	1	0	0
657.4182	1	81	n/a	n/a	1	0	0
657.6182	1	81	n/a	n/a	1	0	0
657.8182	1	81	n/a	n/a	1	0	0
658.0182	1	81	n/a	n/a	1	0	0
659.206	1	10	n/a	n/a	1	51	1
660.306	1	21	n/a	n/a	1	51	0
661.4558	1	10	n/a	n/a	1	51	1
662.6558	1	10	n/a	n/a	1	51	2
663.789	1	10	n/a	n/a	1	51	3
664.9224	1	21	n/a	n/a	1	51	0
666.0722	1	10	n/a	n/a	1	51	1
667.3556	1	10	n/a	n/a	1	51	2
668.4722	1	10	n/a	n/a	1	51	3
669.5888	1	21	n/a	n/a	1	51	0
670.772	1	10	n/a	n/a	1	51	1
672.022	1	10	n/a	n/a	1	51	2
673.0886	1	10	n/a	n/a	1	51	3
674.1552	1	10	n/a	n/a	1	51	4
675.2384	1	10	n/a	n/a	1	51	5
676.505	1	10	n/a	n/a	1	51	6
677.5882	1	10	n/a	n/a	1	51	7
678.6716	1	21	n/a	n/a	1	51	0
679.7382	1	10	n/a	n/a	1	51	1
680.9548	1	10	n/a	n/a	1	51	2
690.7076	1	81	n/a	n/a	1	0	0
690.9076	1	81	n/a	n/a	1	0	0
691.1076	1	81	n/a	n/a	1	0	0
691.3076	1	81	n/a	n/a	1	0	0
691.5076	1	81	n/a	n/a	1	0	0
691.7076	1	81	n/a	n/a	1	0	0
691.9076	1	81	n/a	n/a	1	0	0
692.1076	1	81	n/a	n/a	1	0	0
692.3076	1	81	n/a	n/a	1	0	0
692.5076	1	81	n/a	n/a	1	0	0
693.804	1	10	n/a	n/a	1	50	1
695.0038	1	21	n/a	n/a	1	50	0
696.0872	1	10	n/a	n/a	1	50	1
697.2704	1	10	n/a	n/a	1	50	2
698.537	1	10	n/a	n/a	1	50	3
699.8036	1	21	n/a	n/a	1	50	0
700.9368	1	10	n/a	n/a	1	50	1
702.1368	1	10	n/a	n/a	1	50	2
703.2868	1	10	n/a	n/a	1	50	3
704.4366	1	21	n/a	n/a	1	50	0
705.57	1	10	n/a	n/a	1	50	1
706.7032	1	10	n/a	n/a	1	50	2
707.7698	1	10	n/a	n/a	1	50	3
708.953	1	10	n/a	n/a	1	50	4
709.9864	1	10	n/a	n/a	1	50	5
711.253	1	10	n/a	n/a	1	50	6
712.5696	1	10	n/a	n/a	1	50	7
713.8862	1	21	n/a	n/a	1	50	0
715.0528	1	10	n/a	n/a	1	50	1
716.236	1	21	n/a	n/a	1	50	0
717.0522	1	81	n/a	n/a	1	0	0
717.2522	1	81	n/a	n/a	1	0	0
717.4522	1	81	n/a	n/a	1	0	0
717.6522	1	81	n/a	n/a	1	0	0
717.8522	1	81	n/a	n/a	1	0	0
718.0522	1	81	n/a	n/a	1	0	0
718.2522	1	81	n/a	n/a	1	0	0
718.4522	1	81	n/a	n/a	1	0	0
718.6522	1	81	n/a	n/a	1	0	0
718.8522	1	81	n/a	n/a	1	0	0
720.169	1	10	n/a	n/a	1	50	1
721.3856	1	10	n/a	n/a	1	50	2
722.6856	1	10	n/a	n/a	1	50	3
723.7522	1	10	n/a	n/a	1	50	4
725.0188	1	10	n/a	n/a	1	50	5
726.2854	1	21	n/a	n/a	1	50	0
727.602	1	10	n/a	n/a	1	50	1
728.9186	1	21	n/a	n/a	1	50	0
730.1684	1	10	n/a	n/a	1	50	1
731.3018	1	10	n/a	n/a	1	50	2
732.485	1	10	n/a	n/a	1	50	3
733.5682	1	10	n/a	n/a	1	50	4
734.7516	1	10	n/a	n/a	1	50	5
735.9348	1	21	n/a	n/a	1	50	0
737.168	1	10	n/a	n/a	1	50	1
738.4014	1	10	n/a	n/a	1	50	2
739.668	1	10	n/a	n/a	1	50	3
740.8346	1	10	n/a	n/a	1	50	4
741.9512	1	10	n/a	n/a	1	50	5
743.0678	1	21	n/a	n/a	1	50	0
743.8254	1	81	n/a	n/a	1	0	0
744.0254	1	81	n/a	n/a	1	0	0
744.2254	1	81	n/a	n/a	1	0	0
744.4254	1	81	n/a	n/a	1	0	0
744.6254	1	81	n/a	n/a	1	0	0
744.8254	1	81	n/a	n/a	1	0	0
745.0254	1	81	n/a	n/a	1	0	0
745.2254	1	81	n/a	n/a	1	0	0
745.4254	1	81	n/a	n/a	1	0	0
745.6254	1	81	n/a	n/a	1	0	0
746.9008	1	10	n/a	n/a	1	50	1
747.9342	1	10	n/a	n/a	1	50	2
749.234	1	10	n/a	n/a	1	50	3
750.5506	1	10	n/a	n/a	1	50	4
751.6838	1	10	n/a	n/a	1	50	5
752.8172	1	21	n/a	n/a	1	50	0
754.0004	1	10	n/a	n/a	1	50	1
755.317	1	10	n/a	n/a	1	50	2
756.5336	1	10	n/a	n/a	1	50	3
757.7502	1	21	n/a	n/a	1	50	0
758.9502	1	10	n/a	n/a	1	50	1
760.25	1	10	n/a	n/a	1	50	2
761.2834	1	10	n/a	n/a	1	50	3
762.4666	1	10	n/a	n/a	1	50	4
763.6832	1	10	n/a	n/a	1	50	5
764.8998	1	21	n/a	n/a	1	50	0
766.183	1	10	n/a	n/a	1	50	1
767.4662	1	21	n/a	n/a	1	50	0
768.7162	1	10	n/a	n/a	1	50	1
770.0162	1	10	n/a	n/a	1	50	2
771.0556	1	81	n/a	n/a	1	0	0
771.2556	1	81	n/a	n/a	1	0	0
771.4556	1	81	n/a	n/a	1	0	0
771.6556	1	81	n/a	n/a	1	0	0
771.8556	1	81	n/a	n/a	1	0	0
772.0556	1	81	n/a	n/a	1	0	0
772.2556	1	81	n/a	n/a	1	0	0
772.4556	1	81	n/a	n/a	1	0	0
772.6556	1	81	n/a	n/a	1	0	0
772.8556	1	81	n/a	n/a	1	0	0
774.1992	1	10	n/a	n/a	1	50	1
775.4658	1	10	n/a	n/a	1	50	2
776.5158	1	10	n/a	n/a	1	50	3
777.7824	1	10	n/a	n/a	1	50	4
778.9156	1	10	n/a	n/a	1	50	5
780.0488	1	21	n/a	n/a	1	50	0
781.1654	1	10	n/a	n/a	1	50	1
782.282	1	21	n/a	n/a	1	50	0
783.4486	1	10	n/a	n/a	1	50	1
784.7152	1	10	n/a	n/a	1	50	2
785.9152	1	10	n/a	n/a	1	50	3
787.0984	1	10	n/a	n/a	1	50	4
788.1818	1	10	n/a	n/a	1	50	5
789.3816	1	10	n/a	n/a	1	50	6
790.715	1	10	n/a	n/a	1	50	7
792.0316	1	21	n/a	n/a	1	50	0
793.0814	1	10	n/a	n/a	1	50	1
794.3148	1	10	n/a	n/a	1	50	2
795.4814	1	10	n/a	n/a	1	50	3
796.7646	1	10	n/a	n/a	1	50	4
797.84	1	81	n/a	n/a	1	0	0
798.04	1	81	n/a	n/a	1	0	0
798.24	1	81	n/a	n/a	1	0	0
798.44	1	81	n/a	n/a	1	0	0
798.64	1	81	n/a	n/a	1	0	0
798.84	1	81	n/a	n/a	1	0	0
799.04	1	81	n/a	n/a	1	0	0
799.24	1	81	n/a	n/a	1	0	0
799.44	1	81	n/a	n/a	1	0	0
799.64	1	81	n/a	n/a	1	0	0
800.9144	1	10	n/a	n/a	1	50	1
802.2142	1	10	n/a	n/a	1	50	2
803.4642	1	10	n/a	n/a	1	50	3
804.7308	1	10	n/a	n/a	1	50	4
805.9474	1	10	n/a	n/a	1	50	5
807.164	1	21	n/a	n/a	1	50	0
808.4138	1	10	n/a	n/a	1	50	1
809.4472	1	10	n/a	n/a	1	50	2
810.747	1	10	n/a	n/a	1	50	3
811.947	1	10	n/a	n/a	1	50	4
813.0136	1	10	n/a	n/a	1	50	5
814.0802	1	21	n/a	n/a	1	50	0
815.3302	1	10	n/a	n/a	1	50	1
816.6134	1	10	n/a	n/a	1	50	2
817.7466	1	10	n/a	n/a	1	50	3
818.8466	1	10	n/a	n/a	1	50	4
820.0298	1	10	n/a	n/a	1	50	5
821.2132	1	21	n/a	n/a	1	50	0
822.3798	1	10	n/a	n/a	1	50	1
823.5964	1	10	n/a	n/a	1	50	2
845.4634	1	82	n/a	n/a	1	0	0
845.6844	1	82	n/a	n/a	1	0	0
846.0324	1	82	n/a	n/a	1	0	0
846.2184	1	82	n/a	n/a	1	0	0
846.2844	1	82	n/a	n/a	1	0	0
846.4634	1	82	n/a	n/a	1	0	0
846.5174	1	82	n/a	n/a	1	0	0
846.7584	1	82	n/a	n/a	1	0	0
846.9194	1	82	n/a	n/a	1	0	0
847.1994	1	82	n/a	n/a	1	0	0
848.4448	1	10	n/a	n/a	1	52	1
849.6282	1	10	n/a	n/a	1	52	2
850.7614	1	10	n/a	n/a	1	52	3
852.0446	1	10	n/a	n/a	1	52	4
853.2946	1	10	n/a	n/a	1	52	5
854.5444	1	21	n/a	n/a	1	52	0
855.8444	1	10	n/a	n/a	1	52	1
856.961	1	10	n/a	n/a	1	52	2
858.0776	1	10	n/a	n/a	1	52	3
859.2108	1	10	n/a	n/a	1	52	4
860.3608	1	10	n/a	n/a	1	52	5
861.5108	1	21	n/a	n/a	1	52	0
862.6774	1	10	n/a	n/a	1	52	1
863.7272	1	10	n/a	n/a	1	52	2
864.8606	1	10	n/a	n/a	1	52	3
865.9938	1	21	n/a	n/a	1	52	0
867.2938	1	10	n/a	n/a	1	52	1
868.5936	1	21	n/a	n/a	1	52	0
869.7936	1	10	n/a	n/a	1	52	1
871.0936	1	10	n/a	n/a	1	52	2
872.04	1	82	n/a	n/a	1	0	0
872.411	1	82	n/a	n/a	1	0	0
872.809	1	82	n/a	n/a	1	0	0
872.879	1	82	n/a	n/a	1	0	0
872.909	1	82	n/a	n/a	1	0	0
873.04	1	82	n/a	n/a	1	0	0
873.412	1	82	n/a	n/a	1	0	0
873.433	1	82	n/a	n/a	1	0	0
873.697	1	82	n/a	n/a	1	0	0
873.994	1	82	n/a	n/a	1	0	0
875.0766	1	10	n/a	n/a	1	52	1
876.3098	1	10	n/a	n/a	1	52	2
877.4932	1	10	n/a	n/a	1	52	3
878.7098	1	10	n/a	n/a	1	52	4
880.0264	1	10	n/a	n/a	1	52	5
881.2596	1	10	n/a	n/a	1	52	6
882.5262	1	10	n/a	n/a	1	52	7
883.7928	1	21	n/a	n/a	1	52	0
885.0594	1	10	n/a	n/a	1	52	1
886.1426	1	10	n/a	n/a	1	52	2
887.2926	1	10	n/a	n/a	1	52	3
888.6092	1	10	n/a	n/a	1	52	4
889.7758	1	10	n/a	n/a	1	52	5
890.9256	1	10	n/a	n/a	1	52	6
892.0922	1	10	n/a	n/a	1	52	7
893.2588	1	21	n/a	n/a	1	52	0
894.3588	1	10	n/a	n/a	1	52	1
895.5588	1	10	n/a	n/a	1	52	2
896.8754	1	10	n/a	n/a	1	52	3
898.192	1	21	n/a	n/a	1	52	0
899.2896	1	82	n/a	n/a	1	0	0
899.4476	1	82	n/a	n/a	1	0	0
899.5456	1	82	n/a	n/a	1	0	0
899.5976	1	82	n/a	n/a	1	0	0
899.9266	1	82	n/a	n/a	1	0	0
900.2904	1	82	n/a	n/a	1	0	0
900.4054	1	82	n/a	n/a	1	0	0
900.5414	1	82	n/a	n/a	1	0	0
900.7074	1	82	n/a	n/a	1	0	0
900.7534	1	82	n/a	n/a	1	0	0
902.425	1	10	n/a	n/a	1	52	1
903.675	1	21	n/a	n/a	1	52	0
904.7582	1	10	n/a	n/a	1	52	1
906.0414	1	10	n/a	n/a	1	52	2
907.3414	1	10	n/a	n/a	1	52	3
908.5246	1	10	n/a	n/a	1	52	4
909.6746	1	10	n/a	n/a	1	52	5
910.7078	1	10	n/a	n/a	1	52	6
911.9412	1	10	n/a	n/a	1	52	7
913.1744	1	21	n/a	n/a	1	52	0
914.3076	1	10	n/a	n/a	1	52	1
915.441	1	21	n/a	n/a	1	52	0
916.5408	1	10	n/a	n/a	1	52	1
917.6408	1	10	n/a	n/a	1	52	2
918.7074	1	10	n/a	n/a	1	52	3
919.8074	1	10	n/a	n/a	1	52	4
921.0906	1	10	n/a	n/a	1	52	5
922.2072	1	10	n/a	n/a	1	52	6
923.2404	1	10	n/a	n/a	1	52	7
924.2738	1	21	n/a	n/a	1	52	0
925.3234	1	82	n/a	n/a	1	0	0
925.6534	1	82	n/a	n/a	1	0	0
925.9314	1	82	n/a	n/a	1	0	0
926.0354	1	82	n/a	n/a	1	0	0
926.1614	1	82	n/a	n/a	1	0	0
926.3234	1	82	n/a	n/a	1	0	0
926.4874	1	82	n/a	n/a	1	0	0
926.6074	1	82	n/a	n/a	1	0	0
927.0024	1	82	n/a	n/a	1	0	0
927.2414	1	82	n/a	n/a	1	0	0
928.3068	1	10	n/a	n/a	1	52	1
929.3734	1	10	n/a	n/a	1	52	2
930.5566	1	10	n/a	n/a	1	52	3
931.74	1	21	n/a	n/a	1	52	0
933.0398	1	10	n/a	n/a	1	52	1
934.2732	1	10	n/a	n/a	1	52	2
935.473	1	10	n/a	n/a	1	52	3
936.773	1	10	n/a	n/a	1	52	4
937.9396	1	10	n/a	n/a	1	52	5
939.2396	1	10	n/a	n/a	1	52	6
940.3894	1	10	n/a	n/a	1	52	7
941.5394	1	21	n/a	n/a	1	52	0
942.756	1	10	n/a	n/a	1	52	1
943.7892	1	10	n/a	n/a	1	52	2
945.0558	1	10	n/a	n/a	1	52	3
946.3224	1	21	n/a	n/a	1	52	0
947.589	1	10	n/a	n/a	1	52	1
948.6556	1	10	n/a	n/a	1	52	2
949.9722	1	10	n/a	n/a	1	52	3
951.2888	1	21	n/a	n/a	1	52	0
952.2654	1	82	n/a	n/a	1	0	0
952.3454	1	82	n/a	n/a	1	0	0
952.6124	1	82	n/a	n/a	1	0	0
953.0414	1	82	n/a	n/a	1	0	0
953.0664	1	82	n/a	n/a	1	0	0
953.2656	1	82	n/a	n/a	1	0	0
953.3016	1	82	n/a	n/a	1	0	0
953.6226	1	82	n/a	n/a	1	0	0
953.9976	1	82	n/a	n/a	1	0	0
954.2284	1	82	n/a	n/a	1	0	0
955.2552	1	10	n/a	n/a	1	52	1
956.3718	1	21	n/a	n/a	1	52	0
957.6718	1	10	n/a	n/a	1	52	1
958.9716	1	21	n/a	n/a	1	52	0
960.2882	1	10	n/a	n/a	1	52	1
961.6048	1	21	n/a	n/a	1	52	0
962.8548	1	10	n/a	n/a	1	52	1
963.9214	1	10	n/a	n/a	1	52	2
965.1214	1	10	n/a	n/a	1	52	3
966.3212	1	10	n/a	n/a	1	52	4
967.4712	1	10	n/a	n/a	1	52	5
968.5044	1	10	n/a	n/a	1	52	6
969.7878	1	10	n/a	n/a	1	52	7
971.071	1	21	n/a	n/a	1	52	0
972.2876	1	10	n/a	n/a	1	52	1
973.4042	1	10	n/a	n/a	1	52	2
974.604	1	10	n/a	n/a	1	52	3
975.7874	1	10	n/a	n/a	1	52	4
977.0706	1	10	n/a	n/a	1	52	5
978.2538	1	10	n/a	n/a	1	52	6
1053.7774	1	82	n/a	n/a	1	0	0
1054.0284	1	82	n/a	n/a	1	0	0
1054.0984	1	82	n/a	n/a	1	0	0
1054.4594	1	82	n/a	n/a	1	0	0
1054.5944	1	82	n/a	n/a	1	0	0
1054.7774	1	82	n/a	n/a	1	0	0
1055.1314	1	82	n/a	n/a	1	0	0
1055.2474	1	82	n/a	n/a	1	0	0
1055.4484	1	82	n/a	n/a	1	0	0
1055.5284	1	82	n/a	n/a	1	0	0
1056.7594	1	10	n/a	n/a	1	52	1
1057.9926	1	10	n/a	n/a	1	52	2
1059.0592	1	10	n/a	n/a	1	52	3
1060.1258	1	21	n/a	n/a	1	52	0
1061.2758	1	10	n/a	n/a	1	52	1
1062.309	1	10	n/a	n/a	1	52	2
1063.5424	1	10	n/a	n/a	1	52	3
1064.859	1	10	n/a	n/a	1	52	4
1066.0588	1	10	n/a	n/a	1	52	5
1067.2588	1	21	n/a	n/a	1	52	0
1068.342	1	10	n/a	n/a	1	52	1
1069.4754	1	10	n/a	n/a	1	52	2
1070.6752	1	10	n/a	n/a	1	52	3
1071.9918	1	10	n/a	n/a	1	52	4
1073.0584	1	10	n/a	n/a	1	52	5
1074.125	1	21	n/a	n/a	1	52	0
1075.3916	1	10	n/a	n/a	1	52	1
1076.6082	1	10	n/a	n/a	1	52	2
1077.6748	1	10	n/a	n/a	1	52	3
1078.858	1	10	n/a	n/a	1	52	4
1079.7356	1	82	n/a	n/a	1	0	0
1079.7776	1	82	n/a	n/a	1	0	0
1079.9036	1	82	n/a	n/a	1	0	0
1080.2456	1	82	n/a	n/a	1	0	0
1080.6286	1	82	n/a	n/a	1	0	0
1080.7356	1	82	n/a	n/a	1	0	0
1081.0306	1	82	n/a	n/a	1	0	0
1081.2096	1	82	n/a	n/a	1	0	0
1081.3386	1	82	n/a	n/a	1	0	0
1081.3696	1	82	n/a	n/a	1	0	0
1082.8246	1	10	n/a	n/a	1	52	1
1084.1244	1	10	n/a	n/a	1	52	2
1085.2078	1	10	n/a	n/a	1	52	3
1086.291	1	21	n/a	n/a	1	52	0
1087.4242	1	10	n/a	n/a	1	52	1
1088.7408	1	10	n/a	n/a	1	52	2
1089.9074	1	10	n/a	n/a	1	52	3
1091.074	1	21	n/a	n/a	1	52	0
1092.2574	1	10	n/a	n/a	1	52	1
1093.4572	1	21	n/a	n/a	1	52	0
1094.7072	1	10	n/a	n/a	1	52	1
1095.957	1	21	n/a	n/a	1	52	0
1097.0236	1	10	n/a	n/a	1	52	1
1098.2402	1	10	n/a	n/a	1	52	2
1099.4568	1	10	n/a	n/a	1	52	3
1100.6734	1	21	n/a	n/a	1	52	0
1101.7734	1	10	n/a	n/a	1	52	1
1103.0234	1	10	n/a	n/a	1	52	2
1104.19	1	10	n/a	n/a	1	52	3
1105.3566	1	21	n/a	n/a	1	52	0
1106.2322	1	82	n/a	n/a	1	0	0
1106.2762	1	82	n/a	n/a	1	0	0
1106.4262	1	82	n/a	n/a	1	0	0
1106.5142	1	82	n/a	n/a	1	0	0
1106.7922	1	82	n/a	n/a	1	0	0
1107.2322	1	82	n/a	n/a	1	0	0
1107.6262	1	82	n/a	n/a	1	0	0
1108.0462	1	82	n/a	n/a	1	0	0
1108.1202	1	82	n/a	n/a	1	0	0
1108.1552	1	82	n/a	n/a	1	0	0
1109.2396	1	10	n/a	n/a	1	52	1
1110.3562	1	21	n/a	n/a	1	52	0
1111.4062	1	10	n/a	n/a	1	52	1
1112.5728	1	10	n/a	n/a	1	52	2
1113.6394	1	10	n/a	n/a	1	52	3
1114.706	1	21	n/a	n/a	1	52	0
1115.7892	1	10	n/a	n/a	1	52	1
1116.9558	1	10	n/a	n/a	1	52	2
1118.1058	1	10	n/a	n/a	1	52	3
1119.289	1	10	n/a	n/a	1	52	4
1120.489	1	10	n/a	n/a	1	52	5
1121.689	1	21	n/a	n/a	1	52	0
1122.9388	1	10	n/a	n/a	1	52	1
1124.2054	1	21	n/a	n/a	1	52	0
1125.522	1	10	n/a	n/a	1	52	1
1126.7886	1	10	n/a	n/a	1	52	2
1128.0886	1	10	n/a	n/a	1	52	3
1129.2884	1	10	n/a	n/a	1	52	4
1130.3718	1	10	n/a	n/a	1	52	5
1131.6716	1	10	n/a	n/a	1	52	6
1132.728	1	82	n/a	n/a	1	0	0
1133.131	1	82	n/a	n/a	1	0	0
1133.192	1	82	n/a	n/a	1	0	0
1133.431	1	82	n/a	n/a	1	0	0
1133.468	1	82	n/a	n/a	1	0	0
1133.7282	1	82	n/a	n/a	1	0	0
1133.7742	1	82	n/a	n/a	1	0	0
1133.8642	1	82	n/a	n/a	1	0	0
1134.1602	1	82	n/a	n/a	1	0	0
1134.2952	1	82	n/a	n/a	1	0	0
1135.9214	1	10	n/a	n/a	1	52	1
1137.2214	1	21	n/a	n/a	1	52	0
1138.538	1	10	n/a	n/a	1	52	1
1139.8546	1	21	n/a	n/a	1	52	0
1140.9044	1	10	n/a	n/a	1	52	1
1141.9544	1	21	n/a	n/a	1	52	0
1143.1544	1	10	n/a	n/a	1	52	1
1144.3542	1	10	n/a	n/a	1	52	2
1145.6874	1	10	n/a	n/a	1	52	3
1147.0208	1	21	n/a	n/a	1	52	0
1148.2374	1	10	n/a	n/a	1	52	1
1149.454	1	21	n/a	n/a	1	52	0
1150.5372	1	10	n/a	n/a	1	52	1
1151.6704	1	10	n/a	n/a	1	52	2
1152.8538	1	10	n/a	n/a	1	52	3
1154.1704	1	10	n/a	n/a	1	52	4
1155.3702	1	10	n/a	n/a	1	52	5
1156.5702	1	21	n/a	n/a	1	52	0
1157.8868	1	10	n/a	n/a	1	52	1
1158.9534	1	10	n/a	n/a	1	52	2
1159.9138	1	82	n/a	n/a	1	0	0
1160.2428	1	82	n/a	n/a	1	0	0
1160.3518	1	82	n/a	n/a	1	0	0
1160.5718	1	82	n/a	n/a	1	0	0
1160.8198	1	82	n/a	n/a	1	0	0
1160.9138	1	82	n/a	n/a	1	0	0
1160.9448	1	82	n/a	n/a	1	0	0
1161.3708	1	82	n/a	n/a	1	0	0
1161.5328	1	82	n/a	n/a	1	0	0
1161.7558	1	82	n/a	n/a	1	0	0
1163.1198	1	10	n/a	n/a	1	52	1
1164.3864	1	10	n/a	n/a	1	52	2
1165.5196	1	10	n/a	n/a	1	52	3
1166.803	1	10	n/a	n/a	1	52	4
1167.8862	1	10	n/a	n/a	1	52	5
1169.1194	1	10	n/a	n/a	1	52	6
1170.4028	1	10	n/a	n/a	1	52	7
1171.686	1	21	n/a	n/a	1	52	0
1172.9526	1	10	n/a	n/a	1	52	1
1174.0192	1	10	n/a	n/a	1	52	2
1175.2358	1	10	n/a	n/a	1	52	3
1176.269	1	10	n/a	n/a	1	52	4
1177.3856	1	10	n/a	n/a	1	52	5
1178.5022	1	21	n/a	n/a	1	52	0
1179.5856	1	10	n/a	n/a	1	52	1
1180.7022	1	10	n/a	n/a	1	52	2
1181.9186	1	10	n/a	n/a	1	52	3
1182.9686	1	10	n/a	n/a	1	52	4
1184.0186	1	10	n/a	n/a	1	52	5
1185.2518	1	10	n/a	n/a	1	52	6
1230.2682	1	82	n/a	n/a	1	0	0
1230.5132	1	82	n/a	n/a	1	0	0
1230.5502	1	82	n/a	n/a	1	0	0
1230.9322	1	82	n/a	n/a	1	0	0
1231.1552	1	82	n/a	n/a	1	0	0
1231.2682	1	82	n/a	n/a	1	0	0
1231.3592	1	82	n/a	n/a	1	0	0
1231.4272	1	82	n/a	n/a	1	0	0
1231.5592	1	82	n/a	n/a	1	0	0
1231.8392	1	82	n/a	n/a	1	0	0
1233.3324	1	10	n/a	n/a	1	50	1
1234.4656	1	10	n/a	n/a	1	50	2
1235.5656	1	10	n/a	n/a	1	50	3
1236.6654	1	21	n/a	n/a	1	50	0
1237.7488	1	10	n/a	n/a	1	50	1
1238.832	1	10	n/a	n/a	1	50	2
1240.082	1	10	n/a	n/a	1	50	3
1241.3318	1	21	n/a	n/a	1	50	0
1242.4152	1	10	n/a	n/a	1	50	1
1243.515	1	10	n/a	n/a	1	50	2
1244.5816	1	10	n/a	n/a	1	50	3
1245.6482	1	10	n/a	n/a	1	50	4
1246.7148	1	10	n/a	n/a	1	50	5
1247.8482	1	10	n/a	n/a	1	50	6
1248.9148	1	10	n/a	n/a	1	50	7
1249.9814	1	21	n/a	n/a	1	50	0
1251.198	1	10	n/a	n/a	1	50	1
1252.4146	1	21	n/a	n/a	1	50	0
1253.6644	1	10	n/a	n/a	1	50	1
1254.8478	1	10	n/a	n/a	1	50	2
1255.6802	1	82	n/a	n/a	1	0	0
1255.9362	1	82	n/a	n/a	1	0	0
1256.2682	1	82	n/a	n/a	1	0	0
1256.3742	1	82	n/a	n/a	1	0	0
1256.5222	1	82	n/a	n/a	1	0	0
1256.6802	1	82	n/a	n/a	1	0	0
1256.7802	1	82	n/a	n/a	1	0	0
1256.9392	1	82	n/a	n/a	1	0	0
1257.2142	1	82	n/a	n/a	1	0	0
1257.5382	1	82	n/a	n/a	1	0	0
1258.8308	1	10	n/a	n/a	1	50	1
1259.9474	1	10	n/a	n/a	1	50	2
1261.2474	1	10	n/a	n/a	1	50	3
1262.5472	1	21	n/a	n/a	1	50	0
1263.5806	1	10	n/a	n/a	1	50	1
1264.6138	1	21	n/a	n/a	1	50	0
1265.8138	1	10	n/a	n/a	1	50	1
1267.0136	1	21	n/a	n/a	1	50	0
1268.097	1	10	n/a	n/a	1	50	1
1269.2636	1	10	n/a	n/a	1	50	2
1270.3302	1	10	n/a	n/a	1	50	3
1271.3968	1	21	n/a	n/a	1	50	0
1272.6634	1	10	n/a	n/a	1	50	1
1273.9132	1	10	n/a	n/a	1	50	2
1275.2132	1	10	n/a	n/a	1	50	3
1276.2964	1	10	n/a	n/a	1	50	4
1277.463	1	10	n/a	n/a	1	50	5
1278.6296	1	21	n/a	n/a	1	50	0
1279.9462	1	10	n/a	n/a	1	50	1
1281.2628	1	21	n/a	n/a	1	50	0
1282.2476	1	82	n/a	n/a	1	0	0
1282.5096	1	82	n/a	n/a	1	0	0
1282.9106	1	82	n/a	n/a	1	0	0
1283.0736	1	82	n/a	n/a	1	0	0
1283.1966	1	82	n/a	n/a	1	0	0
1283.2476	1	82	n/a	n/a	1	0	0
1283.5386	1	82	n/a	n/a	1	0	0
1283.7786	1	82	n/a	n/a	1	0	0
1283.9546	1	82	n/a	n/a	1	0	0
1283.9746	1	82	n/a	n/a	1	0	0
1285.3292	1	10	n/a	n/a	1	50	1
1286.5126	1	21	n/a	n/a	1	50	0
1287.7792	1	10	n/a	n/a	1	50	1
1288.8458	1	10	n/a	n/a	1	50	2
1289.9456	1	10	n/a	n/a	1	50	3
1291.1956	1	10	n/a	n/a	1	50	4
1292.4122	1	10	n/a	n/a	1	50	5
1293.6288	1	21	n/a	n/a	1	50	0
1294.6954	1	10	n/a	n/a	1	50	1
1295.7954	1	10	n/a	n/a	1	50	2
1296.8952	1	10	n/a	n/a	1	50	3
1298.0618	1	10	n/a	n/a	1	50	4
1299.3284	1	10	n/a	n/a	1	50	5
1300.3784	1	10	n/a	n/a	1	50	6
1301.6616	1	10	n/a	n/a	1	50	7
1302.945	1	21	n/a	n/a	1	50	0
1304.0616	1	10	n/a	n/a	1	50	1
1305.3614	1	10	n/a	n/a	1	50	2
1306.5114	1	10	n/a	n/a	1	50	3
1307.6446	1	10	n/a	n/a	1	50	4
1308.634	1	82	n/a	n/a	1	0	0
1309.037	1	82	n/a	n/a	1	0	0
1309.126	1	82	n/a	n/a	1	0	0
1309.249	1	82	n/a	n/a	1	0	0
1309.482	1	82	n/a	n/a	1	0	0
1309.634	1	82	n/a	n/a	1	0	0
1309.714	1	82	n/a	n/a	1	0	0
1309.756	1	82	n/a	n/a	1	0	0
1310.007	1	82	n/a	n/a	1	0	0
1310.342	1	82	n/a	n/a	1	0	0
1311.7278	1	10	n/a	n/a	1	50	1
1312.8276	1	10	n/a	n/a	1	50	2
1313.961	1	10	n/a	n/a	1	50	3
1315.1942	1	10	n/a	n/a	1	50	4
1316.4442	1	10	n/a	n/a	1	50	5
1317.694	1	21	n/a	n/a	1	50	0
1318.8274	1	10	n/a	n/a	1	50	1
1319.894	1	10	n/a	n/a	1	50	2
1321.1106	1	10	n/a	n/a	1	50	3
1322.3272	1	21	n/a	n/a	1	50	0
1323.527	1	10	n/a	n/a	1	50	1
1324.5936	1	10	n/a	n/a	1	50	2
1325.8102	1	10	n/a	n/a	1	50	3
1326.9768	1	10	n/a	n/a	1	50	4
1328.2268	1	10	n/a	n/a	1	50	5
1329.5266	1	10	n/a	n/a	1	50	6
1330.8266	1	10	n/a	n/a	1	50	7
1332.1266	1	21	n/a	n/a	1	50	0
1333.2098	1	10	n/a	n/a	1	50	1
1334.4764	1	10	n/a	n/a	1	50	2
1335.395	1	82	n/a	n/a	1	0	0
1335.8328	1	82	n/a	n/a	1	0	0
1335.9818	1	82	n/a	n/a	1	0	0
1336.0958	1	82	n/a	n/a	1	0	0
1336.2698	1	82	n/a	n/a	1	0	0
1336.395	1	82	n/a	n/a	1	0	0
1336.656	1	82	n/a	n/a	1	0	0
1336.777	1	82	n/a	n/a	1	0	0
1336.981	1	82	n/a	n/a	1	0	0
1337.324	1	82	n/a	n/a	1	0	0
1338.4594	1	10	n/a	n/a	1	50	1
1339.526	1	10	n/a	n/a	1	50	2
1340.7094	1	10	n/a	n/a	1	50	3
1341.8092	1	10	n/a	n/a	1	50	4
1343.0258	1	10	n/a	n/a	1	50	5
1344.0592	1	10	n/a	n/a	1	50	6
1345.109	1	10	n/a	n/a	1	50	7
1346.159	1	21	n/a	n/a	1	50	0
1347.4256	1	10	n/a	n/a	1	50	1
1348.5088	1	10	n/a	n/a	1	50	2
1349.6254	1	10	n/a	n/a	1	50	3
1350.8254	1	10	n/a	n/a	1	50	4
1352.142	1	10	n/a	n/a	1	50	5
1353.4586	1	21	n/a	n/a	1	50	0
1354.7252	1	10	n/a	n/a	1	50	1
1355.9918	1	21	n/a	n/a	1	50	0
1357.3084	1	10	n/a	n/a	1	50	1
1358.5584	1	10	n/a	n/a	1	50	2
1359.8082	1	10	n/a	n/a	1	50	3
1360.8916	1	10	n/a	n/a	1	50	4
1384.2516	1	81	n/a	n/a	1	0	0
1384.4516	1	81	n/a	n/a	1	0	0
1384.6516	1	81	n/a	n/a	1	0	0
1384.8516	1	81	n/a	n/a	1	0	0
1385.0514	1	81	n/a	n/a	1	0	0
1385.2516	1	81	n/a	n/a	1	0	0
1385.4516	1	81	n/a	n/a	1	0	0
1385.6516	1	81	n/a	n/a	1	0	0
1385.8516	1	81	n/a	n/a	1	0	0
1386.0516	1	81	n/a	n/a	1	0	0
1387.3566	1	10	n/a	n/a	1	51	1
1388.4398	1	10	n/a	n/a	1	51	2
1389.5064	1	10	n/a	n/a	1	51	3
1390.7898	1	10	n/a	n/a	1	51	4
1392.0064	1	10	n/a	n/a	1	51	5
1393.223	1	21	n/a	n/a	1	51	0
1394.5062	1	10	n/a	n/a	1	51	1
1395.8062	1	10	n/a	n/a	1	51	2
1396.9394	1	10	n/a	n/a	1	51	3
1398.0726	1	10	n/a	n/a	1	51	4
1399.2726	1	10	n/a	n/a	1	51	5
1400.4726	1	21	n/a	n/a	1	51	0
1401.739	1	10	n/a	n/a	1	51	1
1402.8058	1	10	n/a	n/a	1	51	2
1403.9056	1	10	n/a	n/a	1	51	3
1405.1056	1	10	n/a	n/a	1	51	4
1406.1556	1	10	n/a	n/a	1	51	5
1407.2054	1	21	n/a	n/a	1	51	0
1408.4054	1	10	n/a	n/a	1	51	1
1409.622	1	10	n/a	n/a	1	51	2
1410.5224	1	81	n/a	n/a	1	0	0
1410.7224	1	81	n/a	n/a	1	0	0
1410.9224	1	81	n/a	n/a	1	0	0
1411.1224	1	81	n/a	n/a	1	0	0
1411.3224	1	81	n/a	n/a	1	0	0
1411.5224	1	81	n/a	n/a	1	0	0
1411.7224	1	81	n/a	n/a	1	0	0
1411.9224	1	81	n/a	n/a	1	0	0
1412.1224	1	81	n/a	n/a	1	0	0
1412.3224	1	81	n/a	n/a	1	0	0
1413.455	1	10	n/a	n/a	1	51	1
1414.6884	1	10	n/a	n/a	1	51	2
1415.905	1	10	n/a	n/a	1	51	3
1417.1548	1	21	n/a	n/a	1	51	0
1418.3382	1	10	n/a	n/a	1	51	1
1419.5214	1	21	n/a	n/a	1	51	0
1420.738	1	10	n/a	n/a	1	51	1
1421.9546	1	21	n/a	n/a	1	51	0
1423.2378	1	10	n/a	n/a	1	51	1
1424.471	1	10	n/a	n/a	1	51	2
1425.6376	1	10	n/a	n/a	1	51	3
1426.8042	1	21	n/a	n/a	1	51	0
1427.8542	1	10	n/a	n/a	1	51	1
1429.0208	1	10	n/a	n/a	1	51	2
1430.2208	1	10	n/a	n/a	1	51	3
1431.4206	1	21	n/a	n/a	1	51	0
1432.5206	1	10	n/a	n/a	1	51	1
1433.6206	1	21	n/a	n/a	1	51	0
1434.7704	1	10	n/a	n/a	1	51	1
1435.9038	1	10	n/a	n/a	1	51	2
1436.6482	1	81	n/a	n/a	1	0	0
1436.8482	1	81	n/a	n/a	1	0	0
1437.0482	1	81	n/a	n/a	1	0	0
1437.2482	1	81	n/a	n/a	1	0	0
1437.4482	1	81	n/a	n/a	1	0	0
1437.6482	1	81	n/a	n/a	1	0	0
1437.8482	1	81	n/a	n/a	1	0	0
1438.0482	1	81	n/a	n/a	1	0	0
1438.2482	1	81	n/a	n/a	1	0	0
1438.4482	1	81	n/a	n/a	1	0	0
1439.7202	1	10	n/a	n/a	1	51	1
1440.8702	1	10	n/a	n/a	1	51	2
1441.92	1	10	n/a	n/a	1	51	3
1442.97	1	10	n/a	n/a	1	51	4
1444.07	1	10	n/a	n/a	1	51	5
1445.3032	1	10	n/a	n/a	1	51	6
1446.3864	1	10	n/a	n/a	1	51	7
1447.4698	1	21	n/a	n/a	1	51	0
1448.7364	1	10	n/a	n/a	1	51	1
1449.8696	1	10	n/a	n/a	1	51	2
1451.1696	1	10	n/a	n/a	1	51	3
1452.4694	1	21	n/a	n/a	1	51	0
1453.536	1	10	n/a	n/a	1	51	1
1454.686	1	10	n/a	n/a	1	51	2
1455.986	1	10	n/a	n/a	1	51	3
1457.2858	1	21	n/a	n/a	1	51	0
1458.5358	1	10	n/a	n/a	1	51	1
1459.6024	1	10	n/a	n/a	1	51	2
1460.869	1	10	n/a	n/a	1	51	3
1462.1688	1	10	n/a	n/a	1	51	4
1462.9216	1	81	n/a	n/a	1	0	0
1463.1216	1	81	n/a	n/a	1	0	0
1463.3216	1	81	n/a	n/a	1	0	0
1463.5216	1	81	n/a	n/a	1	0	0
1463.7216	1	81	n/a	n/a	1	0	0
1463.9216	1	81	n/a	n/a	1	0	0
1464.1216	1	81	n/a	n/a	1	0	0
1464.3216	1	81	n/a	n/a	1	0	0
1464.5216	1	81	n/a	n/a	1	0	0
1464.7216	1	81	n/a	n/a	1	0	0
1465.8854	1	10	n/a	n/a	1	51	1
1466.952	1	21	n/a	n/a	1	51	0
1468.0186	1	10	n/a	n/a	1	51	1
1469.2184	1	10	n/a	n/a	1	51	2
1470.4184	1	10	n/a	n/a	1	51	3
1471.5684	1	10	n/a	n/a	1	51	4
1472.735	1	10	n/a	n/a	1	51	5
1474.0016	1	10	n/a	n/a	1	51	6
1475.0348	1	10	n/a	n/a	1	51	7
1476.068	1	21	n/a	n/a	1	51	0
1477.2346	1	10	n/a	n/a	1	51	1
1478.368	1	10	n/a	n/a	1	51	2
1479.4846	1	10	n/a	n/a	1	51	3
1480.7344	1	10	n/a	n/a	1	51	4
1482.051	1	10	n/a	n/a	1	51	5
1483.3676	1	21	n/a	n/a	1	51	0
1484.6676	1	10	n/a	n/a	1	51	1
1485.9008	1	10	n/a	n/a	1	51	2
1486.9674	1	10	n/a	n/a	1	51	3
1488.034	1	21	n/a	n/a	1	51	0
1488.9326	1	81	n/a	n/a	1	0	0
1489.1326	1	81	n/a	n/a	1	0	0
1489.3326	1	81	n/a	n/a	1	0	0
1489.5326	1	81	n/a	n/a	1	0	0
1489.7326	1	81	n/a	n/a	1	0	0
1489.9326	1	81	n/a	n/a	1	0	0
1490.1326	1	81	n/a	n/a	1	0	0
1490.3326	1	81	n/a	n/a	1	0	0
1490.5326	1	81	n/a	n/a	1	0	0
1490.7326	1	81	n/a	n/a	1	0	0
1491.8504	1	10	n/a	n/a	1	51	1
1492.9504	1	10	n/a	n/a	1	51	2
1494.067	1	10	n/a	n/a	1	51	3
1495.367	1	10	n/a	n/a	1	51	4
1496.5336	1	10	n/a	n/a	1	51	5
1497.7002	1	21	n/a	n/a	1	51	0
1498.9834	1	10	n/a	n/a	1	51	1
1500.2666	1	10	n/a	n/a	1	51	2
1501.3332	1	10	n/a	n/a	1	51	3
1502.4332	1	10	n/a	n/a	1	51	4
1503.5164	1	10	n/a	n/a	1	51	5
1504.5998	1	21	n/a	n/a	1	51	0
1505.8496	1	10	n/a	n/a	1	51	1
1507.0996	1	21	n/a	n/a	1	51	0
1508.3994	1	10	n/a	n/a	1	51	1
1509.6994	1	10	n/a	n/a	1	51	2
1510.866	1	10	n/a	n/a	1	51	3
1511.966	1	10	n/a	n/a	1	51	4
1513.1326	1	10	n/a	n/a	1	51	5
1514.2992	1	21	n/a	n/a	1	51	0
1559.6234	1	81	n/a	n/a	1	0	0
1559.8234	1	81	n/a	n/a	1	0	0
1560.0234	1	81	n/a	n/a	1	0	0
1560.2234	1	81	n/a	n/a	1	0	0
1560.4234	1	81	n/a	n/a	1	0	0
1560.6234	1	81	n/a	n/a	1	0	0
1560.8234	1	81	n/a	n/a	1	0	0
1561.0234	1	81	n/a	n/a	1	0	0
1561.2234	1	81	n/a	n/a	1	0	0
1561.4234	1	81	n/a	n/a	1	0	0
1562.6356	1	10	n/a	n/a	1	51	1
1563.9354	1	10	n/a	n/a	1	51	2
1565.1354	1	10	n/a	n/a	1	51	3
1566.3354	1	21	n/a	n/a	1	51	0
1567.5852	1	10	n/a	n/a	1	51	1
1568.7518	1	10	n/a	n/a	1	51	2
1570.0518	1	10	n/a	n/a	1	51	3
1571.3516	1	21	n/a	n/a	1	51	0
1572.4016	1	10	n/a	n/a	1	51	1
1573.4516	1	21	n/a	n/a	1	51	0
1574.5848	1	10	n/a	n/a	1	51	1
1575.7848	1	10	n/a	n/a	1	51	2
1576.9846	1	10	n/a	n/a	1	51	3
1578.2012	1	10	n/a	n/a	1	51	4
1579.5012	1	10	n/a	n/a	1	51	5
1580.7012	1	10	n/a	n/a	1	51	6
1581.8344	1	10	n/a	n/a	1	51	7
1582.9676	1	21	n/a	n/a	1	51	0
1584.101	1	10	n/a	n/a	1	51	1
1585.2508	1	21	n/a	n/a	1	51	0
1586.0736	1	81	n/a	n/a	1	0	0
1586.2736	1	81	n/a	n/a	1	0	0
1586.4736	1	81	n/a	n/a	1	0	0
1586.6736	1	81	n/a	n/a	1	0	0
1586.8736	1	81	n/a	n/a	1	0	0
1587.0736	1	81	n/a	n/a	1	0	0
1587.2736	1	81	n/a	n/a	1	0	0
1587.4736	1	81	n/a	n/a	1	0	0
1587.6736	1	81	n/a	n/a	1	0	0
1587.8736	1	81	n/a	n/a	1	0	0
1589.2006	1	10	n/a	n/a	1	51	1
1590.4338	1	21	n/a	n/a	1	51	0
1591.6004	1	10	n/a	n/a	1	51	1
1592.717	1	10	n/a	n/a	1	51	2
1593.767	1	10	n/a	n/a	1	51	3
1595.017	1	10	n/a	n/a	1	51	4
1596.3168	1	10	n/a	n/a	1	51	5
1597.4502	1	10	n/a	n/a	1	51	6
1598.7	1	10	n/a	n/a	1	51	7
1599.9334	1	21	n/a	n/a	1	51	0
1601.0166	1	10	n/a	n/a	1	51	1
1602.1666	1	10	n/a	n/a	1	51	2
1603.3664	1	10	n/a	n/a	1	51	3
1604.6498	1	10	n/a	n/a	1	51	4
1605.783	1	10	n/a	n/a	1	51	5
1606.9162	1	21	n/a	n/a	1	51	0
1608.0662	1	10	n/a	n/a	1	51	1
1609.2162	1	21	n/a	n/a	1	51	0
1610.4328	1	10	n/a	n/a	1	51	1
1611.4994	1	10	n/a	n/a	1	51	2
1612.5328	1	81	n/a	n/a	1	0	0
1612.7328	1	81	n/a	n/a	1	0	0
1612.9328	1	81	n/a	n/a	1	0	0
1613.1328	1	81	n/a	n/a	1	0	0
1613.3328	1	81	n/a	n/a	1	0	0
1613.5328	1	81	n/a	n/a	1	0	0
1613.7328	1	81	n/a	n/a	1	0	0
1613.9328	1	81	n/a	n/a	1	0	0
1614.1328	1	81	n/a	n/a	1	0	0
1614.3328	1	81	n/a	n/a	1	0	0
1615.7324	1	10	n/a	n/a	1	51	1
1617.049	1	10	n/a	n/a	1	51	2
1618.1656	1	10	n/a	n/a	1	51	3
1619.3156	1	10	n/a	n/a	1	51	4
1620.3654	1	10	n/a	n/a	1	51	5
1621.6488	1	10	n/a	n/a	1	51	6
1622.782	1	10	n/a	n/a	1	51	7
1623.9152	1	21	n/a	n/a	1	51	0
1625.2152	1	10	n/a	n/a	1	51	1
1626.4152	1	10	n/a	n/a	1	51	2
1627.515	1	10	n/a	n/a	1	51	3
1628.815	1	10	n/a	n/a	1	51	4
1629.865	1	10	n/a	n/a	1	51	5
1630.9316	1	10	n/a	n/a	1	51	6
1632.1482	1	10	n/a	n/a	1	51	7
1633.3646	1	21	n/a	n/a	1	51	0
1634.398	1	10	n/a	n/a	1	51	1
1635.4312	1	10	n/a	n/a	1	51	2
1636.5146	1	10	n/a	n/a	1	51	3
1637.7478	1	10	n/a	n/a	1	51	4
1638.4722	1	81	n/a	n/a	1	0	0
1638.6722	1	81	n/a	n/a	1	0	0
1638.8722	1	81	n/a	n/a	1	0	0
1639.0722	1	81	n/a	n/a	1	0	0
1639.2722	1	81	n/a	n/a	1	0	0
1639.4722	1	81	n/a	n/a	1	0	0
1639.6722	1	81	n/a	n/a	1	0	0
1639.8722	1	81	n/a	n/a	1	0	0
1640.0722	1	81	n/a	n/a	1	0	0
1640.2722	1	81	n/a	n/a	1	0	0
1641.3976	1	10	n/a	n/a	1	51	1
1642.4974	1	10	n/a	n/a	1	51	2
1643.6808	1	10	n/a	n/a	1	51	3
1644.864	1	21	n/a	n/a	1	51	0
1646.064	1	10	n/a	n/a	1	51	1
1647.1138	1	10	n/a	n/a	1	51	2
1648.3304	1	10	n/a	n/a	1	51	3
1649.547	1	21	n/a	n/a	1	51	0
1650.847	1	10	n/a	n/a	1	51	1
1652.1136	1	10	n/a	n/a	1	51	2
1653.1636	1	10	n/a	n/a	1	51	3
1654.2968	1	10	n/a	n/a	1	51	4
1655.6134	1	10	n/a	n/a	1	51	5
1656.93	1	21	n/a	n/a	1	51	0
1658.1466	1	10	n/a	n/a	1	51	1
1659.3632	1	10	n/a	n/a	1	51	2
1660.4632	1	10	n/a	n/a	1	51	3
1661.563	1	21	n/a	n/a	1	51	0
1662.663	1	10	n/a	n/a	1	51	1
1663.8462	1	10	n/a	n/a	1	51	2
1664.891	1	81	n/a	n/a	1	0	0
1665.0908	1	81	n/a	n/a	1	0	0
1665.2908	1	81	n/a	n/a	1	0	0
1665.4908	1	81	n/a	n/a	1	0	0
1665.6908	1	81	n/a	n/a	1	0	0
1665.891	1	81	n/a	n/a	1	0	0
1666.091	1	81	n/a	n/a	1	0	0
1666.291	1	81	n/a	n/a	1	0	0
1666.491	1	81	n/a	n/a	1	0	0
1666.691	1	81	n/a	n/a	1	0	0
1668.0794	1	10	n/a	n/a	1	51	1
1669.2626	1	10	n/a	n/a	1	51	2
1670.4126	1	10	n/a	n/a	1	51	3
1671.6292	1	10	n/a	n/a	1	51	4
1672.8958	1	10	n/a	n/a	1	51	5
1673.929	1	10	n/a	n/a	1	51	6
1675.2456	1	10	n/a	n/a	1	51	7
1676.5622	1	21	n/a	n/a	1	51	0
1677.862	1	10	n/a	n/a	1	51	1
1678.9786	1	10	n/a	n/a	1	51	2
1680.1452	1	10	n/a	n/a	1	51	3
1681.3118	1	10	n/a	n/a	1	51	4
1682.3452	1	10	n/a	n/a	1	51	5
1683.5284	1	10	n/a	n/a	1	51	6
1684.5784	1	10	n/a	n/a	1	51	7
1685.6616	1	21	n/a	n/a	1	51	0
1686.9448	1	10	n/a	n/a	1	51	1
1688.0114	1	10	n/a	n/a	1	51	2
1689.178	1	10	n/a	n/a	1	51	3
1690.2614	1	10	n/a	n/a	1	51	4
1710.4626	1	81	n/a	n/a	1	0	0
1710.6626	1	81	n/a	n/a	1	0	0
1710.8626	1	81	n/a	n/a	1	0	0
1711.0626	1	81	n/a	n/a	1	0	0
1711.2626	1	81	n/a	n/a	1	0	0
1711.4626	1	81	n/a	n/a	1	0	0
1711.6626	1	81	n/a	n/a	1	0	0
1711.8626	1	81	n/a	n/a	1	0	0
1712.0626	1	81	n/a	n/a	1	0	0
1712.2626	1	81	n/a	n/a	1	0	0
1713.41	1	10	n/a	n/a	1	50	1
1714.46	1	21	n/a	n/a	1	50	0
1715.7598	1	10	n/a	n/a	1	50	1
1716.8764	1	10	n/a	n/a	1	50	2
1718.143	1	10	n/a	n/a	1	50	3
1719.4596	1	10	n/a	n/a	1	50	4
1720.593	1	10	n/a	n/a	1	50	5
1721.7094	1	10	n/a	n/a	1	50	6
1722.8928	1	10	n/a	n/a	1	50	7
1724.076	1	21	n/a	n/a	1	50	0
1725.226	1	10	n/a	n/a	1	50	1
1726.3758	1	21	n/a	n/a	1	50	0
1727.6592	1	10	n/a	n/a	1	50	1
1728.9424	1	21	n/a	n/a	1	50	0
1730.1424	1	10	n/a	n/a	1	50	1
1731.3922	1	10	n/a	n/a	1	50	2
1732.6088	1	10	n/a	n/a	1	50	3
1733.8254	1	21	n/a	n/a	1	50	0
1735.0254	1	10	n/a	n/a	1	50	1
1736.1086	1	10	n/a	n/a	1	50	2
1737.072	1	81	n/a	n/a	1	0	0
1737.272	1	81	n/a	n/a	1	0	0
1737.472	1	81	n/a	n/a	1	0	0
1737.672	1	81	n/a	n/a	1	0	0
1737.872	1	81	n/a	n/a	1	0	0
1738.072	1	81	n/a	n/a	1	0	0
1738.272	1	81	n/a	n/a	1	0	0
1738.472	1	81	n/a	n/a	1	0	0
1738.672	1	81	n/a	n/a	1	0	0
1738.872	1	81	n/a	n/a	1	0	0
1739.9918	1	10	n/a	n/a	1	50	1
1741.225	1	10	n/a	n/a	1	50	2
1742.4916	1	10	n/a	n/a	1	50	3
1743.7582	1	21	n/a	n/a	1	50	0
1744.9414	1	10	n/a	n/a	1	50	1
1746.2248	1	10	n/a	n/a	1	50	2
1747.558	1	10	n/a	n/a	1	50	3
1748.8912	1	10	n/a	n/a	1	50	4
1750.1578	1	10	n/a	n/a	1	50	5
1751.4244	1	21	n/a	n/a	1	50	0
1752.6244	1	10	n/a	n/a	1	50	1
1753.9242	1	10	n/a	n/a	1	50	2
1755.2076	1	10	n/a	n/a	1	50	3
1756.2574	1	10	n/a	n/a	1	50	4
1757.5408	1	10	n/a	n/a	1	50	5
1758.824	1	21	n/a	n/a	1	50	0
1759.874	1	10	n/a	n/a	1	50	1
1761.0072	1	10	n/a	n/a	1	50	2
1762.0404	1	10	n/a	n/a	1	50	3
1763.1404	1	10	n/a	n/a	1	50	4
1763.9908	1	81	n/a	n/a	1	0	0
1764.1908	1	81	n/a	n/a	1	0	0
1764.3908	1	81	n/a	n/a	1	0	0
1764.5908	1	81	n/a	n/a	1	0	0
1764.7908	1	81	n/a	n/a	1	0	0
1764.9908	1	81	n/a	n/a	1	0	0
1765.1908	1	81	n/a	n/a	1	0	0
1765.3908	1	81	n/a	n/a	1	0	0
1765.5908	1	81	n/a	n/a	1	0	0
1765.7908	1	81	n/a	n/a	1	0	0
1767.0234	1	10	n/a	n/a	1	50	1
1768.1568	1	21	n/a	n/a	1	50	0
1769.39	1	10	n/a	n/a	1	50	1
1770.4732	1	10	n/a	n/a	1	50	2
1771.5232	1	10	n/a	n/a	1	50	3
1772.5732	1	21	n/a	n/a	1	50	0
1773.7564	1	10	n/a	n/a	1	50	1
1775.073	1	10	n/a	n/a	1	50	2
1776.3562	1	10	n/a	n/a	1	50	3
1777.5728	1	10	n/a	n/a	1	50	4
1778.8728	1	10	n/a	n/a	1	50	5
1780.1728	1	21	n/a	n/a	1	50	0
1781.3726	1	10	n/a	n/a	1	50	1
1782.5726	1	21	n/a	n/a	1	50	0
1783.6726	1	10	n/a	n/a	1	50	1
1784.7724	1	21	n/a	n/a	1	50	0
1785.9724	1	10	n/a	n/a	1	50	1
1787.1224	1	10	n/a	n/a	1	50	2
1788.3056	1	10	n/a	n/a	1	50	3
1789.4888	1	21	n/a	n/a	1	50	0
1790.5636	1	81	n/a	n/a	1	0	0
1790.7634	1	81	n/a	n/a	1	0	0
1790.9634	1	81	n/a	n/a	1	0	0
1791.1634	1	81	n/a	n/a	1	0	0
1791.3634	1	81	n/a	n/a	1	0	0
1791.5636	1	81	n/a	n/a	1	0	0
1791.7636	1	81	n/a	n/a	1	0	0
1791.9636	1	81	n/a	n/a	1	0	0
1792.1636	1	81	n/a	n/a	1	0	0
1792.3636	1	81	n/a	n/a	1	0	0
1793.5886	1	10	n/a	n/a	1	50	1
1794.7386	1	10	n/a	n/a	1	50	2
1795.8552	1	10	n/a	n/a	1	50	3
1797.105	1	10	n/a	n/a	1	50	4
1798.2884	1	10	n/a	n/a	1	50	5
1799.5716	1	10	n/a	n/a	1	50	6
1800.7548	1	10	n/a	n/a	1	50	7
1801.9382	1	21	n/a	n/a	1	50	0
1803.0214	1	10	n/a	n/a	1	50	1
1804.1214	1	21	n/a	n/a	1	50	0
1805.2712	1	10	n/a	n/a	1	50	1
1806.4212	1	21	n/a	n/a	1	50	0
1807.7378	1	10	n/a	n/a	1	50	1
1808.9876	1	10	n/a	n/a	1	50	2
1810.2376	1	10	n/a	n/a	1	50	3
1811.4876	1	21	n/a	n/a	1	50	0
1812.6042	1	10	n/a	n/a	1	50	1
1813.7208	1	10	n/a	n/a	1	50	2
1814.954	1	10	n/a	n/a	1	50	3
1816.2372	1	10	n/a	n/a	1	50	4
1817.1056	1	81	n/a	n/a	1	0	0
1817.3056	1	81	n/a	n/a	1	0	0
1817.5056	1	81	n/a	n/a	1	0	0
1817.7056	1	81	n/a	n/a	1	0	0
1817.9056	1	81	n/a	n/a	1	0	0
1818.1056	1	81	n/a	n/a	1	0	0
1818.3056	1	81	n/a	n/a	1	0	0
1818.5056	1	81	n/a	n/a	1	0	0
1818.7056	1	81	n/a	n/a	1	0	0
1818.9056	1	81	n/a	n/a	1	0	0
1820.187	1	10	n/a	n/a	1	50	1
1821.287	1	10	n/a	n/a	1	50	2
1822.4702	1	10	n/a	n/a	1	50	3
1823.5536	1	10	n/a	n/a	1	50	4
1824.87	1	10	n/a	n/a	1	50	5
1826.1866	1	21	n/a	n/a	1	50	0
1827.3032	1	10	n/a	n/a	1	50	1
1828.4198	1	10	n/a	n/a	1	50	2
1829.5698	1	10	n/a	n/a	1	50	3
1830.7198	1	21	n/a	n/a	1	50	0
1831.953	1	10	n/a	n/a	1	50	1
1833.103	1	10	n/a	n/a	1	50	2
1834.3362	1	10	n/a	n/a	1	50	3
1835.5194	1	21	n/a	n/a	1	50	0
1836.5694	1	10	n/a	n/a	1	50	1
1837.8526	1	10	n/a	n/a	1	50	2
1839.0526	1	10	n/a	n/a	1	50	3
1840.2526	1	21	n/a	n/a	1	50	0
1841.5692	1	10	n/a	n/a	1	50	1
1842.7358	1	10	n/a	n/a	1	50	2
1864.3218	1	82	n/a	n/a	1	0	0
1864.4968	1	82	n/a	n/a	1	0	0
1864.7478	1	82	n/a	n/a	1	0	0
1865.0358	1	82	n/a	n/a	1	0	0
1865.0578	1	82	n/a	n/a	1	0	0
1865.3218	1	82	n/a	n/a	1	0	0
1865.6528	1	82	n/a	n/a	1	0	0
1865.6808	1	82	n/a	n/a	1	0	0
1865.8068	1	82	n/a	n/a	1	0	0
1866.1988	1	82	n/a	n/a	1	0	0
1867.2676	1	10	n/a	n/a	1	52	1
1868.4842	1	10	n/a	n/a	1	52	2
1869.5508	1	10	n/a	n/a	1	52	3
1870.6174	1	21	n/a	n/a	1	52	0
1871.8006	1	10	n/a	n/a	1	52	1
1873.1006	1	10	n/a	n/a	1	52	2
1874.3506	1	10	n/a	n/a	1	52	3
1875.4504	1	10	n/a	n/a	1	52	4
1876.6004	1	10	n/a	n/a	1	52	5
1877.7504	1	10	n/a	n/a	1	52	6
1879.0502	1	10	n/a	n/a	1	52	7
1880.3502	1	21	n/a	n/a	1	52	0
1881.4834	1	10	n/a	n/a	1	52	1
1882.5666	1	10	n/a	n/a	1	52	2
1883.6334	1	10	n/a	n/a	1	52	3
1884.7	1	10	n/a	n/a	1	52	4
1885.9998	1	10	n/a	n/a	1	52	5
1887.2998	1	21	n/a	n/a	1	52	0
1888.4496	1	10	n/a	n/a	1	52	1
1889.6996	1	10	n/a	n/a	1	52	2
1890.656	1	82	n/a	n/a	1	0	0
1891.058	1	82	n/a	n/a	1	0	0
1891.165	1	82	n/a	n/a	1	0	0
1891.438	1	82	n/a	n/a	1	0	0
1891.496	1	82	n/a	n/a	1	0	0
1891.656	1	82	n/a	n/a	1	0	0
1891.685	1	82	n/a	n/a	1	0	0
1891.844	1	82	n/a	n/a	1	0	0
1891.928	1	82	n/a	n/a	1	0	0
1891.985	1	82	n/a	n/a	1	0	0
1893.6994	1	10	n/a	n/a	1	52	1
1894.7826	1	10	n/a	n/a	1	52	2
1895.8826	1	10	n/a	n/a	1	52	3
1896.9826	1	21	n/a	n/a	1	52	0
1898.1658	1	10	n/a	n/a	1	52	1
1899.4158	1	10	n/a	n/a	1	52	2
1900.5156	1	10	n/a	n/a	1	52	3
1901.6156	1	21	n/a	n/a	1	52	0
1902.7988	1	10	n/a	n/a	1	52	1
1903.9988	1	10	n/a	n/a	1	52	2
1905.2654	1	10	n/a	n/a	1	52	3
1906.2986	1	10	n/a	n/a	1	52	4
1907.3986	1	10	n/a	n/a	1	52	5
1908.4986	1	21	n/a	n/a	1	52	0
1909.5484	1	10	n/a	n/a	1	52	1
1910.5984	1	21	n/a	n/a	1	52	0
1911.8316	1	10	n/a	n/a	1	52	1
1912.8982	1	10	n/a	n/a	1	52	2
1913.9316	1	10	n/a	n/a	1	52	3
1915.1982	1	10	n/a	n/a	1	52	4
1916.2556	1	82	n/a	n/a	1	0	0
1916.4316	1	82	n/a	n/a	1	0	0
1916.8626	1	82	n/a	n/a	1	0	0
1917.1646	1	82	n/a	n/a	1	0	0
1917.2186	1	82	n/a	n/a	1	0	0
1917.2556	1	82	n/a	n/a	1	0	0
1917.5146	1	82	n/a	n/a	1	0	0
1917.6506	1	82	n/a	n/a	1	0	0
1917.8746	1	82	n/a	n/a	1	0	0
1917.9646	1	82	n/a	n/a	1	0	0
1919.3312	1	10	n/a	n/a	1	52	1
1920.4978	1	10	n/a	n/a	1	52	2
1921.7144	1	10	n/a	n/a	1	52	3
1922.8644	1	10	n/a	n/a	1	52	4
1924.1642	1	10	n/a	n/a	1	52	5
1925.4642	1	21	n/a	n/a	1	52	0
1926.7808	1	10	n/a	n/a	1	52	1
1928.0974	1	21	n/a	n/a	1	52	0
1929.2306	1	10	n/a	n/a	1	52	1
1930.3472	1	10	n/a	n/a	1	52	2
1931.5972	1	10	n/a	n/a	1	52	3
1932.647	1	10	n/a	n/a	1	52	4
1933.947	1	10	n/a	n/a	1	52	5
1935.247	1	21	n/a	n/a	1	52	0
1936.3636	1	10	n/a	n/a	1	52	1
1937.4802	1	21	n/a	n/a	1	52	0
1938.58	1	10	n/a	n/a	1	52	1
1939.68	1	21	n/a	n/a	1	52	0
1940.98	1	10	n/a	n/a	1	52	1
1942.0298	1	10	n/a	n/a	1	52	2
1942.7854	1	82	n/a	n/a	1	0	0
1943.1364	1	82	n/a	n/a	1	0	0
1943.4324	1	82	n/a	n/a	1	0	0
1943.6322	1	82	n/a	n/a	1	0	0
1943.6932	1	82	n/a	n/a	1	0	0
1943.7854	1	82	n/a	n/a	1	0	0
1944.1224	1	82	n/a	n/a	1	0	0
1944.1774	1	82	n/a	n/a	1	0	0
1944.4424	1	82	n/a	n/a	1	0	0
1944.4744	1	82	n/a	n/a	1	0	0
1945.8964	1	10	n/a	n/a	1	52	1
1947.113	1	21	n/a	n/a	1	52	0
1948.3128	1	10	n/a	n/a	1	52	1
1949.5128	1	21	n/a	n/a	1	52	0
1950.6294	1	10	n/a	n/a	1	52	1
1951.796	1	10	n/a	n/a	1	52	2
1952.8626	1	10	n/a	n/a	1	52	3
1953.9958	1	10	n/a	n/a	1	52	4
1955.1458	1	10	n/a	n/a	1	52	5
1956.2956	1	21	n/a	n/a	1	52	0
1957.5622	1	10	n/a	n/a	1	52	1
1958.6622	1	10	n/a	n/a	1	52	2
1959.8454	1	10	n/a	n/a	1	52	3
1961.0288	1	21	n/a	n/a	1	52	0
1962.3454	1	10	n/a	n/a	1	52	1
1963.5786	1	10	n/a	n/a	1	52	2
1964.6452	1	10	n/a	n/a	1	52	3
1965.8952	1	10	n/a	n/a	1	52	4
1967.0618	1	10	n/a	n/a	1	52	5
1968.2284	1	21	n/a	n/a	1	52	0
1969.184	1	82	n/a	n/a	1	0	0
1969.23	1	82	n/a	n/a	1	0	0
1969.451	1	82	n/a	n/a	1	0	0
1969.849	1	82	n/a	n/a	1	0	0
1969.987	1	82	n/a	n/a	1	0	0
1970.184	1	82	n/a	n/a	1	0	0
1970.539	1	82	n/a	n/a	1	0	0
1970.592	1	82	n/a	n/a	1	0	0
1970.818	1	82	n/a	n/a	1	0	0
1970.97	1	82	n/a	n/a	1	0	0
1972.228	1	10	n/a	n/a	1	52	1
1973.278	1	10	n/a	n/a	1	52	2
1974.328	1	10	n/a	n/a	1	52	3
1975.378	1	21	n/a	n/a	1	52	0
1976.5278	1	10	n/a	n/a	1	52	1
1977.6112	1	10	n/a	n/a	1	52	2
1978.911	1	10	n/a	n/a	1	52	3
1980.1776	1	10	n/a	n/a	1	52	4
1981.4942	1	10	n/a	n/a	1	52	5
1982.8108	1	21	n/a	n/a	1	52	0
1983.8608	1	10	n/a	n/a	1	52	1
1984.894	1	10	n/a	n/a	1	52	2
1986.094	1	10	n/a	n/a	1	52	3
1987.2938	1	10	n/a	n/a	1	52	4
1988.5604	1	10	n/a	n/a	1	52	5
1989.827	1	21	n/a	n/a	1	52	0
1991.1604	1	10	n/a	n/a	1	52	1
1992.2936	1	10	n/a	n/a	1	52	2
1993.5268	1	10	n/a	n/a	1	52	3
1994.6102	1	10	n/a	n/a	1	52	4
