onset	duration	value	response	rt	good	Acu	estim	trial
8.0696	1	11	3	623	1	1	0 0 3	1
11.1293	1	11	3	362.7	1	1	0 0 3	2
13.8731	1	11	2	411.2	1	1	0 2 0	3
17.5648	1	11	3	383	1	1	0 0 3	4
21.0236	1	11	1	434.7	1	1	1 0 0	5
23.069	1	12	3	629.9	1	0	3 3 1	1
26.0955	1	12	2	503	1	0	1 3 1	2
29.5377	1	12	2	746.2	1	0	2 1 2	3
32.3812	1	12	3	698.9	1	1	2 3 2	4
35.9399	1	12	1	507.4	1	1	3 3 1	5
39.6648	1	12	3	719.2	1	1	3 1 1	6
41.9429	1	11	2	442.8	1	1	0 2 0	1
44.8863	1	11	2	423.9	1	1	0 2 0	2
47.7798	1	11	1	409.7	1	1	1 0 0	3
51.5213	1	11	2	454.9	1	1	0 2 0	4
54.8471	1	11	1	404.1	1	1	1 0 0	5
57.9734	1	11	2	388.7	1	1	0 2 0	6
61.665	1	11	1	376.6	1	1	1 0 0	7
64.7913	1	11	2	434.8	1	1	0 2 0	8
68.6492	1	12	1	741.1	1	1	3 1 3	1
71.0604	1	12	1	561.7	1	1	3 3 1	2
73.8042	1	12	1	778.6	1	0	2 3 3	3
75.9826	1	11	1	386.5	1	1	1 0 0	1
79.3084	1	11	3	427.6	1	1	0 0 3	2
83.1165	1	11	3	451.1	1	1	0 0 3	3
86.1929	1	11	1	375.4	1	1	1 0 0	4
89.9344	1	11	2	371.5	1	1	0 2 0	5
93.7258	1	11	1	378.8	1	1	1 0 0	6
95.6548	1	11	2	405	1	1	0 2 0	7
97.5505	1	12	3	923.4	1	1	1 3 1	1
101.4085	1	12	1	984	1	0	2 1 1	2
103.537	1	12	2	643.8	1	1	1 1 2	3
107.079	1	12	2	486.9	1	1	2 1 1	4
110.4048	1	11	2	413.9	1	1	0 2 0	1
112.3504	1	11	1	377.5	1	1	1 0 0	2
115.9921	1	11	2	419.6	1	1	0 2 0	3
119.717	1	11	2	374.1	1	1	0 2 0	4
122.3278	1	11	2	427.7	1	1	0 2 0	5
125.9696	1	11	3	397.9	1	1	0 0 3	6
128.7134	1	11	1	397.6	1	1	1 0 0	7
131.6899	1	11	3	420.6	1	1	0 0 3	8
133.6522	1	12	3	882.5	1	1	3 1 1	1
136.6288	1	12	1	855.1	1	0	2 3 3	2
139.5721	1	12	1	604.3	1	0	1 1 2	3
143.1141	1	12	2	637.6	1	1	1 1 2	4
146.0741	1	12	3	533.3	1	1	3 1 1	5
148.3855	1	11	2	459.4	1	1	0 2 0	1
150.3976	1	11	2	419.7	1	1	0 2 0	2
153.3909	1	11	3	439.1	1	1	0 0 3	3
155.3531	1	12	1	584.6	1	1	2 2 1	1
158.1302	1	12	2	632.9	1	1	2 1 1	2
161.6389	1	12	2	891.8	1	1	3 3 2	3
163.7674	1	12	3	952	1	1	1 3 1	4
166.4779	1	12	2	760.5	1	1	2 3 3	5
169.388	1	12	1	694.7	1	0	3 1 1	6
171.2585	1	11	3	486.3	1	1	0 0 3	1
173.5619	1	11	3	364.7	1	1	0 0 3	2
175.9399	1	11	3	437.5	1	1	0 0 3	3
179.6149	1	11	1	432.8	1	1	1 0 0	4
181.6769	1	11	1	368.4	1	1	1 0 0	5
185.0526	1	11	2	479.8	1	1	0 2 0	6
187.6467	1	11	3	456	1	1	0 0 3	7
190.8728	1	12	2	873.2	1	1	2 1 1	1
193.8494	1	12	3	623.1	1	1	2 3 2	2
196.4102	1	12	3	559.2	1	1	3 2 2	3
199.021	1	12	3	529.7	1	1	3 1 1	4
202.6295	1	11	3	411.4	1	1	0 0 3	1
206.4043	1	11	2	394.1	1	1	0 2 0	2
209.4142	1	11	1	382.9	1	1	1 0 0	3
213.0725	1	11	2	411	1	1	0 2 0	4
215.1345	1	11	1	448.6	1	1	1 0 0	5
218.7597	1	12	3	502.7	1	1	3 1 1	1
220.9381	1	12	1	485	1	1	3 3 1	2
224.7461	1	12	2	565.8	1	1	2 1 1	3
227.4567	1	11	3	405.2	1	1	0 0 3	1
230.5164	1	11	1	374.2	1	1	1 0 0	2
232.9609	1	11	2	394.7	1	1	0 2 0	3
235.5218	1	11	3	331	1	1	0 0 3	4
237.5505	1	12	1	933.3	1	1	2 1 2	1
241.3253	1	12	3	445.6	1	1	1 3 1	2
243.2377	1	12	1	558.7	1	1	3 3 1	3
245.6821	1	12	2	541.2	1	0	3 1 3	4
248.4425	1	12	2	617.1	1	1	1 1 2	5
251.8183	1	12	3	531.5	1	1	3 1 1	6
254.1962	1	11	1	398.2	1	1	1 0 0	1
257.1063	1	11	1	371.7	1	1	1 0 0	2
260.166	1	11	1	348.5	1	1	1 0 0	3
263.3588	1	11	3	387.9	1	1	0 0 3	4
266.4851	1	11	3	400.1	1	1	0 0 3	5
269.9273	1	11	2	400.1	1	1	0 2 0	6
272.854	1	11	2	380.1	1	1	0 2 0	7
276.1964	1	12	3	598.1	1	1	2 3 2	1
278.5744	1	12	1	750	1	0	2 1 1	2
282.2827	1	12	2	631.2	1	1	1 1 2	3
284.5442	1	12	2	438.1	1	1	1 1 2	4
288.1028	1	12	2	385.9	1	1	1 1 2	5
291.0129	1	12	3	456.4	1	0	2 3 3	6
294.239	1	12	1	628.4	1	1	2 1 2	7
297.598	1	12	1	541.4	1	1	3 3 1	8
299.9095	1	11	1	437.6	1	1	1 0 0	1
303.5512	1	11	3	368.2	1	1	0 0 3	2
306.7939	1	11	1	391.4	1	1	1 0 0	3
309.7871	1	11	1	379.7	1	1	1 0 0	4
313.2626	1	11	3	369.5	1	1	0 0 3	5
315.2248	1	12	2	826.2	1	0	3 2 2	1
317.1372	1	12	1	582.8	1	1	3 1 3	2
319.6648	1	12	2	630.5	1	0	1 3 1	3
321.9762	1	12	2	546.8	1	1	1 1 2	4
324.5205	1	12	3	598.7	1	1	3 1 1	5
327.8297	1	12	2	608.5	1	1	3 3 2	6
330.0912	1	12	3	668.7	1	0	2 1 1	7
332.3528	1	12	2	653.9	1	0	3 1 3	8
334.8637	1	11	2	505.8	1	1	0 2 0	1
338.3891	1	11	2	410.7	1	1	0 2 0	2
340.5675	1	11	2	433	1	1	0 2 0	3
343.2448	1	12	3	620.2	1	1	2 3 2	1
346.2879	1	12	3	591.8	1	1	3 2 2	2
349.1481	1	12	2	1070.5	1	1	1 1 2	3
351.9252	1	12	2	896.5	1	1	2 1 1	4
355.3175	1	12	1	628	1	0	2 3 3	5
357.5624	1	12	1	669	1	0	2 1 1	6
360.7884	1	12	3	611.6	1	1	3 2 2	7
363.4823	1	11	1	383.9	1	1	1 0 0	1
366.9246	1	11	2	400.1	1	1	0 2 0	2
370.3169	1	11	3	403.8	1	1	0 0 3	3
372.9609	1	11	2	440.8	1	1	0 2 0	4
376.7856	1	11	1	392.8	1	1	1 0 0	5
380.3442	1	11	2	383.4	1	1	0 2 0	6
384.0192	1	12	2	772.5	1	1	2 3 3	1
387.4947	1	12	3	531.7	1	0	2 3 3	2
390.6875	1	12	2	606.9	1	1	2 1 1	3
393.7472	1	12	2	522.8	1	1	2 3 3	4
396.1252	1	11	2	441.6	1	1	0 2 0	1
398.8523	1	11	1	334.7	1	1	1 0 0	2
400.8811	1	11	1	472.6	1	1	1 0 0	3
404.0406	1	12	2	639.2	1	1	3 3 2	1
407.1336	1	12	2	596.9	1	1	2 3 3	2
409.2455	1	12	2	527.2	1	1	2 1 1	3
411.1578	1	12	1	578.5	1	1	3 3 1	4
413.6688	1	12	2	795	1	0	1 3 1	5
416.845	1	11	3	656.3	1	1	0 0 3	1
419.1232	1	11	3	393.9	1	1	0 0 3	2
421.9501	1	11	1	478.3	1	1	1 0 0	3
425.6584	1	11	1	354.1	1	1	1 0 0	4
428.5186	1	12	1	939.3	1	1	2 1 2	1
431.0462	1	12	2	870	1	0	2 3 2	2
433.9729	1	12	3	546	1	1	3 2 2	3
436.3675	1	12	2	522.4	1	0	2 1 2	4
440.0592	1	12	1	485.1	1	0	2 3 3	5
443.069	1	12	1	449.8	1	1	2 1 2	6
446.3616	1	11	3	414.5	1	1	0 0 3	1
449.0056	1	11	3	397.4	1	1	0 0 3	2
452.1651	1	11	1	312.8	1	1	1 0 0	3
455.7071	1	11	1	365.2	1	1	1 0 0	4
458.534	1	11	2	335.4	1	1	0 2 0	5
460.9951	1	11	3	338.4	1	1	0 0 3	6
464.4207	1	11	1	323	1	1	1 0 0	7
468.1456	1	11	3	380.7	1	1	0 0 3	8
471.7874	1	12	3	915.1	1	1	3 1 1	1
475.4292	1	12	2	527.2	1	0	2 3 2	2
477.7073	1	12	3	434.6	1	1	3 2 2	3
481.2659	1	12	3	817	1	1	3 1 1	4
483.5774	1	12	1	527.9	1	1	2 2 1	5
487.2358	1	12	1	438.8	1	1	3 1 3	6
489.5805	1	12	2	593.2	1	1	3 3 2	7
492.5404	1	11	2	499.8	1	1	0 2 0	1
495.6002	1	11	3	393.6	1	1	0 0 3	2
499.0424	1	11	2	443.6	1	1	0 2 0	3
501.1543	1	11	3	469.2	1	1	0 0 3	4
503.8482	1	11	3	385.4	1	1	0 0 3	5
505.9601	1	11	1	438.1	1	1	1 0 0	6
509.0531	1	11	1	352.9	1	0	0 2 0	7
511.3479	1	12	2	863.4	1	1	3 3 2	1
514.4575	1	12	2	405.2	1	0	3 1 3	2
516.6858	1	12	2	688.9	1	1	2 3 3	3
519.8454	1	12	1	488	1	1	2 1 2	4
523.2377	1	12	3	533.8	1	0	1 1 2	5
525.9316	1	12	2	1011.6	1	1	1 1 2	6
528.0269	1	11	3	444.3	1	1	0 0 3	1
530.8205	1	11	3	419.1	1	1	0 0 3	2
533.7639	1	11	2	394.2	1	1	0 2 0	3
537.4389	1	12	1	419.6	1	0	3 1 1	1
541.3135	1	12	2	553	1	0	3 2 2	2
543.8743	1	12	2	963.9	1	1	1 1 2	3
545.9031	1	12	3	685	1	1	3 1 1	4
549.0792	1	12	3	635.9	1	1	3 2 2	5
550.9749	1	12	1	520.3	1	1	3 3 1	6
553.303	1	12	1	420.8	1	1	3 3 1	7
555.5147	1	12	2	987.6	1	0	2 3 2	8
558.3084	1	11	3	495.6	1	1	0 0 3	1
561.8005	1	11	2	373.7	1	1	0 2 0	2
564.5609	1	11	1	396.5	1	1	1 0 0	3
566.9887	1	11	3	397.6	1	1	0 0 3	4
569.3168	1	11	2	385.4	1	1	0 2 0	5
572.2269	1	12	3	939.5	1	1	1 3 1	1
575.2534	1	12	2	1034.7	1	0	3 1 3	2
578.7288	1	12	2	835.5	1	1	1 1 2	3
582.4537	1	12	1	597.6	1	1	3 1 3	4
586.1121	1	11	3	409.5	1	1	0 0 3	1
588.3737	1	11	2	391.6	1	1	0 2 0	2
592.0155	1	11	3	436.3	1	1	0 0 3	3
595.1916	1	11	1	365	1	1	1 0 0	4
598.9165	1	12	3	1061.5	1	1	2 3 2	1
600.9951	1	12	1	453.4	1	1	3 3 1	2
604.8032	1	12	2	465.1	1	0	2 1 2	3
608.0791	1	12	2	648.5	1	1	2 3 3	4
610.058	1	12	1	509.8	1	1	3 1 3	5
612.12	1	11	2	422.4	1	1	0 2 0	1
615.4125	1	11	1	382.6	1	1	1 0 0	2
618.8215	1	11	1	382.8	1	1	1 0 0	3
621.5154	1	11	3	413.2	1	1	0 0 3	4
625.3401	1	11	3	418.2	1	1	0 0 3	5
628.0672	1	11	1	381.5	1	1	1 0 0	6
630.811	1	11	3	392.9	1	1	0 0 3	7
632.7733	1	11	3	504	1	1	0 0 3	8
635.118	1	12	1	688.4	1	0	1 1 2	1
638.3274	1	12	2	604.9	1	1	2 1 1	2
641.7529	1	12	1	468.3	1	0	2 3 3	3
643.8815	1	11	1	402.4	1	1	1 0 0	1
645.9934	1	11	3	368.3	1	1	0 0 3	2
649.6684	1	11	1	382.5	1	1	1 0 0	3
653.2603	1	11	2	404.8	1	1	0 2 0	4
657.0517	1	11	2	369.3	1	1	0 2 0	5
660.3775	1	11	3	365.4	1	1	0 0 3	6
663.088	1	12	2	806.4	1	0	2 3 2	1
664.9671	1	12	3	952	1	0	1 1 2	2
667.1289	1	12	3	729.7	1	1	1 3 1	3
670.3715	1	12	2	851	1	1	1 1 2	4
673.7639	1	12	2	789.5	1	0	1 3 1	5
676.0254	1	12	2	696.8	1	1	3 3 2	6
679.0519	1	12	3	785.1	1	1	2 3 2	7
682.8766	1	11	1	428.9	1	1	1 0 0	1
684.7458	1	11	2	453.6	1	1	0 2 0	2
687.3498	1	11	2	348.6	1	1	0 2 0	3
690.2599	1	11	3	360.1	1	1	0 0 3	4
693.4028	1	11	1	380.3	1	1	1 0 0	5
696.7286	1	11	1	341.3	1	1	1 0 0	6
699.5722	1	12	2	637.4	1	1	2 3 3	1
702.1497	1	12	1	585.1	1	1	3 3 1	2
704.4611	1	12	2	603.6	1	0	3 1 1	3
706.7227	1	12	2	497.6	1	1	2 1 1	4
708.768	1	12	2	617.9	1	1	3 3 2	5
710.83	1	11	2	452.1	1	1	0 2 0	1
714.4386	1	11	1	401.9	1	1	1 0 0	2
717.3653	1	11	3	355.5	1	1	0 0 3	3
720.1091	1	11	1	475.4	1	1	1 0 0	4
723.1023	1	11	3	354.8	1	1	0 0 3	5
725.9625	1	11	3	420.1	1	1	0 0 3	6
728.8227	1	11	1	384.3	1	1	1 0 0	7
730.9346	1	12	3	874.3	1	1	3 1 1	1
733.6118	1	12	2	862.5	1	0	1 3 1	2
736.655	1	12	1	548.6	1	1	2 2 1	3
738.717	1	11	1	498.2	1	1	1 0 0	1
742.1259	1	11	1	412.1	1	1	1 0 0	2
744.8697	1	11	1	374	1	1	1 0 0	3
747.863	1	11	1	364.2	1	1	1 0 0	4
751.2885	1	11	2	419.7	1	1	0 2 0	5
753.8827	1	11	2	431.9	1	1	0 2 0	6
757.4247	1	11	1	390.1	1	1	1 0 0	7
760.368	1	11	1	357	1	1	1 0 0	8
763.8269	1	12	2	596.7	1	0	3 1 3	1
766.8201	1	12	3	691.3	1	1	3 2 2	2
768.7823	1	12	2	654.5	1	1	2 3 3	3
772.2578	1	12	1	383	1	1	3 3 1	4
775.3009	1	11	3	421.8	1	1	0 0 3	1
778.3107	1	11	3	404.3	1	1	0 0 3	2
781.9691	1	11	1	370.5	1	1	1 0 0	3
783.9314	1	11	3	457.5	1	1	0 0 3	4
786.0765	1	11	3	75.6	1	0	1 0 0	5
789.419	1	11	2	467.5	1	1	0 2 0	6
791.8302	1	11	1	397.2	1	1	1 0 0	7
794.5906	1	12	1	779.2	1	1	3 3 1	1
798.2324	1	12	2	551.9	1	1	2 3 3	2
800.8764	1	12	1	423.1	1	0	2 3 3	3
804.5181	1	12	1	520	1	0	1 3 1	4
807.4615	1	11	1	423.9	1	1	1 0 0	1
810.4048	1	11	3	420.3	1	1	0 0 3	2
812.7163	1	11	1	389.6	1	1	1 0 0	3
814.6286	1	11	1	445.7	1	1	1 0 0	4
817.7549	1	11	1	403	1	1	1 0 0	5
821.4299	1	12	2	877.3	1	1	1 1 2	1
824.34	1	12	1	557.1	1	1	2 1 2	2
826.2191	1	12	2	617.5	1	1	2 1 1	3
829.3952	1	12	3	762.5	1	1	3 2 2	4
831.2743	1	12	3	454.3	1	1	3 2 2	5
834.1179	1	12	3	434.1	1	1	3 2 2	6
837.9425	1	11	3	526.3	1	1	0 0 3	1
841.3847	1	11	2	351	1	1	0 2 0	2
844.2782	1	11	3	389	1	1	0 0 3	3
847.022	1	11	3	358.6	1	1	0 0 3	4
850.3312	1	11	3	371.3	1	1	0 0 3	5
853.1581	1	11	3	381	1	1	0 0 3	6
856.4507	1	11	3	420.2	1	1	0 0 3	7
859.527	1	11	3	389.8	1	1	0 0 3	8
862.4039	1	12	2	656.7	1	1	2 1 1	1
865.0479	1	12	1	608.9	1	1	2 1 2	2
868.5067	1	12	2	826.5	1	0	1 3 1	3
