onset	duration	value	response	rt	good	TMS	seq
49.5624	1	81	n/a	n/a	1	0	0
49.7624	1	81	n/a	n/a	1	0	0
49.9624	1	81	n/a	n/a	1	0	0
50.1624	1	81	n/a	n/a	1	0	0
50.3624	1	81	n/a	n/a	1	0	0
50.5624	1	81	n/a	n/a	1	0	0
50.7624	1	81	n/a	n/a	1	0	0
50.9624	1	81	n/a	n/a	1	0	0
51.1624	1	81	n/a	n/a	1	0	0
51.3624	1	81	n/a	n/a	1	0	0
52.4846	1	10	n/a	n/a	1	51	1
53.5178	1	21	n/a	n/a	1	51	0
54.7344	1	10	n/a	n/a	1	51	1
55.951	1	21	n/a	n/a	1	51	0
57.0676	1	10	n/a	n/a	1	51	1
58.2676	1	10	n/a	n/a	1	51	2
59.3508	1	10	n/a	n/a	1	51	3
60.4508	1	10	n/a	n/a	1	51	4
61.634	1	10	n/a	n/a	1	51	5
62.9006	1	10	n/a	n/a	1	51	6
64.1672	1	10	n/a	n/a	1	51	7
65.4338	1	21	n/a	n/a	1	51	0
66.717	1	10	n/a	n/a	1	51	1
67.8336	1	10	n/a	n/a	1	51	2
69.0002	1	10	n/a	n/a	1	51	3
70.2834	1	10	n/a	n/a	1	51	4
71.3334	1	10	n/a	n/a	1	51	5
72.45	1	10	n/a	n/a	1	51	6
73.65	1	10	n/a	n/a	1	51	7
74.8498	1	21	n/a	n/a	1	51	0
75.6236	1	81	n/a	n/a	1	0	0
75.8236	1	81	n/a	n/a	1	0	0
76.0236	1	81	n/a	n/a	1	0	0
76.2236	1	81	n/a	n/a	1	0	0
76.4236	1	81	n/a	n/a	1	0	0
76.6236	1	81	n/a	n/a	1	0	0
76.8236	1	81	n/a	n/a	1	0	0
77.0236	1	81	n/a	n/a	1	0	0
77.2236	1	81	n/a	n/a	1	0	0
77.4236	1	81	n/a	n/a	1	0	0
78.6996	1	10	n/a	n/a	1	51	1
79.8662	1	10	n/a	n/a	1	51	2
80.9662	1	10	n/a	n/a	1	51	3
82.0994	1	10	n/a	n/a	1	51	4
83.3494	1	10	n/a	n/a	1	51	5
84.5992	1	21	n/a	n/a	1	51	0
85.8658	1	10	n/a	n/a	1	51	1
87.1158	1	10	n/a	n/a	1	51	2
88.2658	1	10	n/a	n/a	1	51	3
89.4156	1	21	n/a	n/a	1	51	0
90.699	1	10	n/a	n/a	1	51	1
91.9822	1	10	n/a	n/a	1	51	2
93.282	1	10	n/a	n/a	1	51	3
94.4986	1	10	n/a	n/a	1	51	4
95.5652	1	10	n/a	n/a	1	51	5
96.7152	1	10	n/a	n/a	1	51	6
98.0152	1	10	n/a	n/a	1	51	7
99.315	1	21	n/a	n/a	1	51	0
100.365	1	10	n/a	n/a	1	51	1
101.415	1	21	n/a	n/a	1	51	0
102.2986	1	81	n/a	n/a	1	0	0
102.4986	1	81	n/a	n/a	1	0	0
102.6986	1	81	n/a	n/a	1	0	0
102.8986	1	81	n/a	n/a	1	0	0
103.0986	1	81	n/a	n/a	1	0	0
103.2986	1	81	n/a	n/a	1	0	0
103.4986	1	81	n/a	n/a	1	0	0
103.6986	1	81	n/a	n/a	1	0	0
103.8986	1	81	n/a	n/a	1	0	0
104.0986	1	81	n/a	n/a	1	0	0
105.4146	1	10	n/a	n/a	1	51	1
106.6312	1	21	n/a	n/a	1	51	0
107.6812	1	10	n/a	n/a	1	51	1
108.7312	1	21	n/a	n/a	1	51	0
109.7644	1	10	n/a	n/a	1	51	1
110.9644	1	10	n/a	n/a	1	51	2
112.1142	1	10	n/a	n/a	1	51	3
113.3476	1	10	n/a	n/a	1	51	4
114.4474	1	10	n/a	n/a	1	51	5
115.5474	1	21	n/a	n/a	1	51	0
116.6474	1	10	n/a	n/a	1	51	1
117.9306	1	10	n/a	n/a	1	51	2
119.1306	1	10	n/a	n/a	1	51	3
120.4472	1	10	n/a	n/a	1	51	4
121.547	1	10	n/a	n/a	1	51	5
122.6636	1	10	n/a	n/a	1	51	6
123.7136	1	10	n/a	n/a	1	51	7
124.7636	1	21	n/a	n/a	1	51	0
126.0802	1	10	n/a	n/a	1	51	1
127.1968	1	10	n/a	n/a	1	51	2
128.0202	1	81	n/a	n/a	1	0	0
128.2202	1	81	n/a	n/a	1	0	0
128.4202	1	81	n/a	n/a	1	0	0
128.6202	1	81	n/a	n/a	1	0	0
128.8202	1	81	n/a	n/a	1	0	0
129.0202	1	81	n/a	n/a	1	0	0
129.2202	1	81	n/a	n/a	1	0	0
129.4202	1	81	n/a	n/a	1	0	0
129.6202	1	81	n/a	n/a	1	0	0
129.8202	1	81	n/a	n/a	1	0	0
130.9466	1	10	n/a	n/a	1	51	1
132.1798	1	10	n/a	n/a	1	51	2
133.363	1	10	n/a	n/a	1	51	3
134.613	1	10	n/a	n/a	1	51	4
135.6628	1	10	n/a	n/a	1	51	5
136.9962	1	10	n/a	n/a	1	51	6
138.2628	1	10	n/a	n/a	1	51	7
139.5294	1	21	n/a	n/a	1	51	0
140.596	1	10	n/a	n/a	1	51	1
141.6626	1	21	n/a	n/a	1	51	0
142.9458	1	10	n/a	n/a	1	51	1
144.229	1	10	n/a	n/a	1	51	2
145.329	1	10	n/a	n/a	1	51	3
146.4456	1	21	n/a	n/a	1	51	0
147.6122	1	10	n/a	n/a	1	51	1
148.6622	1	10	n/a	n/a	1	51	2
149.8788	1	10	n/a	n/a	1	51	3
151.0952	1	21	n/a	n/a	1	51	0
152.1786	1	10	n/a	n/a	1	51	1
153.2618	1	21	n/a	n/a	1	51	0
154.1544	1	81	n/a	n/a	1	0	0
154.3544	1	81	n/a	n/a	1	0	0
154.5544	1	81	n/a	n/a	1	0	0
154.7544	1	81	n/a	n/a	1	0	0
154.9544	1	81	n/a	n/a	1	0	0
155.1544	1	81	n/a	n/a	1	0	0
155.3544	1	81	n/a	n/a	1	0	0
155.5544	1	81	n/a	n/a	1	0	0
155.7544	1	81	n/a	n/a	1	0	0
155.9544	1	81	n/a	n/a	1	0	0
157.1282	1	10	n/a	n/a	1	51	1
158.2116	1	10	n/a	n/a	1	51	2
159.4614	1	10	n/a	n/a	1	51	3
160.6948	1	10	n/a	n/a	1	51	4
162.0114	1	10	n/a	n/a	1	51	5
163.3278	1	21	n/a	n/a	1	51	0
164.4778	1	10	n/a	n/a	1	51	1
165.6444	1	10	n/a	n/a	1	51	2
166.9444	1	10	n/a	n/a	1	51	3
167.9942	1	10	n/a	n/a	1	51	4
169.0942	1	10	n/a	n/a	1	51	5
170.1942	1	21	n/a	n/a	1	51	0
171.294	1	10	n/a	n/a	1	51	1
172.4106	1	10	n/a	n/a	1	51	2
173.7272	1	10	n/a	n/a	1	51	3
174.9272	1	10	n/a	n/a	1	51	4
176.0604	1	10	n/a	n/a	1	51	5
177.1438	1	21	n/a	n/a	1	51	0
178.377	1	10	n/a	n/a	1	51	1
179.6102	1	10	n/a	n/a	1	51	2
192.1408	1	81	n/a	n/a	1	0	0
192.3408	1	81	n/a	n/a	1	0	0
192.5408	1	81	n/a	n/a	1	0	0
192.7408	1	81	n/a	n/a	1	0	0
192.9408	1	81	n/a	n/a	1	0	0
193.1408	1	81	n/a	n/a	1	0	0
193.3408	1	81	n/a	n/a	1	0	0
193.5408	1	81	n/a	n/a	1	0	0
193.7408	1	81	n/a	n/a	1	0	0
193.9408	1	81	n/a	n/a	1	0	0
195.2094	1	10	n/a	n/a	1	50	1
196.4092	1	10	n/a	n/a	1	50	2
197.6092	1	10	n/a	n/a	1	50	3
198.8924	1	10	n/a	n/a	1	50	4
200.1256	1	10	n/a	n/a	1	50	5
201.2756	1	10	n/a	n/a	1	50	6
202.5256	1	10	n/a	n/a	1	50	7
203.7754	1	21	n/a	n/a	1	50	0
205.0588	1	10	n/a	n/a	1	50	1
206.342	1	21	n/a	n/a	1	50	0
207.5586	1	10	n/a	n/a	1	50	1
208.6586	1	10	n/a	n/a	1	50	2
209.6918	1	10	n/a	n/a	1	50	3
210.9084	1	10	n/a	n/a	1	50	4
212.125	1	10	n/a	n/a	1	50	5
213.3416	1	21	n/a	n/a	1	50	0
214.4082	1	10	n/a	n/a	1	50	1
215.6914	1	10	n/a	n/a	1	50	2
216.958	1	10	n/a	n/a	1	50	3
218.2246	1	21	n/a	n/a	1	50	0
219.3042	1	81	n/a	n/a	1	0	0
219.5042	1	81	n/a	n/a	1	0	0
219.7042	1	81	n/a	n/a	1	0	0
219.9042	1	81	n/a	n/a	1	0	0
220.1042	1	81	n/a	n/a	1	0	0
220.3042	1	81	n/a	n/a	1	0	0
220.5042	1	81	n/a	n/a	1	0	0
220.7042	1	81	n/a	n/a	1	0	0
220.9042	1	81	n/a	n/a	1	0	0
221.1042	1	81	n/a	n/a	1	0	0
222.5076	1	10	n/a	n/a	1	50	1
223.7076	1	10	n/a	n/a	1	50	2
225.0242	1	10	n/a	n/a	1	50	3
226.1908	1	10	n/a	n/a	1	50	4
227.2574	1	10	n/a	n/a	1	50	5
228.4406	1	10	n/a	n/a	1	50	6
229.7572	1	10	n/a	n/a	1	50	7
231.0738	1	21	n/a	n/a	1	50	0
232.1738	1	10	n/a	n/a	1	50	1
233.2738	1	21	n/a	n/a	1	50	0
234.407	1	10	n/a	n/a	1	50	1
235.607	1	10	n/a	n/a	1	50	2
236.7734	1	10	n/a	n/a	1	50	3
238.04	1	10	n/a	n/a	1	50	4
239.14	1	10	n/a	n/a	1	50	5
240.24	1	21	n/a	n/a	1	50	0
241.4066	1	10	n/a	n/a	1	50	1
242.6564	1	10	n/a	n/a	1	50	2
243.8898	1	10	n/a	n/a	1	50	3
245.2064	1	10	n/a	n/a	1	50	4
245.9608	1	81	n/a	n/a	1	0	0
246.1608	1	81	n/a	n/a	1	0	0
246.3608	1	81	n/a	n/a	1	0	0
246.5608	1	81	n/a	n/a	1	0	0
246.7608	1	81	n/a	n/a	1	0	0
246.9608	1	81	n/a	n/a	1	0	0
247.1608	1	81	n/a	n/a	1	0	0
247.3608	1	81	n/a	n/a	1	0	0
247.5608	1	81	n/a	n/a	1	0	0
247.7608	1	81	n/a	n/a	1	0	0
249.0228	1	10	n/a	n/a	1	50	1
250.1394	1	10	n/a	n/a	1	50	2
251.356	1	10	n/a	n/a	1	50	3
252.5726	1	21	n/a	n/a	1	50	0
253.8058	1	10	n/a	n/a	1	50	1
255.089	1	10	n/a	n/a	1	50	2
256.1224	1	10	n/a	n/a	1	50	3
257.1556	1	21	n/a	n/a	1	50	0
258.2888	1	10	n/a	n/a	1	50	1
259.4554	1	10	n/a	n/a	1	50	2
260.7554	1	10	n/a	n/a	1	50	3
261.8886	1	10	n/a	n/a	1	50	4
263.1052	1	10	n/a	n/a	1	50	5
264.3218	1	21	n/a	n/a	1	50	0
265.5218	1	10	n/a	n/a	1	50	1
266.7384	1	21	n/a	n/a	1	50	0
267.7884	1	10	n/a	n/a	1	50	1
269.005	1	10	n/a	n/a	1	50	2
270.1216	1	10	n/a	n/a	1	50	3
271.2382	1	21	n/a	n/a	1	50	0
272.1716	1	81	n/a	n/a	1	0	0
272.3716	1	81	n/a	n/a	1	0	0
272.5716	1	81	n/a	n/a	1	0	0
272.7716	1	81	n/a	n/a	1	0	0
272.9716	1	81	n/a	n/a	1	0	0
273.1716	1	81	n/a	n/a	1	0	0
273.3716	1	81	n/a	n/a	1	0	0
273.5716	1	81	n/a	n/a	1	0	0
273.7716	1	81	n/a	n/a	1	0	0
273.9716	1	81	n/a	n/a	1	0	0
275.3212	1	10	n/a	n/a	1	50	1
276.5712	1	21	n/a	n/a	1	50	0
277.6044	1	10	n/a	n/a	1	50	1
278.6376	1	21	n/a	n/a	1	50	0
279.9042	1	10	n/a	n/a	1	50	1
281.0208	1	10	n/a	n/a	1	50	2
282.2042	1	10	n/a	n/a	1	50	3
283.3208	1	10	n/a	n/a	1	50	4
284.6206	1	10	n/a	n/a	1	50	5
285.9206	1	21	n/a	n/a	1	50	0
287.1704	1	10	n/a	n/a	1	50	1
288.387	1	10	n/a	n/a	1	50	2
289.6036	1	10	n/a	n/a	1	50	3
290.8202	1	21	n/a	n/a	1	50	0
292.1368	1	10	n/a	n/a	1	50	1
293.4702	1	21	n/a	n/a	1	50	0
294.7368	1	10	n/a	n/a	1	50	1
296.02	1	10	n/a	n/a	1	50	2
297.3198	1	10	n/a	n/a	1	50	3
298.3864	1	10	n/a	n/a	1	50	4
299.193	1	81	n/a	n/a	1	0	0
299.393	1	81	n/a	n/a	1	0	0
299.593	1	81	n/a	n/a	1	0	0
299.793	1	81	n/a	n/a	1	0	0
299.993	1	81	n/a	n/a	1	0	0
300.193	1	81	n/a	n/a	1	0	0
300.393	1	81	n/a	n/a	1	0	0
300.593	1	81	n/a	n/a	1	0	0
300.793	1	81	n/a	n/a	1	0	0
300.993	1	81	n/a	n/a	1	0	0
302.1362	1	10	n/a	n/a	1	50	1
303.3196	1	10	n/a	n/a	1	50	2
304.4862	1	10	n/a	n/a	1	50	3
305.586	1	10	n/a	n/a	1	50	4
306.8194	1	10	n/a	n/a	1	50	5
308.0526	1	21	n/a	n/a	1	50	0
309.3524	1	10	n/a	n/a	1	50	1
310.6524	1	21	n/a	n/a	1	50	0
311.9524	1	10	n/a	n/a	1	50	1
313.0356	1	10	n/a	n/a	1	50	2
314.1688	1	10	n/a	n/a	1	50	3
315.3854	1	10	n/a	n/a	1	50	4
316.702	1	10	n/a	n/a	1	50	5
318.0186	1	21	n/a	n/a	1	50	0
319.102	1	10	n/a	n/a	1	50	1
320.1686	1	10	n/a	n/a	1	50	2
321.2018	1	10	n/a	n/a	1	50	3
322.235	1	21	n/a	n/a	1	50	0
323.285	1	10	n/a	n/a	1	50	1
324.3682	1	10	n/a	n/a	1	50	2
337.524	1	82	n/a	n/a	1	0	0
337.8988	1	82	n/a	n/a	1	0	0
337.9728	1	82	n/a	n/a	1	0	0
338.3028	1	82	n/a	n/a	1	0	0
338.4518	1	82	n/a	n/a	1	0	0
338.524	1	82	n/a	n/a	1	0	0
338.611	1	82	n/a	n/a	1	0	0
338.834	1	82	n/a	n/a	1	0	0
338.964	1	82	n/a	n/a	1	0	0
339.223	1	82	n/a	n/a	1	0	0
340.4506	1	10	n/a	n/a	1	52	1
341.7006	1	10	n/a	n/a	1	52	2
343.0004	1	10	n/a	n/a	1	52	3
344.117	1	10	n/a	n/a	1	52	4
345.367	1	10	n/a	n/a	1	52	5
346.617	1	21	n/a	n/a	1	52	0
347.7002	1	10	n/a	n/a	1	52	1
348.8002	1	10	n/a	n/a	1	52	2
350.1	1	10	n/a	n/a	1	52	3
351.4	1	21	n/a	n/a	1	52	0
352.5832	1	10	n/a	n/a	1	52	1
353.8998	1	10	n/a	n/a	1	52	2
355.033	1	10	n/a	n/a	1	52	3
356.2996	1	10	n/a	n/a	1	52	4
357.4662	1	10	n/a	n/a	1	52	5
358.4996	1	10	n/a	n/a	1	52	6
359.6662	1	10	n/a	n/a	1	52	7
360.8328	1	21	n/a	n/a	1	52	0
361.8994	1	10	n/a	n/a	1	52	1
363.216	1	10	n/a	n/a	1	52	2
364.0204	1	82	n/a	n/a	1	0	0
364.2594	1	82	n/a	n/a	1	0	0
364.5424	1	82	n/a	n/a	1	0	0
364.6844	1	82	n/a	n/a	1	0	0
364.7404	1	82	n/a	n/a	1	0	0
365.0204	1	82	n/a	n/a	1	0	0
365.2644	1	82	n/a	n/a	1	0	0
365.5904	1	82	n/a	n/a	1	0	0
365.6274	1	82	n/a	n/a	1	0	0
365.9144	1	82	n/a	n/a	1	0	0
367.199	1	10	n/a	n/a	1	52	1
368.4822	1	21	n/a	n/a	1	52	0
369.6322	1	10	n/a	n/a	1	52	1
370.6822	1	10	n/a	n/a	1	52	2
371.9988	1	10	n/a	n/a	1	52	3
373.2654	1	10	n/a	n/a	1	52	4
374.2986	1	10	n/a	n/a	1	52	5
375.3818	1	10	n/a	n/a	1	52	6
376.6484	1	10	n/a	n/a	1	52	7
377.915	1	21	n/a	n/a	1	52	0
378.9484	1	10	n/a	n/a	1	52	1
379.9982	1	10	n/a	n/a	1	52	2
381.2316	1	10	n/a	n/a	1	52	3
382.4482	1	10	n/a	n/a	1	52	4
383.548	1	10	n/a	n/a	1	52	5
384.648	1	21	n/a	n/a	1	52	0
385.7312	1	10	n/a	n/a	1	52	1
386.9312	1	10	n/a	n/a	1	52	2
388.1644	1	10	n/a	n/a	1	52	3
389.2644	1	10	n/a	n/a	1	52	4
390.078	1	82	n/a	n/a	1	0	0
390.484	1	82	n/a	n/a	1	0	0
390.564	1	82	n/a	n/a	1	0	0
390.677	1	82	n/a	n/a	1	0	0
391.033	1	82	n/a	n/a	1	0	0
391.078	1	82	n/a	n/a	1	0	0
391.496	1	82	n/a	n/a	1	0	0
391.775	1	82	n/a	n/a	1	0	0
391.921	1	82	n/a	n/a	1	0	0
391.997	1	82	n/a	n/a	1	0	0
393.0474	1	10	n/a	n/a	1	52	1
394.3308	1	10	n/a	n/a	1	52	2
395.5474	1	10	n/a	n/a	1	52	3
396.764	1	21	n/a	n/a	1	52	0
397.9806	1	10	n/a	n/a	1	52	1
399.1472	1	10	n/a	n/a	1	52	2
400.247	1	10	n/a	n/a	1	52	3
401.4636	1	10	n/a	n/a	1	52	4
402.547	1	10	n/a	n/a	1	52	5
403.6302	1	10	n/a	n/a	1	52	6
404.8134	1	10	n/a	n/a	1	52	7
405.9968	1	21	n/a	n/a	1	52	0
407.2634	1	10	n/a	n/a	1	52	1
408.5132	1	10	n/a	n/a	1	52	2
409.7464	1	10	n/a	n/a	1	52	3
411.0298	1	10	n/a	n/a	1	52	4
412.3296	1	10	n/a	n/a	1	52	5
413.4962	1	10	n/a	n/a	1	52	6
414.7796	1	10	n/a	n/a	1	52	7
416.0628	1	21	n/a	n/a	1	52	0
416.9392	1	82	n/a	n/a	1	0	0
417.0752	1	82	n/a	n/a	1	0	0
417.4742	1	82	n/a	n/a	1	0	0
417.7892	1	82	n/a	n/a	1	0	0
417.8722	1	82	n/a	n/a	1	0	0
417.9392	1	82	n/a	n/a	1	0	0
418.0492	1	82	n/a	n/a	1	0	0
418.3032	1	82	n/a	n/a	1	0	0
418.6092	1	82	n/a	n/a	1	0	0
418.7882	1	82	n/a	n/a	1	0	0
419.8958	1	10	n/a	n/a	1	52	1
420.9958	1	10	n/a	n/a	1	52	2
422.3124	1	10	n/a	n/a	1	52	3
423.429	1	10	n/a	n/a	1	52	4
424.529	1	10	n/a	n/a	1	52	5
425.6288	1	21	n/a	n/a	1	52	0
426.6954	1	10	n/a	n/a	1	52	1
427.962	1	10	n/a	n/a	1	52	2
428.9954	1	10	n/a	n/a	1	52	3
430.162	1	10	n/a	n/a	1	52	4
431.3618	1	10	n/a	n/a	1	52	5
432.5618	1	21	n/a	n/a	1	52	0
433.7784	1	10	n/a	n/a	1	52	1
434.995	1	21	n/a	n/a	1	52	0
436.045	1	10	n/a	n/a	1	52	1
437.2116	1	10	n/a	n/a	1	52	2
438.3782	1	10	n/a	n/a	1	52	3
439.5446	1	21	n/a	n/a	1	52	0
440.7612	1	10	n/a	n/a	1	52	1
441.8946	1	10	n/a	n/a	1	52	2
442.891	1	82	n/a	n/a	1	0	0
443.225	1	82	n/a	n/a	1	0	0
443.254	1	82	n/a	n/a	1	0	0
443.508	1	82	n/a	n/a	1	0	0
443.641	1	82	n/a	n/a	1	0	0
443.891	1	82	n/a	n/a	1	0	0
444.143	1	82	n/a	n/a	1	0	0
444.509	1	82	n/a	n/a	1	0	0
444.662	1	82	n/a	n/a	1	0	0
444.789	1	82	n/a	n/a	1	0	0
446.0276	1	10	n/a	n/a	1	52	1
447.2776	1	21	n/a	n/a	1	52	0
448.5608	1	10	n/a	n/a	1	52	1
449.7108	1	10	n/a	n/a	1	52	2
450.9774	1	10	n/a	n/a	1	52	3
452.244	1	21	n/a	n/a	1	52	0
453.3938	1	10	n/a	n/a	1	52	1
454.5104	1	10	n/a	n/a	1	52	2
457.1104	1	21	n/a	n/a	1	52	0
458.3602	1	10	n/a	n/a	1	52	1
459.6102	1	10	n/a	n/a	1	52	2
460.8434	1	10	n/a	n/a	1	52	3
462.0766	1	21	n/a	n/a	1	52	0
463.3434	1	10	n/a	n/a	1	52	1
464.6098	1	21	n/a	n/a	1	52	0
465.6598	1	10	n/a	n/a	1	52	1
466.7598	1	10	n/a	n/a	1	52	2
468.0764	1	10	n/a	n/a	1	52	3
469.393	1	21	n/a	n/a	1	52	0
556.421	1	82	n/a	n/a	1	0	0
556.486	1	82	n/a	n/a	1	0	0
556.656	1	82	n/a	n/a	1	0	0
556.787	1	82	n/a	n/a	1	0	0
557.013	1	82	n/a	n/a	1	0	0
557.421	1	82	n/a	n/a	1	0	0
557.555	1	82	n/a	n/a	1	0	0
557.93	1	82	n/a	n/a	1	0	0
557.985	1	82	n/a	n/a	1	0	0
558.206	1	82	n/a	n/a	1	0	0
559.6154	1	10	n/a	n/a	1	52	1
560.9152	1	21	n/a	n/a	1	52	0
561.9986	1	10	n/a	n/a	1	52	1
563.2318	1	10	n/a	n/a	1	52	2
564.4318	1	10	n/a	n/a	1	52	3
565.5984	1	10	n/a	n/a	1	52	4
566.8482	1	10	n/a	n/a	1	52	5
568.0982	1	21	n/a	n/a	1	52	0
569.1314	1	10	n/a	n/a	1	52	1
570.1814	1	10	n/a	n/a	1	52	2
571.3814	1	10	n/a	n/a	1	52	3
572.5812	1	21	n/a	n/a	1	52	0
573.7646	1	10	n/a	n/a	1	52	1
574.8144	1	10	n/a	n/a	1	52	2
576.0978	1	10	n/a	n/a	1	52	3
577.431	1	10	n/a	n/a	1	52	4
578.431	1	10	n/a	n/a	1	52	5
579.6476	1	10	n/a	n/a	1	52	6
580.7974	1	10	n/a	n/a	1	52	7
581.9474	1	21	n/a	n/a	1	52	0
582.8652	1	82	n/a	n/a	1	0	0
582.9862	1	82	n/a	n/a	1	0	0
583.2872	1	82	n/a	n/a	1	0	0
583.5592	1	82	n/a	n/a	1	0	0
583.6262	1	82	n/a	n/a	1	0	0
583.8652	1	82	n/a	n/a	1	0	0
584.1282	1	82	n/a	n/a	1	0	0
584.2312	1	82	n/a	n/a	1	0	0
584.3862	1	82	n/a	n/a	1	0	0
584.7972	1	82	n/a	n/a	1	0	0
586.0804	1	10	n/a	n/a	1	52	1
587.147	1	10	n/a	n/a	1	52	2
588.4136	1	10	n/a	n/a	1	52	3
589.647	1	10	n/a	n/a	1	52	4
590.7968	1	10	n/a	n/a	1	52	5
591.9468	1	10	n/a	n/a	1	52	6
593.2134	1	10	n/a	n/a	1	52	7
594.48	1	21	n/a	n/a	1	52	0
595.6298	1	10	n/a	n/a	1	52	1
596.6632	1	10	n/a	n/a	1	52	2
597.863	1	10	n/a	n/a	1	52	3
599.0964	1	10	n/a	n/a	1	52	4
600.1962	1	10	n/a	n/a	1	52	5
601.2962	1	21	n/a	n/a	1	52	0
602.3962	1	10	n/a	n/a	1	52	1
603.4628	1	10	n/a	n/a	1	52	2
604.7294	1	10	n/a	n/a	1	52	3
605.846	1	10	n/a	n/a	1	52	4
607.0458	1	10	n/a	n/a	1	52	5
608.2458	1	21	n/a	n/a	1	52	0
609.2252	1	82	n/a	n/a	1	0	0
609.2802	1	82	n/a	n/a	1	0	0
609.6652	1	82	n/a	n/a	1	0	0
609.6902	1	82	n/a	n/a	1	0	0
609.9292	1	82	n/a	n/a	1	0	0
610.2252	1	82	n/a	n/a	1	0	0
610.2622	1	82	n/a	n/a	1	0	0
610.4192	1	82	n/a	n/a	1	0	0
610.5452	1	82	n/a	n/a	1	0	0
610.6442	1	82	n/a	n/a	1	0	0
612.2456	1	10	n/a	n/a	1	52	1
613.3788	1	21	n/a	n/a	1	52	0
614.612	1	10	n/a	n/a	1	52	1
615.7786	1	10	n/a	n/a	1	52	2
617.0786	1	10	n/a	n/a	1	52	3
618.3786	1	21	n/a	n/a	1	52	0
619.4118	1	10	n/a	n/a	1	52	1
620.6118	1	10	n/a	n/a	1	52	2
621.7616	1	10	n/a	n/a	1	52	3
622.9782	1	10	n/a	n/a	1	52	4
624.1116	1	10	n/a	n/a	1	52	5
625.3948	1	10	n/a	n/a	1	52	6
626.7114	1	10	n/a	n/a	1	52	7
628.028	1	21	n/a	n/a	1	52	0
629.0778	1	10	n/a	n/a	1	52	1
630.2278	1	10	n/a	n/a	1	52	2
631.461	1	10	n/a	n/a	1	52	3
632.6776	1	10	n/a	n/a	1	52	4
633.9276	1	10	n/a	n/a	1	52	5
635.1276	1	10	n/a	n/a	1	52	6
635.896	1	82	n/a	n/a	1	0	0
636.122	1	82	n/a	n/a	1	0	0
636.51	1	82	n/a	n/a	1	0	0
636.531	1	82	n/a	n/a	1	0	0
636.646	1	82	n/a	n/a	1	0	0
636.896	1	82	n/a	n/a	1	0	0
636.96	1	82	n/a	n/a	1	0	0
637.25	1	82	n/a	n/a	1	0	0
637.585	1	82	n/a	n/a	1	0	0
637.721	1	82	n/a	n/a	1	0	0
639.0772	1	10	n/a	n/a	1	52	1
640.3606	1	21	n/a	n/a	1	52	0
641.5438	1	10	n/a	n/a	1	52	1
642.6438	1	10	n/a	n/a	1	52	2
643.877	1	10	n/a	n/a	1	52	3
645.0936	1	10	n/a	n/a	1	52	4
646.2268	1	10	n/a	n/a	1	52	5
647.5268	1	10	n/a	n/a	1	52	6
648.5934	1	10	n/a	n/a	1	52	7
649.66	1	21	n/a	n/a	1	52	0
650.7432	1	10	n/a	n/a	1	52	1
651.7932	1	10	n/a	n/a	1	52	2
652.8598	1	10	n/a	n/a	1	52	3
653.9264	1	21	n/a	n/a	1	52	0
655.0764	1	10	n/a	n/a	1	52	1
656.393	1	10	n/a	n/a	1	52	2
657.7096	1	10	n/a	n/a	1	52	3
658.8094	1	10	n/a	n/a	1	52	4
660.0428	1	10	n/a	n/a	1	52	5
661.276	1	21	n/a	n/a	1	52	0
662.0066	1	82	n/a	n/a	1	0	0
662.4286	1	82	n/a	n/a	1	0	0
662.5916	1	82	n/a	n/a	1	0	0
662.7156	1	82	n/a	n/a	1	0	0
662.9486	1	82	n/a	n/a	1	0	0
663.0066	1	82	n/a	n/a	1	0	0
663.3526	1	82	n/a	n/a	1	0	0
663.4946	1	82	n/a	n/a	1	0	0
663.7996	1	82	n/a	n/a	1	0	0
663.8826	1	82	n/a	n/a	1	0	0
665.0258	1	10	n/a	n/a	1	52	1
666.309	1	10	n/a	n/a	1	52	2
667.4756	1	10	n/a	n/a	1	52	3
668.5088	1	10	n/a	n/a	1	52	4
669.6922	1	10	n/a	n/a	1	52	5
670.8754	1	21	n/a	n/a	1	52	0
672.1086	1	10	n/a	n/a	1	52	1
673.342	1	10	n/a	n/a	1	52	2
674.6584	1	10	n/a	n/a	1	52	3
675.825	1	10	n/a	n/a	1	52	4
677.025	1	10	n/a	n/a	1	52	5
678.1916	1	10	n/a	n/a	1	52	6
679.2748	1	10	n/a	n/a	1	52	7
680.3582	1	21	n/a	n/a	1	52	0
681.5248	1	10	n/a	n/a	1	52	1
682.758	1	10	n/a	n/a	1	52	2
684.0746	1	10	n/a	n/a	1	52	3
685.1578	1	10	n/a	n/a	1	52	4
686.2412	1	10	n/a	n/a	1	52	5
687.3244	1	21	n/a	n/a	1	52	0
706.7186	1	82	n/a	n/a	1	0	0
707.0626	1	82	n/a	n/a	1	0	0
707.2346	1	82	n/a	n/a	1	0	0
707.3606	1	82	n/a	n/a	1	0	0
707.6196	1	82	n/a	n/a	1	0	0
707.7186	1	82	n/a	n/a	1	0	0
708.1256	1	82	n/a	n/a	1	0	0
708.1526	1	82	n/a	n/a	1	0	0
708.2076	1	82	n/a	n/a	1	0	0
708.5206	1	82	n/a	n/a	1	0	0
709.7398	1	10	n/a	n/a	1	50	1
710.773	1	10	n/a	n/a	1	50	2
712.0896	1	10	n/a	n/a	1	50	3
713.4062	1	21	n/a	n/a	1	50	0
714.6062	1	10	n/a	n/a	1	50	1
715.6894	1	10	n/a	n/a	1	50	2
716.906	1	10	n/a	n/a	1	50	3
717.956	1	10	n/a	n/a	1	50	4
719.1226	1	10	n/a	n/a	1	50	5
720.2892	1	21	n/a	n/a	1	50	0
721.3558	1	10	n/a	n/a	1	50	1
722.439	1	10	n/a	n/a	1	50	2
723.489	1	10	n/a	n/a	1	50	3
724.5388	1	10	n/a	n/a	1	50	4
725.7554	1	10	n/a	n/a	1	50	5
726.7888	1	10	n/a	n/a	1	50	6
728.072	1	10	n/a	n/a	1	50	7
729.3552	1	21	n/a	n/a	1	50	0
730.4218	1	10	n/a	n/a	1	50	1
731.5218	1	10	n/a	n/a	1	50	2
732.4452	1	82	n/a	n/a	1	0	0
732.5552	1	82	n/a	n/a	1	0	0
732.9102	1	82	n/a	n/a	1	0	0
733.1182	1	82	n/a	n/a	1	0	0
733.1912	1	82	n/a	n/a	1	0	0
733.4452	1	82	n/a	n/a	1	0	0
733.8742	1	82	n/a	n/a	1	0	0
733.9572	1	82	n/a	n/a	1	0	0
734.1222	1	82	n/a	n/a	1	0	0
734.1472	1	82	n/a	n/a	1	0	0
735.5716	1	10	n/a	n/a	1	50	1
736.7548	1	10	n/a	n/a	1	50	2
738.0048	1	10	n/a	n/a	1	50	3
739.138	1	10	n/a	n/a	1	50	4
740.188	1	10	n/a	n/a	1	50	5
741.2378	1	21	n/a	n/a	1	50	0
742.4044	1	10	n/a	n/a	1	50	1
743.4378	1	10	n/a	n/a	1	50	2
744.671	1	10	n/a	n/a	1	50	3
745.871	1	10	n/a	n/a	1	50	4
747.0208	1	10	n/a	n/a	1	50	5
748.3374	1	10	n/a	n/a	1	50	6
749.554	1	10	n/a	n/a	1	50	7
750.7706	1	21	n/a	n/a	1	50	0
751.9206	1	10	n/a	n/a	1	50	1
753.2372	1	10	n/a	n/a	1	50	2
754.2704	1	10	n/a	n/a	1	50	3
755.3036	1	21	n/a	n/a	1	50	0
756.4202	1	10	n/a	n/a	1	50	1
757.5868	1	10	n/a	n/a	1	50	2
758.3434	1	82	n/a	n/a	1	0	0
758.3944	1	82	n/a	n/a	1	0	0
758.4764	1	82	n/a	n/a	1	0	0
758.8544	1	82	n/a	n/a	1	0	0
758.9924	1	82	n/a	n/a	1	0	0
759.3434	1	82	n/a	n/a	1	0	0
759.3924	1	82	n/a	n/a	1	0	0
759.6224	1	82	n/a	n/a	1	0	0
759.6484	1	82	n/a	n/a	1	0	0
760.0524	1	82	n/a	n/a	1	0	0
761.4534	1	10	n/a	n/a	1	50	1
762.6698	1	21	n/a	n/a	1	50	0
763.7364	1	10	n/a	n/a	1	50	1
764.953	1	10	n/a	n/a	1	50	2
766.103	1	10	n/a	n/a	1	50	3
767.253	1	21	n/a	n/a	1	50	0
768.3862	1	10	n/a	n/a	1	50	1
769.5194	1	21	n/a	n/a	1	50	0
770.7194	1	10	n/a	n/a	1	50	1
771.8694	1	10	n/a	n/a	1	50	2
773.0026	1	10	n/a	n/a	1	50	3
774.0526	1	10	n/a	n/a	1	50	4
775.3858	1	10	n/a	n/a	1	50	5
776.719	1	21	n/a	n/a	1	50	0
777.9524	1	10	n/a	n/a	1	50	1
779.0522	1	10	n/a	n/a	1	50	2
780.1356	1	10	n/a	n/a	1	50	3
781.1688	1	10	n/a	n/a	1	50	4
782.2854	1	10	n/a	n/a	1	50	5
783.5354	1	10	n/a	n/a	1	50	6
784.3198	1	82	n/a	n/a	1	0	0
784.4758	1	82	n/a	n/a	1	0	0
784.7928	1	82	n/a	n/a	1	0	0
784.9028	1	82	n/a	n/a	1	0	0
785.2458	1	82	n/a	n/a	1	0	0
785.3198	1	82	n/a	n/a	1	0	0
785.3888	1	82	n/a	n/a	1	0	0
785.7918	1	82	n/a	n/a	1	0	0
785.9278	1	82	n/a	n/a	1	0	0
786.0858	1	82	n/a	n/a	1	0	0
787.5184	1	10	n/a	n/a	1	50	1
788.585	1	10	n/a	n/a	1	50	2
789.785	1	10	n/a	n/a	1	50	3
790.9848	1	21	n/a	n/a	1	50	0
792.1182	1	10	n/a	n/a	1	50	1
793.2514	1	21	n/a	n/a	1	50	0
794.468	1	10	n/a	n/a	1	50	1
795.6846	1	21	n/a	n/a	1	50	0
796.9346	1	10	n/a	n/a	1	50	1
798.1678	1	10	n/a	n/a	1	50	2
799.451	1	10	n/a	n/a	1	50	3
800.501	1	10	n/a	n/a	1	50	4
801.6342	1	10	n/a	n/a	1	50	5
802.7676	1	21	n/a	n/a	1	50	0
803.834	1	10	n/a	n/a	1	50	1
805.034	1	10	n/a	n/a	1	50	2
806.084	1	10	n/a	n/a	1	50	3
807.2172	1	10	n/a	n/a	1	50	4
808.3338	1	10	n/a	n/a	1	50	5
809.467	1	10	n/a	n/a	1	50	6
810.4016	1	82	n/a	n/a	1	0	0
810.5486	1	82	n/a	n/a	1	0	0
810.7926	1	82	n/a	n/a	1	0	0
810.8316	1	82	n/a	n/a	1	0	0
811.1596	1	82	n/a	n/a	1	0	0
811.4016	1	82	n/a	n/a	1	0	0
811.4806	1	82	n/a	n/a	1	0	0
811.5906	1	82	n/a	n/a	1	0	0
811.9606	1	82	n/a	n/a	1	0	0
812.3056	1	82	n/a	n/a	1	0	0
813.4336	1	10	n/a	n/a	1	50	1
814.6834	1	10	n/a	n/a	1	50	2
815.7168	1	10	n/a	n/a	1	50	3
816.75	1	21	n/a	n/a	1	50	0
817.9666	1	10	n/a	n/a	1	50	1
819.1498	1	10	n/a	n/a	1	50	2
820.4498	1	10	n/a	n/a	1	50	3
821.7496	1	21	n/a	n/a	1	50	0
822.9662	1	10	n/a	n/a	1	50	1
824.1828	1	21	n/a	n/a	1	50	0
825.4662	1	10	n/a	n/a	1	50	1
826.716	1	10	n/a	n/a	1	50	2
827.7994	1	10	n/a	n/a	1	50	3
828.866	1	10	n/a	n/a	1	50	4
829.9158	1	10	n/a	n/a	1	50	5
831.1992	1	10	n/a	n/a	1	50	6
832.5324	1	10	n/a	n/a	1	50	7
833.8656	1	21	n/a	n/a	1	50	0
835.1156	1	10	n/a	n/a	1	50	1
836.1822	1	10	n/a	n/a	1	50	2
855.93	1	81	n/a	n/a	1	0	0
856.13	1	81	n/a	n/a	1	0	0
856.33	1	81	n/a	n/a	1	0	0
856.53	1	81	n/a	n/a	1	0	0
856.73	1	81	n/a	n/a	1	0	0
856.93	1	81	n/a	n/a	1	0	0
857.13	1	81	n/a	n/a	1	0	0
857.33	1	81	n/a	n/a	1	0	0
857.53	1	81	n/a	n/a	1	0	0
857.73	1	81	n/a	n/a	1	0	0
859.0974	1	10	n/a	n/a	1	51	1
860.364	1	10	n/a	n/a	1	51	2
861.6306	1	10	n/a	n/a	1	51	3
862.6806	1	10	n/a	n/a	1	51	4
863.7972	1	10	n/a	n/a	1	51	5
864.8304	1	10	n/a	n/a	1	51	6
866.097	1	10	n/a	n/a	1	51	7
867.3636	1	21	n/a	n/a	1	51	0
868.6636	1	10	n/a	n/a	1	51	1
869.7634	1	10	n/a	n/a	1	51	2
870.8968	1	10	n/a	n/a	1	51	3
872.18	1	10	n/a	n/a	1	51	4
873.3466	1	10	n/a	n/a	1	51	5
874.5132	1	21	n/a	n/a	1	51	0
875.5464	1	10	n/a	n/a	1	51	1
876.5798	1	21	n/a	n/a	1	51	0
877.7796	1	10	n/a	n/a	1	51	1
878.8796	1	10	n/a	n/a	1	51	2
880.0962	1	10	n/a	n/a	1	51	3
881.3128	1	21	n/a	n/a	1	51	0
882.4132	1	81	n/a	n/a	1	0	0
882.6132	1	81	n/a	n/a	1	0	0
882.8132	1	81	n/a	n/a	1	0	0
883.0132	1	81	n/a	n/a	1	0	0
883.2132	1	81	n/a	n/a	1	0	0
883.4132	1	81	n/a	n/a	1	0	0
883.6132	1	81	n/a	n/a	1	0	0
883.8132	1	81	n/a	n/a	1	0	0
884.0132	1	81	n/a	n/a	1	0	0
884.2132	1	81	n/a	n/a	1	0	0
885.4958	1	10	n/a	n/a	1	51	1
886.5624	1	10	n/a	n/a	1	51	2
887.629	1	10	n/a	n/a	1	51	3
888.829	1	10	n/a	n/a	1	51	4
889.929	1	10	n/a	n/a	1	51	5
890.9622	1	10	n/a	n/a	1	51	6
892.1454	1	10	n/a	n/a	1	51	7
893.3288	1	21	n/a	n/a	1	51	0
894.5454	1	10	n/a	n/a	1	51	1
895.8452	1	10	n/a	n/a	1	51	2
897.0452	1	10	n/a	n/a	1	51	3
898.2952	1	10	n/a	n/a	1	51	4
899.5618	1	10	n/a	n/a	1	51	5
900.7616	1	10	n/a	n/a	1	51	6
901.9616	1	10	n/a	n/a	1	51	7
903.1614	1	21	n/a	n/a	1	51	0
904.2614	1	10	n/a	n/a	1	51	1
905.2946	1	10	n/a	n/a	1	51	2
906.328	1	10	n/a	n/a	1	51	3
907.3612	1	21	n/a	n/a	1	51	0
908.0968	1	81	n/a	n/a	1	0	0
908.2968	1	81	n/a	n/a	1	0	0
908.4968	1	81	n/a	n/a	1	0	0
908.6968	1	81	n/a	n/a	1	0	0
908.8968	1	81	n/a	n/a	1	0	0
909.0968	1	81	n/a	n/a	1	0	0
909.2968	1	81	n/a	n/a	1	0	0
909.4968	1	81	n/a	n/a	1	0	0
909.6968	1	81	n/a	n/a	1	0	0
909.8968	1	81	n/a	n/a	1	0	0
911.311	1	10	n/a	n/a	1	51	1
912.561	1	10	n/a	n/a	1	51	2
913.8608	1	10	n/a	n/a	1	51	3
914.8942	1	10	n/a	n/a	1	51	4
915.9774	1	10	n/a	n/a	1	51	5
917.294	1	10	n/a	n/a	1	51	6
918.5772	1	10	n/a	n/a	1	51	7
919.8604	1	21	n/a	n/a	1	51	0
921.1438	1	10	n/a	n/a	1	51	1
922.4104	1	10	n/a	n/a	1	51	2
923.4436	1	10	n/a	n/a	1	51	3
924.7268	1	10	n/a	n/a	1	51	4
925.9768	1	10	n/a	n/a	1	51	5
927.2268	1	21	n/a	n/a	1	51	0
928.51	1	10	n/a	n/a	1	51	1
929.56	1	10	n/a	n/a	1	51	2
930.7098	1	10	n/a	n/a	1	51	3
931.993	1	10	n/a	n/a	1	51	4
933.3264	1	10	n/a	n/a	1	51	5
934.6262	1	10	n/a	n/a	1	51	6
935.7178	1	81	n/a	n/a	1	0	0
935.9178	1	81	n/a	n/a	1	0	0
936.1178	1	81	n/a	n/a	1	0	0
936.3178	1	81	n/a	n/a	1	0	0
936.5178	1	81	n/a	n/a	1	0	0
936.7178	1	81	n/a	n/a	1	0	0
936.9178	1	81	n/a	n/a	1	0	0
937.1178	1	81	n/a	n/a	1	0	0
937.3178	1	81	n/a	n/a	1	0	0
937.5178	1	81	n/a	n/a	1	0	0
938.6926	1	10	n/a	n/a	1	51	1
939.9426	1	10	n/a	n/a	1	51	2
941.2426	1	10	n/a	n/a	1	51	3
942.4424	1	10	n/a	n/a	1	51	4
943.5258	1	10	n/a	n/a	1	51	5
944.559	1	21	n/a	n/a	1	51	0
945.8256	1	10	n/a	n/a	1	51	1
947.0922	1	21	n/a	n/a	1	51	0
948.3588	1	10	n/a	n/a	1	51	1
949.392	1	10	n/a	n/a	1	51	2
950.5254	1	10	n/a	n/a	1	51	3
951.742	1	10	n/a	n/a	1	51	4
952.9418	1	10	n/a	n/a	1	51	5
954.1084	1	10	n/a	n/a	1	51	6
955.4084	1	10	n/a	n/a	1	51	7
956.7082	1	21	n/a	n/a	1	51	0
957.9416	1	10	n/a	n/a	1	51	1
958.9914	1	10	n/a	n/a	1	51	2
960.0414	1	10	n/a	n/a	1	51	3
961.108	1	10	n/a	n/a	1	51	4
962.2144	1	81	n/a	n/a	1	0	0
962.4144	1	81	n/a	n/a	1	0	0
962.6144	1	81	n/a	n/a	1	0	0
962.8144	1	81	n/a	n/a	1	0	0
963.0144	1	81	n/a	n/a	1	0	0
963.2154	1	81	n/a	n/a	1	0	0
963.4154	1	81	n/a	n/a	1	0	0
963.6154	1	81	n/a	n/a	1	0	0
963.8154	1	81	n/a	n/a	1	0	0
964.0154	1	81	n/a	n/a	1	0	0
965.2078	1	10	n/a	n/a	1	51	1
966.3078	1	21	n/a	n/a	1	51	0
967.541	1	10	n/a	n/a	1	51	1
968.7408	1	10	n/a	n/a	1	51	2
969.8408	1	10	n/a	n/a	1	51	3
971.1408	1	10	n/a	n/a	1	51	4
972.4074	1	10	n/a	n/a	1	51	5
973.6406	1	10	n/a	n/a	1	51	6
974.7238	1	10	n/a	n/a	1	51	7
975.8072	1	21	n/a	n/a	1	51	0
976.9904	1	10	n/a	n/a	1	51	1
978.1404	1	10	n/a	n/a	1	51	2
979.357	1	10	n/a	n/a	1	51	3
980.4568	1	10	n/a	n/a	1	51	4
981.7068	1	10	n/a	n/a	1	51	5
982.7734	1	10	n/a	n/a	1	51	6
983.99	1	10	n/a	n/a	1	51	7
985.2066	1	21	n/a	n/a	1	51	0
986.3898	1	10	n/a	n/a	1	51	1
987.623	1	10	n/a	n/a	1	51	2
1006.8036	1	81	n/a	n/a	1	0	0
1007.0036	1	81	n/a	n/a	1	0	0
1007.2036	1	81	n/a	n/a	1	0	0
1007.4036	1	81	n/a	n/a	1	0	0
1007.6036	1	81	n/a	n/a	1	0	0
1007.8036	1	81	n/a	n/a	1	0	0
1008.0036	1	81	n/a	n/a	1	0	0
1008.2036	1	81	n/a	n/a	1	0	0
1008.4036	1	81	n/a	n/a	1	0	0
1008.6036	1	81	n/a	n/a	1	0	0
1009.7424	1	10	n/a	n/a	1	51	1
1011.059	1	10	n/a	n/a	1	51	2
1012.3588	1	10	n/a	n/a	1	51	3
1013.4588	1	10	n/a	n/a	1	51	4
1014.5754	1	10	n/a	n/a	1	51	5
1015.692	1	21	n/a	n/a	1	51	0
1016.9586	1	10	n/a	n/a	1	51	1
1018.2252	1	21	n/a	n/a	1	51	0
1019.3752	1	10	n/a	n/a	1	51	1
1020.425	1	10	n/a	n/a	1	51	2
1021.5916	1	10	n/a	n/a	1	51	3
1022.7582	1	21	n/a	n/a	1	51	0
1023.9582	1	10	n/a	n/a	1	51	1
1025.2248	1	10	n/a	n/a	1	51	2
1026.3414	1	10	n/a	n/a	1	51	3
1027.458	1	21	n/a	n/a	1	51	0
1028.7912	1	10	n/a	n/a	1	51	1
1029.9244	1	10	n/a	n/a	1	51	2
1031.2244	1	10	n/a	n/a	1	51	3
1032.441	1	10	n/a	n/a	1	51	4
1033.4754	1	81	n/a	n/a	1	0	0
1033.6754	1	81	n/a	n/a	1	0	0
1033.8754	1	81	n/a	n/a	1	0	0
1034.0754	1	81	n/a	n/a	1	0	0
1034.2754	1	81	n/a	n/a	1	0	0
1034.4754	1	81	n/a	n/a	1	0	0
1034.6754	1	81	n/a	n/a	1	0	0
1034.8754	1	81	n/a	n/a	1	0	0
1035.0754	1	81	n/a	n/a	1	0	0
1035.2754	1	81	n/a	n/a	1	0	0
1036.4408	1	10	n/a	n/a	1	51	1
1037.724	1	10	n/a	n/a	1	51	2
1038.9906	1	10	n/a	n/a	1	51	3
1040.2572	1	21	n/a	n/a	1	51	0
1041.3072	1	10	n/a	n/a	1	51	1
1042.407	1	10	n/a	n/a	1	51	2
1043.6236	1	10	n/a	n/a	1	51	3
1044.8402	1	21	n/a	n/a	1	51	0
1046.0902	1	10	n/a	n/a	1	51	1
1047.4068	1	10	n/a	n/a	1	51	2
1048.6566	1	10	n/a	n/a	1	51	3
1049.8066	1	10	n/a	n/a	1	51	4
1050.9066	1	10	n/a	n/a	1	51	5
1052.0064	1	21	n/a	n/a	1	51	0
1053.273	1	10	n/a	n/a	1	51	1
1054.5396	1	21	n/a	n/a	1	51	0
1055.6562	1	10	n/a	n/a	1	51	1
1056.7728	1	21	n/a	n/a	1	51	0
1057.8394	1	10	n/a	n/a	1	51	1
1059.1394	1	10	n/a	n/a	1	51	2
1060.0408	1	81	n/a	n/a	1	0	0
1060.2408	1	81	n/a	n/a	1	0	0
1060.4408	1	81	n/a	n/a	1	0	0
1060.6408	1	81	n/a	n/a	1	0	0
1060.8408	1	81	n/a	n/a	1	0	0
1061.0408	1	81	n/a	n/a	1	0	0
1061.2408	1	81	n/a	n/a	1	0	0
1061.4408	1	81	n/a	n/a	1	0	0
1061.6408	1	81	n/a	n/a	1	0	0
1061.8408	1	81	n/a	n/a	1	0	0
1063.0892	1	10	n/a	n/a	1	51	1
1064.239	1	21	n/a	n/a	1	51	0
1065.339	1	10	n/a	n/a	1	51	1
1066.439	1	21	n/a	n/a	1	51	0
1067.5888	1	10	n/a	n/a	1	51	1
1068.9054	1	10	n/a	n/a	1	51	2
1070.1054	1	10	n/a	n/a	1	51	3
1071.3054	1	21	n/a	n/a	1	51	0
1072.572	1	10	n/a	n/a	1	51	1
1073.8052	1	10	n/a	n/a	1	51	2
1074.9884	1	10	n/a	n/a	1	51	3
1076.1384	1	10	n/a	n/a	1	51	4
1077.305	1	10	n/a	n/a	1	51	5
1078.6048	1	10	n/a	n/a	1	51	6
1079.6548	1	10	n/a	n/a	1	51	7
1080.7048	1	21	n/a	n/a	1	51	0
1081.9046	1	10	n/a	n/a	1	51	1
1083.0712	1	10	n/a	n/a	1	51	2
1084.1712	1	10	n/a	n/a	1	51	3
1085.3044	1	10	n/a	n/a	1	51	4
1086.422	1	81	n/a	n/a	1	0	0
1086.622	1	81	n/a	n/a	1	0	0
1086.822	1	81	n/a	n/a	1	0	0
1087.022	1	81	n/a	n/a	1	0	0
1087.222	1	81	n/a	n/a	1	0	0
1087.422	1	81	n/a	n/a	1	0	0
1087.622	1	81	n/a	n/a	1	0	0
1087.822	1	81	n/a	n/a	1	0	0
1088.022	1	81	n/a	n/a	1	0	0
1088.222	1	81	n/a	n/a	1	0	0
1089.3542	1	10	n/a	n/a	1	51	1
1090.4542	1	10	n/a	n/a	1	51	2
1091.6374	1	10	n/a	n/a	1	51	3
1092.8208	1	21	n/a	n/a	1	51	0
1094.0706	1	10	n/a	n/a	1	51	1
1095.3206	1	10	n/a	n/a	1	51	2
1096.3538	1	10	n/a	n/a	1	51	3
1097.6038	1	10	n/a	n/a	1	51	4
1098.887	1	10	n/a	n/a	1	51	5
1100.1702	1	21	n/a	n/a	1	51	0
1101.4536	1	10	n/a	n/a	1	51	1
1102.5202	1	10	n/a	n/a	1	51	2
1103.7534	1	10	n/a	n/a	1	51	3
1104.8034	1	10	n/a	n/a	1	51	4
1106.0866	1	10	n/a	n/a	1	51	5
1107.3698	1	21	n/a	n/a	1	51	0
1108.653	1	10	n/a	n/a	1	51	1
1109.9196	1	10	n/a	n/a	1	51	2
1111.2196	1	10	n/a	n/a	1	51	3
1112.3196	1	10	n/a	n/a	1	51	4
1113.179	1	81	n/a	n/a	1	0	0
1113.379	1	81	n/a	n/a	1	0	0
1113.579	1	81	n/a	n/a	1	0	0
1113.779	1	81	n/a	n/a	1	0	0
1113.979	1	81	n/a	n/a	1	0	0
1114.179	1	81	n/a	n/a	1	0	0
1114.379	1	81	n/a	n/a	1	0	0
1114.579	1	81	n/a	n/a	1	0	0
1114.779	1	81	n/a	n/a	1	0	0
1114.979	1	81	n/a	n/a	1	0	0
1116.3192	1	10	n/a	n/a	1	51	1
1117.5692	1	10	n/a	n/a	1	51	2
1118.8858	1	10	n/a	n/a	1	51	3
1120.119	1	10	n/a	n/a	1	51	4
1121.1856	1	10	n/a	n/a	1	51	5
1122.2522	1	21	n/a	n/a	1	51	0
1123.5688	1	10	n/a	n/a	1	51	1
1124.8854	1	21	n/a	n/a	1	51	0
1126.202	1	10	n/a	n/a	1	51	1
1127.2854	1	10	n/a	n/a	1	51	2
1128.5686	1	10	n/a	n/a	1	51	3
1129.6018	1	10	n/a	n/a	1	51	4
1130.8352	1	10	n/a	n/a	1	51	5
1132.0684	1	21	n/a	n/a	1	51	0
1133.385	1	10	n/a	n/a	1	51	1
1134.5016	1	10	n/a	n/a	1	51	2
1135.6682	1	10	n/a	n/a	1	51	3
1136.8514	1	10	n/a	n/a	1	51	4
1138.1514	1	10	n/a	n/a	1	51	5
1139.4512	1	21	n/a	n/a	1	51	0
1158.0096	1	81	n/a	n/a	1	0	0
1158.2096	1	81	n/a	n/a	1	0	0
1158.4096	1	81	n/a	n/a	1	0	0
1158.6096	1	81	n/a	n/a	1	0	0
1158.8096	1	81	n/a	n/a	1	0	0
1159.0096	1	81	n/a	n/a	1	0	0
1159.2096	1	81	n/a	n/a	1	0	0
1159.4096	1	81	n/a	n/a	1	0	0
1159.6096	1	81	n/a	n/a	1	0	0
1159.8096	1	81	n/a	n/a	1	0	0
1160.9332	1	10	n/a	n/a	1	50	1
1162.1498	1	10	n/a	n/a	1	50	2
1163.4498	1	10	n/a	n/a	1	50	3
1164.633	1	10	n/a	n/a	1	50	4
1165.9496	1	10	n/a	n/a	1	50	5
1167.2662	1	21	n/a	n/a	1	50	0
1168.5828	1	10	n/a	n/a	1	50	1
1169.8828	1	10	n/a	n/a	1	50	2
1170.966	1	10	n/a	n/a	1	50	3
1172.0492	1	21	n/a	n/a	1	50	0
1173.2826	1	10	n/a	n/a	1	50	1
1174.4158	1	10	n/a	n/a	1	50	2
1175.6158	1	10	n/a	n/a	1	50	3
1176.949	1	10	n/a	n/a	1	50	4
1178.199	1	10	n/a	n/a	1	50	5
1179.4488	1	21	n/a	n/a	1	50	0
1180.7654	1	10	n/a	n/a	1	50	1
1182.082	1	21	n/a	n/a	1	50	0
1183.1486	1	10	n/a	n/a	1	50	1
1184.182	1	10	n/a	n/a	1	50	2
1185.1784	1	81	n/a	n/a	1	0	0
1185.3784	1	81	n/a	n/a	1	0	0
1185.5784	1	81	n/a	n/a	1	0	0
1185.7784	1	81	n/a	n/a	1	0	0
1185.9784	1	81	n/a	n/a	1	0	0
1186.1784	1	81	n/a	n/a	1	0	0
1186.3784	1	81	n/a	n/a	1	0	0
1186.5784	1	81	n/a	n/a	1	0	0
1186.7784	1	81	n/a	n/a	1	0	0
1186.9784	1	81	n/a	n/a	1	0	0
1188.2484	1	10	n/a	n/a	1	50	1
1189.4316	1	21	n/a	n/a	1	50	0
1190.6982	1	10	n/a	n/a	1	50	1
1191.9648	1	21	n/a	n/a	1	50	0
1193.2146	1	10	n/a	n/a	1	50	1
1194.4646	1	21	n/a	n/a	1	50	0
1195.6146	1	10	n/a	n/a	1	50	1
1196.7644	1	21	n/a	n/a	1	50	0
1197.9644	1	10	n/a	n/a	1	50	1
1199.2644	1	10	n/a	n/a	1	50	2
1200.431	1	10	n/a	n/a	1	50	3
1201.5976	1	21	n/a	n/a	1	50	0
1202.7808	1	10	n/a	n/a	1	50	1
1203.9642	1	21	n/a	n/a	1	50	0
1205.0806	1	10	n/a	n/a	1	50	1
1206.264	1	10	n/a	n/a	1	50	2
1207.4806	1	10	n/a	n/a	1	50	3
1208.5304	1	10	n/a	n/a	1	50	4
1209.8638	1	10	n/a	n/a	1	50	5
1210.897	1	10	n/a	n/a	1	50	6
1211.7624	1	81	n/a	n/a	1	0	0
1211.9624	1	81	n/a	n/a	1	0	0
1212.1624	1	81	n/a	n/a	1	0	0
1212.3624	1	81	n/a	n/a	1	0	0
1212.5624	1	81	n/a	n/a	1	0	0
1212.7624	1	81	n/a	n/a	1	0	0
1212.9624	1	81	n/a	n/a	1	0	0
1213.1624	1	81	n/a	n/a	1	0	0
1213.3624	1	81	n/a	n/a	1	0	0
1213.5624	1	81	n/a	n/a	1	0	0
1214.9634	1	10	n/a	n/a	1	50	1
1216.1134	1	10	n/a	n/a	1	50	2
1217.1966	1	10	n/a	n/a	1	50	3
1218.4132	1	10	n/a	n/a	1	50	4
1219.4798	1	10	n/a	n/a	1	50	5
1220.5464	1	21	n/a	n/a	1	50	0
1221.7464	1	10	n/a	n/a	1	50	1
1222.9462	1	10	n/a	n/a	1	50	2
1224.2462	1	10	n/a	n/a	1	50	3
1225.5294	1	10	n/a	n/a	1	50	4
1226.6128	1	10	n/a	n/a	1	50	5
1227.696	1	10	n/a	n/a	1	50	6
1228.9958	1	10	n/a	n/a	1	50	7
1230.2958	1	21	n/a	n/a	1	50	0
1231.4958	1	10	n/a	n/a	1	50	1
1232.529	1	10	n/a	n/a	1	50	2
1233.629	1	10	n/a	n/a	1	50	3
1234.8122	1	10	n/a	n/a	1	50	4
1236.0954	1	10	n/a	n/a	1	50	5
1237.2288	1	10	n/a	n/a	1	50	6
1238.2242	1	81	n/a	n/a	1	0	0
1238.4242	1	81	n/a	n/a	1	0	0
1238.6242	1	81	n/a	n/a	1	0	0
1238.8242	1	81	n/a	n/a	1	0	0
1239.0242	1	81	n/a	n/a	1	0	0
1239.2242	1	81	n/a	n/a	1	0	0
1239.4242	1	81	n/a	n/a	1	0	0
1239.6242	1	81	n/a	n/a	1	0	0
1239.8242	1	81	n/a	n/a	1	0	0
1240.0242	1	81	n/a	n/a	1	0	0
1241.3784	1	10	n/a	n/a	1	50	1
1242.4118	1	10	n/a	n/a	1	50	2
1243.4784	1	10	n/a	n/a	1	50	3
1244.745	1	10	n/a	n/a	1	50	4
1245.9948	1	10	n/a	n/a	1	50	5
1247.1948	1	10	n/a	n/a	1	50	6
1248.228	1	10	n/a	n/a	1	50	7
1249.2614	1	21	n/a	n/a	1	50	0
1250.428	1	10	n/a	n/a	1	50	1
1251.5446	1	10	n/a	n/a	1	50	2
1252.7612	1	10	n/a	n/a	1	50	3
1253.9778	1	21	n/a	n/a	1	50	0
1255.061	1	10	n/a	n/a	1	50	1
1256.111	1	10	n/a	n/a	1	50	2
1257.3442	1	10	n/a	n/a	1	50	3
1258.6274	1	10	n/a	n/a	1	50	4
1259.7608	1	10	n/a	n/a	1	50	5
1260.8774	1	21	n/a	n/a	1	50	0
1261.9272	1	10	n/a	n/a	1	50	1
1263.1272	1	10	n/a	n/a	1	50	2
1264.1466	1	81	n/a	n/a	1	0	0
1264.3466	1	81	n/a	n/a	1	0	0
1264.5466	1	81	n/a	n/a	1	0	0
1264.7466	1	81	n/a	n/a	1	0	0
1264.9466	1	81	n/a	n/a	1	0	0
1265.1466	1	81	n/a	n/a	1	0	0
1265.3466	1	81	n/a	n/a	1	0	0
1265.5466	1	81	n/a	n/a	1	0	0
1265.7466	1	81	n/a	n/a	1	0	0
1265.9466	1	81	n/a	n/a	1	0	0
1267.3102	1	10	n/a	n/a	1	50	1
1268.5436	1	10	n/a	n/a	1	50	2
1269.7102	1	10	n/a	n/a	1	50	3
1270.8768	1	21	n/a	n/a	1	50	0
1271.9266	1	10	n/a	n/a	1	50	1
1272.9766	1	10	n/a	n/a	1	50	2
1274.0766	1	10	n/a	n/a	1	50	3
1275.2598	1	10	n/a	n/a	1	50	4
1276.443	1	10	n/a	n/a	1	50	5
1277.6764	1	10	n/a	n/a	1	50	6
1278.943	1	10	n/a	n/a	1	50	7
1280.2094	1	21	n/a	n/a	1	50	0
1281.3594	1	10	n/a	n/a	1	50	1
1282.5426	1	10	n/a	n/a	1	50	2
1283.8592	1	10	n/a	n/a	1	50	3
1285.0758	1	10	n/a	n/a	1	50	4
1286.2924	1	10	n/a	n/a	1	50	5
1287.509	1	21	n/a	n/a	1	50	0
1288.5424	1	10	n/a	n/a	1	50	1
1289.5922	1	10	n/a	n/a	1	50	2
1305.5166	1	82	n/a	n/a	1	0	0
1305.9186	1	82	n/a	n/a	1	0	0
1306.1526	1	82	n/a	n/a	1	0	0
1306.3296	1	82	n/a	n/a	1	0	0
1306.4096	1	82	n/a	n/a	1	0	0
1306.5166	1	82	n/a	n/a	1	0	0
1306.6176	1	82	n/a	n/a	1	0	0
1306.8396	1	82	n/a	n/a	1	0	0
1307.0106	1	82	n/a	n/a	1	0	0
1307.0856	1	82	n/a	n/a	1	0	0
1308.4744	1	10	n/a	n/a	1	52	1
1309.541	1	21	n/a	n/a	1	52	0
1310.6076	1	10	n/a	n/a	1	52	1
1311.7242	1	10	n/a	n/a	1	52	2
1312.9742	1	10	n/a	n/a	1	52	3
1314.2242	1	21	n/a	n/a	1	52	0
1315.5074	1	10	n/a	n/a	1	52	1
1316.7906	1	21	n/a	n/a	1	52	0
1318.0906	1	10	n/a	n/a	1	52	1
1319.3904	1	10	n/a	n/a	1	52	2
1320.4404	1	10	n/a	n/a	1	52	3
1321.4904	1	21	n/a	n/a	1	52	0
1322.6236	1	10	n/a	n/a	1	52	1
1323.7736	1	10	n/a	n/a	1	52	2
1325.0734	1	10	n/a	n/a	1	52	3
1326.3734	1	10	n/a	n/a	1	52	4
1327.4566	1	10	n/a	n/a	1	52	5
1328.74	1	10	n/a	n/a	1	52	6
1330.0232	1	10	n/a	n/a	1	52	7
1331.2898	1	21	n/a	n/a	1	52	0
1332.2116	1	82	n/a	n/a	1	0	0
1332.3876	1	82	n/a	n/a	1	0	0
1332.4626	1	82	n/a	n/a	1	0	0
1332.7446	1	82	n/a	n/a	1	0	0
1332.8976	1	82	n/a	n/a	1	0	0
1333.2116	1	82	n/a	n/a	1	0	0
1333.2456	1	82	n/a	n/a	1	0	0
1333.3436	1	82	n/a	n/a	1	0	0
1333.4636	1	82	n/a	n/a	1	0	0
1333.7916	1	82	n/a	n/a	1	0	0
1335.4228	1	10	n/a	n/a	1	52	1
1336.7062	1	10	n/a	n/a	1	52	2
1337.9728	1	10	n/a	n/a	1	52	3
1339.006	1	10	n/a	n/a	1	52	4
1340.0892	1	10	n/a	n/a	1	52	5
1341.1726	1	21	n/a	n/a	1	52	0
1342.4892	1	10	n/a	n/a	1	52	1
1343.7556	1	10	n/a	n/a	1	52	2
1344.9222	1	10	n/a	n/a	1	52	3
1346.0888	1	21	n/a	n/a	1	52	0
1347.3222	1	10	n/a	n/a	1	52	1
1348.5054	1	10	n/a	n/a	1	52	2
1349.672	1	10	n/a	n/a	1	52	3
1350.7386	1	10	n/a	n/a	1	52	4
1352.0052	1	10	n/a	n/a	1	52	5
1353.1718	1	10	n/a	n/a	1	52	6
1354.3384	1	10	n/a	n/a	1	52	7
1355.505	1	21	n/a	n/a	1	52	0
1356.6882	1	10	n/a	n/a	1	52	1
1357.9882	1	10	n/a	n/a	1	52	2
1358.7758	1	82	n/a	n/a	1	0	0
1359.1098	1	82	n/a	n/a	1	0	0
1359.3638	1	82	n/a	n/a	1	0	0
1359.3848	1	82	n/a	n/a	1	0	0
1359.5138	1	82	n/a	n/a	1	0	0
1359.7758	1	82	n/a	n/a	1	0	0
1360.0608	1	82	n/a	n/a	1	0	0
1360.1868	1	82	n/a	n/a	1	0	0
1360.4088	1	82	n/a	n/a	1	0	0
1360.7168	1	82	n/a	n/a	1	0	0
1361.8546	1	10	n/a	n/a	1	52	1
1363.0878	1	10	n/a	n/a	1	52	2
1364.3712	1	10	n/a	n/a	1	52	3
1365.671	1	21	n/a	n/a	1	52	0
1366.7544	1	10	n/a	n/a	1	52	1
1367.871	1	10	n/a	n/a	1	52	2
1369.1042	1	10	n/a	n/a	1	52	3
1370.1708	1	10	n/a	n/a	1	52	4
1371.2374	1	10	n/a	n/a	1	52	5
1372.304	1	21	n/a	n/a	1	52	0
1373.504	1	10	n/a	n/a	1	52	1
1374.6372	1	10	n/a	n/a	1	52	2
1375.9204	1	10	n/a	n/a	1	52	3
1377.037	1	10	n/a	n/a	1	52	4
1378.137	1	10	n/a	n/a	1	52	5
1379.2702	1	10	n/a	n/a	1	52	6
1380.5036	1	10	n/a	n/a	1	52	7
1381.6868	1	21	n/a	n/a	1	52	0
1382.8534	1	10	n/a	n/a	1	52	1
1383.8866	1	10	n/a	n/a	1	52	2
1384.8002	1	82	n/a	n/a	1	0	0
1384.8452	1	82	n/a	n/a	1	0	0
1384.9622	1	82	n/a	n/a	1	0	0
1385.3542	1	82	n/a	n/a	1	0	0
1385.5152	1	82	n/a	n/a	1	0	0
1385.8002	1	82	n/a	n/a	1	0	0
1386.1282	1	82	n/a	n/a	1	0	0
1386.4872	1	82	n/a	n/a	1	0	0
1386.6042	1	82	n/a	n/a	1	0	0
1386.6762	1	82	n/a	n/a	1	0	0
1387.7864	1	10	n/a	n/a	1	52	1
1389.053	1	10	n/a	n/a	1	52	2
1390.103	1	10	n/a	n/a	1	52	3
1391.1528	1	21	n/a	n/a	1	52	0
1392.3028	1	10	n/a	n/a	1	52	1
1393.4528	1	21	n/a	n/a	1	52	0
1394.6694	1	10	n/a	n/a	1	52	1
1395.886	1	21	n/a	n/a	1	52	0
1397.0192	1	10	n/a	n/a	1	52	1
1398.2692	1	10	n/a	n/a	1	52	2
1399.4524	1	10	n/a	n/a	1	52	3
1400.6356	1	21	n/a	n/a	1	52	0
1401.669	1	10	n/a	n/a	1	52	1
1402.7522	1	10	n/a	n/a	1	52	2
1404.0688	1	10	n/a	n/a	1	52	3
1405.152	1	10	n/a	n/a	1	52	4
1406.4186	1	10	n/a	n/a	1	52	5
1407.6852	1	21	n/a	n/a	1	52	0
1408.9352	1	10	n/a	n/a	1	52	1
1410.0018	1	10	n/a	n/a	1	52	2
1410.9102	1	82	n/a	n/a	1	0	0
1411.2152	1	82	n/a	n/a	1	0	0
1411.2482	1	82	n/a	n/a	1	0	0
1411.3292	1	82	n/a	n/a	1	0	0
1411.5812	1	82	n/a	n/a	1	0	0
1411.9102	1	82	n/a	n/a	1	0	0
1412.0372	1	82	n/a	n/a	1	0	0
1412.2792	1	82	n/a	n/a	1	0	0
1412.3182	1	82	n/a	n/a	1	0	0
1412.6182	1	82	n/a	n/a	1	0	0
1414.1182	1	10	n/a	n/a	1	52	1
1415.3348	1	10	n/a	n/a	1	52	2
1416.4014	1	10	n/a	n/a	1	52	3
1417.468	1	21	n/a	n/a	1	52	0
1418.7178	1	10	n/a	n/a	1	52	1
1419.9678	1	21	n/a	n/a	1	52	0
1421.1678	1	10	n/a	n/a	1	52	1
1422.251	1	10	n/a	n/a	1	52	2
1423.5676	1	10	n/a	n/a	1	52	3
1424.6508	1	10	n/a	n/a	1	52	4
1425.9342	1	10	n/a	n/a	1	52	5
1427.034	1	10	n/a	n/a	1	52	6
1428.284	1	10	n/a	n/a	1	52	7
1429.534	1	21	n/a	n/a	1	52	0
1430.6672	1	10	n/a	n/a	1	52	1
1431.917	1	10	n/a	n/a	1	52	2
1433.1004	1	10	n/a	n/a	1	52	3
1434.2836	1	21	n/a	n/a	1	52	0
1435.5336	1	10	n/a	n/a	1	52	1
1436.6334	1	10	n/a	n/a	1	52	2
1824.2722	1	82	n/a	n/a	1	0	0
1824.4952	1	82	n/a	n/a	1	0	0
1824.5692	1	82	n/a	n/a	1	0	0
1824.947	1	82	n/a	n/a	1	0	0
1825.213	1	82	n/a	n/a	1	0	0
1825.2722	1	82	n/a	n/a	1	0	0
1825.6722	1	82	n/a	n/a	1	0	0
1825.7342	1	82	n/a	n/a	1	0	0
1825.8902	1	82	n/a	n/a	1	0	0
1826.1632	1	82	n/a	n/a	1	0	0
1827.3268	1	10	n/a	n/a	1	52	1
1828.4934	1	21	n/a	n/a	1	52	0
1829.5766	1	10	n/a	n/a	1	52	1
1830.66	1	21	n/a	n/a	1	52	0
1831.8432	1	10	n/a	n/a	1	52	1
1832.8932	1	10	n/a	n/a	1	52	2
1834.0098	1	10	n/a	n/a	1	52	3
1835.243	1	10	n/a	n/a	1	52	4
1836.3596	1	10	n/a	n/a	1	52	5
1837.4762	1	21	n/a	n/a	1	52	0
1838.7594	1	10	n/a	n/a	1	52	1
1839.7928	1	10	n/a	n/a	1	52	2
1840.8926	1	10	n/a	n/a	1	52	3
1841.976	1	10	n/a	n/a	1	52	4
1843.1258	1	10	n/a	n/a	1	52	5
1844.3424	1	10	n/a	n/a	1	52	6
1845.3924	1	10	n/a	n/a	1	52	7
1846.4424	1	21	n/a	n/a	1	52	0
1847.6256	1	10	n/a	n/a	1	52	1
1848.8256	1	10	n/a	n/a	1	52	2
1849.888	1	82	n/a	n/a	1	0	0
1850.15	1	82	n/a	n/a	1	0	0
1850.56	1	82	n/a	n/a	1	0	0
1850.675	1	82	n/a	n/a	1	0	0
1850.722	1	82	n/a	n/a	1	0	0
1850.888	1	82	n/a	n/a	1	0	0
1851.044	1	82	n/a	n/a	1	0	0
1851.334	1	82	n/a	n/a	1	0	0
1851.574	1	82	n/a	n/a	1	0	0
1851.84	1	82	n/a	n/a	1	0	0
1853.0252	1	10	n/a	n/a	1	52	1
1854.1252	1	10	n/a	n/a	1	52	2
1855.2752	1	10	n/a	n/a	1	52	3
1856.4084	1	10	n/a	n/a	1	52	4
1857.6916	1	10	n/a	n/a	1	52	5
1858.975	1	21	n/a	n/a	1	52	0
1860.0748	1	10	n/a	n/a	1	52	1
1861.2914	1	10	n/a	n/a	1	52	2
1862.408	1	10	n/a	n/a	1	52	3
1863.7246	1	10	n/a	n/a	1	52	4
1864.758	1	10	n/a	n/a	1	52	5
1865.7912	1	21	n/a	n/a	1	52	0
1866.9078	1	10	n/a	n/a	1	52	1
1868.0744	1	10	n/a	n/a	1	52	2
1869.2244	1	10	n/a	n/a	1	52	3
1870.3742	1	21	n/a	n/a	1	52	0
1871.4576	1	10	n/a	n/a	1	52	1
1872.7242	1	10	n/a	n/a	1	52	2
1873.9574	1	10	n/a	n/a	1	52	3
1875.1906	1	21	n/a	n/a	1	52	0
1876.2224	1	82	n/a	n/a	1	0	0
1876.3434	1	82	n/a	n/a	1	0	0
1876.6044	1	82	n/a	n/a	1	0	0
1876.9314	1	82	n/a	n/a	1	0	0
1877.0224	1	82	n/a	n/a	1	0	0
1877.2224	1	82	n/a	n/a	1	0	0
1877.3534	1	82	n/a	n/a	1	0	0
1877.4284	1	82	n/a	n/a	1	0	0
1877.4684	1	82	n/a	n/a	1	0	0
1877.7064	1	82	n/a	n/a	1	0	0
1879.157	1	10	n/a	n/a	1	52	1
1880.2236	1	10	n/a	n/a	1	52	2
1881.507	1	10	n/a	n/a	1	52	3
1882.7902	1	21	n/a	n/a	1	52	0
1884.0068	1	10	n/a	n/a	1	52	1
1885.19	1	10	n/a	n/a	1	52	2
1886.3066	1	10	n/a	n/a	1	52	3
1887.5732	1	10	n/a	n/a	1	52	4
1888.7564	1	10	n/a	n/a	1	52	5
1890.0398	1	10	n/a	n/a	1	52	6
1891.073	1	10	n/a	n/a	1	52	7
1892.1062	1	21	n/a	n/a	1	52	0
1893.2228	1	10	n/a	n/a	1	52	1
1894.3394	1	21	n/a	n/a	1	52	0
1895.4394	1	10	n/a	n/a	1	52	1
1896.6394	1	10	n/a	n/a	1	52	2
1897.906	1	10	n/a	n/a	1	52	3
1899.1226	1	10	n/a	n/a	1	52	4
1900.3392	1	10	n/a	n/a	1	52	5
1901.5558	1	21	n/a	n/a	1	52	0
1902.4424	1	82	n/a	n/a	1	0	0
1902.7844	1	82	n/a	n/a	1	0	0
1903.0684	1	82	n/a	n/a	1	0	0
1903.1044	1	82	n/a	n/a	1	0	0
1903.2154	1	82	n/a	n/a	1	0	0
1903.4424	1	82	n/a	n/a	1	0	0
1903.5504	1	82	n/a	n/a	1	0	0
1903.5784	1	82	n/a	n/a	1	0	0
1903.6584	1	82	n/a	n/a	1	0	0
1903.9244	1	82	n/a	n/a	1	0	0
1905.4888	1	10	n/a	n/a	1	52	1
1906.622	1	10	n/a	n/a	1	52	2
1907.922	1	10	n/a	n/a	1	52	3
1909.1886	1	10	n/a	n/a	1	52	4
1910.3218	1	10	n/a	n/a	1	52	5
1911.4552	1	21	n/a	n/a	1	52	0
1912.605	1	10	n/a	n/a	1	52	1
1913.755	1	21	n/a	n/a	1	52	0
1914.8216	1	10	n/a	n/a	1	52	1
1915.8882	1	21	n/a	n/a	1	52	0
1917.0382	1	10	n/a	n/a	1	52	1
1918.188	1	21	n/a	n/a	1	52	0
1919.4214	1	10	n/a	n/a	1	52	1
1920.688	1	10	n/a	n/a	1	52	2
1921.9046	1	10	n/a	n/a	1	52	3
1923.121	1	21	n/a	n/a	1	52	0
1924.4044	1	10	n/a	n/a	1	52	1
1925.4876	1	10	n/a	n/a	1	52	2
1926.6708	1	10	n/a	n/a	1	52	3
1927.7042	1	10	n/a	n/a	1	52	4
1928.5758	1	82	n/a	n/a	1	0	0
1928.7358	1	82	n/a	n/a	1	0	0
1929.0718	1	82	n/a	n/a	1	0	0
1929.3538	1	82	n/a	n/a	1	0	0
1929.4088	1	82	n/a	n/a	1	0	0
1929.5758	1	82	n/a	n/a	1	0	0
1929.9988	1	82	n/a	n/a	1	0	0
1930.0438	1	82	n/a	n/a	1	0	0
1930.3208	1	82	n/a	n/a	1	0	0
1930.4268	1	82	n/a	n/a	1	0	0
1931.604	1	10	n/a	n/a	1	52	1
1932.7372	1	21	n/a	n/a	1	52	0
1933.9538	1	10	n/a	n/a	1	52	1
1935.1704	1	10	n/a	n/a	1	52	2
1936.2704	1	10	n/a	n/a	1	52	3
1937.3536	1	10	n/a	n/a	1	52	4
1938.4868	1	10	n/a	n/a	1	52	5
1939.5368	1	10	n/a	n/a	1	52	6
1940.82	1	10	n/a	n/a	1	52	7
1942.1032	1	21	n/a	n/a	1	52	0
1943.3032	1	10	n/a	n/a	1	52	1
1944.5864	1	10	n/a	n/a	1	52	2
1945.8198	1	10	n/a	n/a	1	52	3
1947.053	1	21	n/a	n/a	1	52	0
1948.103	1	10	n/a	n/a	1	52	1
1949.3362	1	10	n/a	n/a	1	52	2
1950.6028	1	10	n/a	n/a	1	52	3
1951.636	1	10	n/a	n/a	1	52	4
1952.7194	1	10	n/a	n/a	1	52	5
1953.886	1	10	n/a	n/a	1	52	6
1967.1136	1	82	n/a	n/a	1	0	0
1967.3976	1	82	n/a	n/a	1	0	0
1967.4866	1	82	n/a	n/a	1	0	0
1967.8646	1	82	n/a	n/a	1	0	0
1968.0236	1	82	n/a	n/a	1	0	0
1968.1136	1	82	n/a	n/a	1	0	0
1968.1916	1	82	n/a	n/a	1	0	0
1968.5336	1	82	n/a	n/a	1	0	0
1968.6326	1	82	n/a	n/a	1	0	0
1968.7736	1	82	n/a	n/a	1	0	0
1970.0516	1	10	n/a	n/a	1	50	1
1971.2516	1	10	n/a	n/a	1	50	2
1972.3182	1	10	n/a	n/a	1	50	3
1973.4514	1	10	n/a	n/a	1	50	4
1974.5846	1	10	n/a	n/a	1	50	5
1975.7012	1	10	n/a	n/a	1	50	6
1976.8846	1	10	n/a	n/a	1	50	7
1978.0678	1	21	n/a	n/a	1	50	0
1979.3844	1	10	n/a	n/a	1	50	1
1980.5676	1	10	n/a	n/a	1	50	2
1981.8842	1	10	n/a	n/a	1	50	3
1983.0676	1	10	n/a	n/a	1	50	4
1984.1674	1	10	n/a	n/a	1	50	5
1985.2674	1	21	n/a	n/a	1	50	0
1986.3174	1	10	n/a	n/a	1	50	1
1987.584	1	10	n/a	n/a	1	50	2
1988.7172	1	10	n/a	n/a	1	50	3
1989.9338	1	10	n/a	n/a	1	50	4
1991.217	1	10	n/a	n/a	1	50	5
1992.317	1	10	n/a	n/a	1	50	6
1993.4044	1	82	n/a	n/a	1	0	0
1993.4524	1	82	n/a	n/a	1	0	0
1993.5744	1	82	n/a	n/a	1	0	0
1993.7244	1	82	n/a	n/a	1	0	0
1994.1324	1	82	n/a	n/a	1	0	0
1994.4044	1	82	n/a	n/a	1	0	0
1994.5304	1	82	n/a	n/a	1	0	0
1994.6824	1	82	n/a	n/a	1	0	0
1994.8554	1	82	n/a	n/a	1	0	0
1995.2744	1	82	n/a	n/a	1	0	0
1996.5	1	10	n/a	n/a	1	50	1
1997.75	1	10	n/a	n/a	1	50	2
1999	1	10	n/a	n/a	1	50	3
2000.0832	1	10	n/a	n/a	1	50	4
2001.2832	1	10	n/a	n/a	1	50	5
2002.483	1	21	n/a	n/a	1	50	0
2003.5496	1	10	n/a	n/a	1	50	1
2004.7828	1	10	n/a	n/a	1	50	2
2005.8662	1	10	n/a	n/a	1	50	3
2006.9494	1	21	n/a	n/a	1	50	0
2008.2494	1	10	n/a	n/a	1	50	1
2009.4826	1	10	n/a	n/a	1	50	2
2010.6326	1	10	n/a	n/a	1	50	3
2011.6824	1	10	n/a	n/a	1	50	4
2012.8658	1	10	n/a	n/a	1	50	5
2014.0324	1	10	n/a	n/a	1	50	6
2015.2322	1	10	n/a	n/a	1	50	7
2016.4322	1	21	n/a	n/a	1	50	0
2017.7654	1	10	n/a	n/a	1	50	1
2018.9488	1	10	n/a	n/a	1	50	2
2019.9052	1	82	n/a	n/a	1	0	0
2020.1862	1	82	n/a	n/a	1	0	0
2020.5712	1	82	n/a	n/a	1	0	0
2020.6172	1	82	n/a	n/a	1	0	0
2020.6842	1	82	n/a	n/a	1	0	0
2020.9052	1	82	n/a	n/a	1	0	0
2021.2112	1	82	n/a	n/a	1	0	0
2021.6302	1	82	n/a	n/a	1	0	0
2021.6622	1	82	n/a	n/a	1	0	0
2021.7892	1	82	n/a	n/a	1	0	0
2022.8484	1	10	n/a	n/a	1	50	1
2024.0484	1	10	n/a	n/a	1	50	2
2025.2816	1	10	n/a	n/a	1	50	3
2026.515	1	10	n/a	n/a	1	50	4
2027.8148	1	10	n/a	n/a	1	50	5
2028.8648	1	10	n/a	n/a	1	50	6
2030.098	1	10	n/a	n/a	1	50	7
2031.3314	1	21	n/a	n/a	1	50	0
2032.598	1	10	n/a	n/a	1	50	1
2033.7146	1	10	n/a	n/a	1	50	2
2034.9978	1	10	n/a	n/a	1	50	3
2036.281	1	10	n/a	n/a	1	50	4
2037.3476	1	10	n/a	n/a	1	50	5
2038.6476	1	10	n/a	n/a	1	50	6
2039.8808	1	10	n/a	n/a	1	50	7
2041.114	1	21	n/a	n/a	1	50	0
2042.2306	1	10	n/a	n/a	1	50	1
2043.464	1	10	n/a	n/a	1	50	2
2044.6472	1	10	n/a	n/a	1	50	3
2045.8804	1	10	n/a	n/a	1	50	4
2046.987	1	82	n/a	n/a	1	0	0
2047.066	1	82	n/a	n/a	1	0	0
2047.24	1	82	n/a	n/a	1	0	0
2047.346	1	82	n/a	n/a	1	0	0
2047.753	1	82	n/a	n/a	1	0	0
2047.987	1	82	n/a	n/a	1	0	0
2048.149	1	82	n/a	n/a	1	0	0
2048.271	1	82	n/a	n/a	1	0	0
2048.589	1	82	n/a	n/a	1	0	0
2048.636	1	82	n/a	n/a	1	0	0
2049.9968	1	10	n/a	n/a	1	50	1
2051.2968	1	10	n/a	n/a	1	50	2
2052.53	1	10	n/a	n/a	1	50	3
2053.7634	1	21	n/a	n/a	1	50	0
2054.88	1	10	n/a	n/a	1	50	1
2056.1298	1	10	n/a	n/a	1	50	2
2057.3798	1	10	n/a	n/a	1	50	3
2058.5964	1	10	n/a	n/a	1	50	4
2059.8296	1	10	n/a	n/a	1	50	5
2060.8962	1	10	n/a	n/a	1	50	6
2062.1628	1	10	n/a	n/a	1	50	7
2063.4294	1	21	n/a	n/a	1	50	0
2064.6126	1	10	n/a	n/a	1	50	1
2065.9126	1	10	n/a	n/a	1	50	2
2066.9626	1	10	n/a	n/a	1	50	3
2068.0124	1	21	n/a	n/a	1	50	0
2069.1958	1	10	n/a	n/a	1	50	1
2070.279	1	10	n/a	n/a	1	50	2
2071.4956	1	10	n/a	n/a	1	50	3
2072.6288	1	10	n/a	n/a	1	50	4
2073.4974	1	82	n/a	n/a	1	0	0
2073.6154	1	82	n/a	n/a	1	0	0
2073.9034	1	82	n/a	n/a	1	0	0
2073.9454	1	82	n/a	n/a	1	0	0
2074.2804	1	82	n/a	n/a	1	0	0
2074.4974	1	82	n/a	n/a	1	0	0
2074.9354	1	82	n/a	n/a	1	0	0
2075.0694	1	82	n/a	n/a	1	0	0
2075.2484	1	82	n/a	n/a	1	0	0
2075.2994	1	82	n/a	n/a	1	0	0
2076.512	1	10	n/a	n/a	1	50	1
2077.6118	1	10	n/a	n/a	1	50	2
2078.6784	1	10	n/a	n/a	1	50	3
2079.8118	1	10	n/a	n/a	1	50	4
2080.9784	1	10	n/a	n/a	1	50	5
2082.145	1	21	n/a	n/a	1	50	0
2083.2116	1	10	n/a	n/a	1	50	1
2084.5282	1	10	n/a	n/a	1	50	2
2085.828	1	10	n/a	n/a	1	50	3
2087.128	1	21	n/a	n/a	1	50	0
2088.4612	1	10	n/a	n/a	1	50	1
2089.5446	1	10	n/a	n/a	1	50	2
2090.8112	1	10	n/a	n/a	1	50	3
2092.011	1	10	n/a	n/a	1	50	4
2093.2276	1	10	n/a	n/a	1	50	5
2094.4442	1	10	n/a	n/a	1	50	6
2095.6608	1	10	n/a	n/a	1	50	7
2096.8774	1	21	n/a	n/a	1	50	0
2098.0106	1	10	n/a	n/a	1	50	1
2099.144	1	21	n/a	n/a	1	50	0
2117.8766	1	81	n/a	n/a	1	0	0
2118.0766	1	81	n/a	n/a	1	0	0
2118.2766	1	81	n/a	n/a	1	0	0
2118.4766	1	81	n/a	n/a	1	0	0
2118.6766	1	81	n/a	n/a	1	0	0
2118.8766	1	81	n/a	n/a	1	0	0
2119.0766	1	81	n/a	n/a	1	0	0
2119.2766	1	81	n/a	n/a	1	0	0
2119.4766	1	81	n/a	n/a	1	0	0
2119.6766	1	81	n/a	n/a	1	0	0
2120.9426	1	10	n/a	n/a	1	51	1
2122.2092	1	10	n/a	n/a	1	51	2
2123.4592	1	10	n/a	n/a	1	51	3
2124.709	1	21	n/a	n/a	1	51	0
2125.859	1	10	n/a	n/a	1	51	1
2127.1256	1	10	n/a	n/a	1	51	2
2128.3088	1	10	n/a	n/a	1	51	3
2129.5254	1	10	n/a	n/a	1	51	4
2130.6588	1	10	n/a	n/a	1	51	5
2131.792	1	21	n/a	n/a	1	51	0
2133.0086	1	10	n/a	n/a	1	51	1
2134.2252	1	21	n/a	n/a	1	51	0
2135.2752	1	10	n/a	n/a	1	51	1
2136.525	1	10	n/a	n/a	1	51	2
2137.7084	1	10	n/a	n/a	1	51	3
2138.8582	1	10	n/a	n/a	1	51	4
2140.1414	1	10	n/a	n/a	1	51	5
2141.4248	1	21	n/a	n/a	1	51	0
2142.458	1	10	n/a	n/a	1	51	1
2143.608	1	10	n/a	n/a	1	51	2
2144.5144	1	81	n/a	n/a	1	0	0
2144.7144	1	81	n/a	n/a	1	0	0
2144.9144	1	81	n/a	n/a	1	0	0
2145.1144	1	81	n/a	n/a	1	0	0
2145.3144	1	81	n/a	n/a	1	0	0
2145.5144	1	81	n/a	n/a	1	0	0
2145.7144	1	81	n/a	n/a	1	0	0
2145.9144	1	81	n/a	n/a	1	0	0
2146.1144	1	81	n/a	n/a	1	0	0
2146.3144	1	81	n/a	n/a	1	0	0
2147.6078	1	10	n/a	n/a	1	51	1
2148.741	1	10	n/a	n/a	1	51	2
2150.041	1	10	n/a	n/a	1	51	3
2151.3074	1	10	n/a	n/a	1	51	4
2152.4574	1	10	n/a	n/a	1	51	5
2153.6574	1	10	n/a	n/a	1	51	6
2154.8072	1	10	n/a	n/a	1	51	7
2155.9572	1	21	n/a	n/a	1	51	0
2157.0072	1	10	n/a	n/a	1	51	1
2158.157	1	10	n/a	n/a	1	51	2
2159.2904	1	10	n/a	n/a	1	51	3
2160.4236	1	21	n/a	n/a	1	51	0
2161.4568	1	10	n/a	n/a	1	51	1
2162.6068	1	10	n/a	n/a	1	51	2
2163.6734	1	10	n/a	n/a	1	51	3
2164.8068	1	10	n/a	n/a	1	51	4
2165.84	1	10	n/a	n/a	1	51	5
2166.8732	1	21	n/a	n/a	1	51	0
2168.1732	1	10	n/a	n/a	1	51	1
2169.323	1	10	n/a	n/a	1	51	2
2170.1796	1	81	n/a	n/a	1	0	0
2170.3796	1	81	n/a	n/a	1	0	0
2170.5796	1	81	n/a	n/a	1	0	0
2170.7796	1	81	n/a	n/a	1	0	0
2170.9796	1	81	n/a	n/a	1	0	0
2171.1796	1	81	n/a	n/a	1	0	0
2171.3796	1	81	n/a	n/a	1	0	0
2171.5796	1	81	n/a	n/a	1	0	0
2171.7796	1	81	n/a	n/a	1	0	0
2171.9796	1	81	n/a	n/a	1	0	0
2173.1896	1	10	n/a	n/a	1	51	1
2174.2228	1	10	n/a	n/a	1	51	2
2175.306	1	10	n/a	n/a	1	51	3
2176.3894	1	21	n/a	n/a	1	51	0
2177.6726	1	10	n/a	n/a	1	51	1
2178.7226	1	10	n/a	n/a	1	51	2
2179.8724	1	10	n/a	n/a	1	51	3
2181.0224	1	21	n/a	n/a	1	51	0
2182.2724	1	10	n/a	n/a	1	51	1
2183.539	1	10	n/a	n/a	1	51	2
2184.6888	1	10	n/a	n/a	1	51	3
2185.8388	1	21	n/a	n/a	1	51	0
2186.872	1	10	n/a	n/a	1	51	1
2188.0554	1	10	n/a	n/a	1	51	2
2189.222	1	10	n/a	n/a	1	51	3
2190.3886	1	10	n/a	n/a	1	51	4
2191.4718	1	10	n/a	n/a	1	51	5
2192.555	1	21	n/a	n/a	1	51	0
2193.8216	1	10	n/a	n/a	1	51	1
2195.0882	1	21	n/a	n/a	1	51	0
2196.1388	1	81	n/a	n/a	1	0	0
2196.3388	1	81	n/a	n/a	1	0	0
2196.5388	1	81	n/a	n/a	1	0	0
2196.7388	1	81	n/a	n/a	1	0	0
2196.9388	1	81	n/a	n/a	1	0	0
2197.1388	1	81	n/a	n/a	1	0	0
2197.3388	1	81	n/a	n/a	1	0	0
2197.5388	1	81	n/a	n/a	1	0	0
2197.7388	1	81	n/a	n/a	1	0	0
2197.9388	1	81	n/a	n/a	1	0	0
2199.338	1	10	n/a	n/a	1	51	1
2200.438	1	10	n/a	n/a	1	51	2
2201.6878	1	10	n/a	n/a	1	51	3
2202.8878	1	10	n/a	n/a	1	51	4
2203.921	1	10	n/a	n/a	1	51	5
2205.071	1	10	n/a	n/a	1	51	6
2206.3042	1	10	n/a	n/a	1	51	7
2207.5374	1	21	n/a	n/a	1	51	0
2208.6374	1	10	n/a	n/a	1	51	1
2209.7374	1	10	n/a	n/a	1	51	2
2210.904	1	10	n/a	n/a	1	51	3
2212.0706	1	21	n/a	n/a	1	51	0
2213.2204	1	10	n/a	n/a	1	51	1
2214.3704	1	21	n/a	n/a	1	51	0
2215.5036	1	10	n/a	n/a	1	51	1
2216.637	1	21	n/a	n/a	1	51	0
2217.8868	1	10	n/a	n/a	1	51	1
2218.9534	1	10	n/a	n/a	1	51	2
2220.0534	1	10	n/a	n/a	1	51	3
2221.1366	1	10	n/a	n/a	1	51	4
2222.0672	1	81	n/a	n/a	1	0	0
2222.2672	1	81	n/a	n/a	1	0	0
2222.4672	1	81	n/a	n/a	1	0	0
2222.6672	1	81	n/a	n/a	1	0	0
2222.8672	1	81	n/a	n/a	1	0	0
2223.0672	1	81	n/a	n/a	1	0	0
2223.2672	1	81	n/a	n/a	1	0	0
2223.4672	1	81	n/a	n/a	1	0	0
2223.6672	1	81	n/a	n/a	1	0	0
2223.8672	1	81	n/a	n/a	1	0	0
2225.2864	1	10	n/a	n/a	1	51	1
2226.3364	1	10	n/a	n/a	1	51	2
2227.4696	1	10	n/a	n/a	1	51	3
2228.5696	1	10	n/a	n/a	1	51	4
2229.8362	1	10	n/a	n/a	1	51	5
2231.1028	1	21	n/a	n/a	1	51	0
2232.4026	1	10	n/a	n/a	1	51	1
2233.7026	1	10	n/a	n/a	1	51	2
2234.8526	1	10	n/a	n/a	1	51	3
2236.0024	1	21	n/a	n/a	1	51	0
2237.2524	1	10	n/a	n/a	1	51	1
2238.4024	1	10	n/a	n/a	1	51	2
2239.6356	1	10	n/a	n/a	1	51	3
2240.8022	1	10	n/a	n/a	1	51	4
2242.0854	1	10	n/a	n/a	1	51	5
2243.2686	1	10	n/a	n/a	1	51	6
2244.4352	1	10	n/a	n/a	1	51	7
2245.6018	1	21	n/a	n/a	1	51	0
2246.8684	1	10	n/a	n/a	1	51	1
2248.135	1	21	n/a	n/a	1	51	0
