onset	duration	value	response	rt	good	Acu	estim	trial
0.0197	1	11	2	450.6	1	1	0 2 0	1
2.4475	1	11	2	398.6	1	1	0 2 0	2
6.2722	1	11	1	339.4	1	1	1 0 0	3
8.7	1	11	2	343.6	1	1	0 2 0	4
11.4771	1	11	1	374	1	1	1 0 0	5
14.5701	1	11	2	322.7	1	1	0 2 0	6
16.5822	1	11	3	373.9	1	1	0 0 3	7
19.2429	1	12	3	537.8	1	1	3 2 2	1
21.388	1	12	2	683.6	1	0	3 3 1	2
23.9322	1	12	3	933.7	1	1	2 3 2	3
26.1273	1	11	2	425	1	1	0 2 0	1
29.952	1	11	2	398.4	1	1	0 2 0	2
32.5461	1	11	2	360.4	1	1	0 2 0	3
34.791	1	11	1	349.2	1	1	1 0 0	4
37.2022	1	12	3	499.4	1	1	3 2 2	1
39.5137	1	12	3	580.6	1	1	3 2 2	2
42.5734	1	12	2	557.7	1	0	2 3 2	3
45.8992	1	12	1	755.1	1	1	2 1 2	4
48.1608	1	12	3	747.3	1	1	2 3 2	5
50.6551	1	12	1	716.9	1	1	3 3 1	6
54.5297	1	11	2	469.8	1	1	0 2 0	1
57.5895	1	11	2	395.5	1	1	0 2 0	2
60.1004	1	11	1	382.7	1	1	1 0 0	3
62.3454	1	11	3	341.4	1	1	0 0 3	4
64.7898	1	11	2	431.1	1	1	0 2 0	5
67.0348	1	12	1	588	1	1	2 2 1	1
70.5934	1	12	1	822.1	1	1	3 1 3	2
73.2374	1	12	1	626.1	1	1	3 3 1	3
76.8293	1	12	1	600.5	1	1	3 1 3	4
79.4733	1	12	2	683.7	1	1	1 1 2	5
81.9677	1	12	1	653.3	1	0	2 3 3	6
84.3789	1	12	2	867.4	1	1	2 1 1	7
86.5573	1	12	1	638.5	1	1	2 2 1	8
90.0327	1	11	1	410.9	1	1	1 0 0	1
92.7765	1	11	3	459.5	1	1	0 0 3	2
96.385	1	11	1	380.2	1	1	1 0 0	3
98.4969	1	12	2	657.2	1	1	3 3 2	1
101.9225	1	12	3	852.1	1	1	3 2 2	2
104.8825	1	12	2	673.3	1	1	2 1 1	3
108.2582	1	12	1	630.7	1	1	2 2 1	4
111.8168	1	12	2	565.4	1	1	2 3 3	5
115.1592	1	12	1	585	1	1	3 3 1	6
117.3044	1	11	3	475.4	1	1	0 0 3	1
120.8464	1	11	2	358.5	1	1	0 2 0	2
123.241	1	11	1	347	1	1	1 0 0	3
126.5668	1	11	1	364.1	1	1	1 0 0	4
128.8782	1	11	3	496.8	1	1	0 0 3	5
131.3559	1	12	3	953.5	1	1	2 3 2	1
133.3016	1	12	2	669.9	1	0	2 1 2	2
136.6939	1	12	1	646.7	1	1	2 2 1	3
140.2192	1	12	1	552.7	1	1	3 3 1	4
142.5972	1	11	3	419.3	1	1	0 0 3	1
144.5261	1	11	2	474.9	1	1	0 2 0	2
147.3531	1	11	2	364.2	1	1	0 2 0	3
150.1468	1	11	3	472.8	1	1	0 0 3	4
153.6222	1	11	2	410	1	1	0 2 0	5
155.9503	1	11	1	370.2	1	1	1 0 0	6
158.8438	1	11	1	401.3	1	1	1 0 0	7
160.9889	1	12	3	531.1	1	0	3 3 1	1
163.9655	1	12	1	515.9	1	1	3 3 1	2
167.1583	1	12	2	532.1	1	1	2 3 3	3
170.85	1	12	2	961.3	1	1	2 1 1	4
172.8122	1	12	3	624.1	1	0	3 1 3	5
175.5227	1	12	2	552	1	1	3 3 2	6
178.8153	1	12	1	506.3	1	1	2 2 1	7
181.8085	1	12	2	587.8	1	1	2 3 3	8
184.2197	1	11	1	390.3	1	1	1 0 0	1
186.764	1	11	2	401	1	1	0 2 0	2
190.3891	1	11	1	349.4	1	1	1 0 0	3
192.8668	1	11	2	392.8	1	1	0 2 0	4
195.7935	1	11	2	428.5	1	1	0 2 0	5
198.1549	1	11	1	324.9	1	1	1 0 0	6
200.3665	1	12	2	584.4	1	1	2 3 3	1
203.9085	1	12	1	636.7	1	0	1 3 1	2
207.1678	1	12	3	857.6	1	1	3 2 2	3
210.5934	1	12	3	630.7	1	1	3 1 1	4
213.6199	1	12	2	517	1	0	3 2 2	5
216.2306	1	12	3	471.3	1	1	3 2 2	6
219.8724	1	12	1	400.8	1	0	2 1 1	7
222.2337	1	11	2	385.8	1	1	0 2 0	1
224.462	1	11	2	351.2	1	1	0 2 0	2
228.0705	1	11	2	354.7	1	1	0 2 0	3
230.2656	1	11	3	413.2	1	1	0 0 3	4
232.8597	1	11	3	359.3	1	1	0 0 3	5
236.2188	1	12	2	597.7	1	1	2 3 3	1
239.2951	1	12	2	870.4	1	1	1 1 2	2
242.9036	1	12	2	442.6	1	1	1 1 2	3
245.6308	1	12	2	649.2	1	1	3 3 2	4
248.6905	1	12	3	992.7	1	1	3 2 2	5
251.002	1	12	1	561.4	1	0	1 3 1	6
254.8766	1	12	3	583.5	1	1	3 1 1	7
257.1381	1	12	2	660.9	1	0	3 1 3	8
259.117	1	11	2	486.2	1	1	0 2 0	1
261.6945	1	11	1	443.6	1	1	1 0 0	2
264.0558	1	11	2	435.1	1	1	0 2 0	3
266.2841	1	11	1	399.7	1	1	1 0 0	4
268.3295	1	12	3	808.3	1	0	3 3 2	1
270.4912	1	12	3	884.2	1	1	3 1 1	2
272.8692	1	12	1	656	1	1	3 1 3	3
274.9146	1	11	1	419.5	1	1	1 0 0	1
278.0575	1	11	2	353.5	1	1	0 2 0	2
281.7325	1	11	3	378.8	1	1	0 0 3	3
285.0749	1	11	1	385.7	1	1	1 0 0	4
287.6691	1	12	1	897.1	1	1	2 1 2	1
289.8807	1	12	2	612.9	1	1	2 1 1	2
293.0402	1	12	1	588.3	1	1	3 1 3	3
295.784	1	12	2	741.1	1	1	3 3 2	4
298.4114	1	12	3	685.7	1	1	3 1 1	5
301.122	1	11	3	509	1	1	0 0 3	1
304.481	1	11	1	387	1	1	1 0 0	2
307.9066	1	11	2	395.5	1	1	0 2 0	3
309.9852	1	11	1	373.6	1	1	1 0 0	4
312.6293	1	11	2	401.7	1	1	0 2 0	5
315.5227	1	11	2	345.7	1	1	0 2 0	6
318.1501	1	11	1	386.6	1	1	1 0 0	7
320.8607	1	12	1	808.8	1	0	1 1 2	1
323.488	1	12	2	607.3	1	0	2 2 1	2
326.897	1	12	2	691.6	1	1	2 1 1	3
328.8925	1	11	2	430.3	1	1	0 2 0	1
332.0187	1	11	3	455.9	1	1	0 0 3	2
334.3136	1	11	3	471.8	1	1	0 0 3	3
336.7913	1	11	1	385	1	1	1 0 0	4
339.2191	1	11	3	420	1	1	0 0 3	5
341.6303	1	11	3	400	1	1	0 0 3	6
344.5404	1	11	1	374.3	1	1	1 0 0	7
347.5004	1	11	3	374.8	1	1	0 0 3	8
349.7121	1	12	2	907.6	1	1	1 1 2	1
352.5057	1	12	3	932.5	1	1	2 3 2	2
355.3493	1	12	1	500.6	1	1	2 2 1	3
357.8769	1	12	1	800.7	1	1	2 1 2	4
360.5708	1	12	2	528.6	1	1	2 1 1	5
364.2957	1	12	3	430.1	1	1	3 1 1	6
366.2746	1	11	1	392.5	1	1	1 0 0	1
369.1015	1	11	3	407	1	1	0 0 3	2
372.4606	1	11	1	315.1	1	1	1 0 0	3
376.0026	1	11	1	316.3	1	1	1 0 0	4
379.0623	1	11	3	411.4	1	1	0 0 3	5
381.6565	1	11	2	450.5	1	1	0 2 0	6
384.4335	1	11	2	359.5	1	1	0 2 0	7
386.562	1	12	1	580	1	0	1 1 2	1
388.8402	1	12	3	691.7	1	1	1 3 1	2
391.2348	1	12	3	889.5	1	1	2 3 2	3
394.7269	1	12	3	601.2	1	1	3 1 1	4
397.8864	1	12	1	631.5	1	1	3 1 3	5
399.9484	1	12	3	610	1	1	1 3 1	6
403.2743	1	12	1	608.1	1	1	3 3 1	7
405.436	1	12	2	516	1	1	2 1 1	8
408.3461	1	11	3	378.2	1	1	0 0 3	1
410.8238	1	11	1	422.4	1	1	1 0 0	2
414.3991	1	11	1	376.6	1	1	1 0 0	3
417.8247	1	12	2	626.3	1	1	3 3 2	1
421.6494	1	12	1	507.2	1	1	2 2 1	2
423.8278	1	12	2	583.5	1	1	2 3 3	3
426.6713	1	12	1	578.4	1	1	3 3 1	4
429.9639	1	12	2	581	1	1	1 1 2	5
433.1733	1	11	3	406.1	1	1	0 0 3	1
436.5989	1	11	3	460.8	1	1	0 0 3	2
438.8438	1	11	2	439.8	1	1	0 2 0	3
442.3193	1	11	1	336.1	1	1	1 0 0	4
446.1606	1	11	1	344.5	1	1	1 0 0	5
449.503	1	11	3	468.3	1	1	0 0 3	6
451.432	1	12	2	604.8	1	1	2 3 3	1
453.7933	1	12	2	462.3	1	1	2 3 3	2
457.485	1	12	1	548.1	1	1	2 2 1	3
461.3097	1	12	2	722.4	1	0	1 3 1	4
464.7352	1	11	2	375.5	1	1	0 2 0	1
467.8781	1	11	1	333.3	1	1	1 0 0	2
470.3558	1	11	3	418.8	1	1	0 0 3	3
472.6507	1	12	2	582	1	1	3 3 2	1
474.5464	1	12	3	625.8	1	1	3 1 1	2
477.3899	1	12	1	518.3	1	1	3 3 1	3
480.5993	1	12	1	755	1	1	2 2 1	4
482.8609	1	12	2	528	1	1	2 3 3	5
485.6213	1	12	3	535.1	1	1	3 1 1	6
488.1988	1	11	2	448.6	1	1	0 2 0	1
491.5745	1	11	3	401.9	1	1	0 0 3	2
494.5345	1	11	3	403.4	1	1	0 0 3	3
498.1264	1	11	2	426.9	1	1	0 2 0	4
500.8369	1	12	3	651.9	1	1	1 3 1	1
504.3789	1	12	2	894.5	1	1	1 1 2	2
506.6238	1	12	2	450.9	1	1	1 1 2	3
509.8332	1	12	2	719.9	1	1	2 1 1	4
512.0782	1	12	2	406.2	1	1	2 1 1	5
514.4229	1	12	3	485.4	1	1	3 1 1	6
517.1168	1	12	3	412.6	1	1	3 1 1	7
519.4448	1	12	3	554.7	1	1	1 3 1	8
521.6066	1	11	2	389.2	1	1	0 2 0	1
524.6996	1	11	1	403.1	1	1	1 0 0	2
526.5787	1	11	2	463.2	1	1	0 2 0	3
529.2892	1	11	1	375.1	1	1	1 0 0	4
531.8002	1	11	3	451.2	1	1	0 0 3	5
534.677	1	11	2	370.5	1	1	0 2 0	6
536.8721	1	11	1	355.2	1	1	1 0 0	7
540.1314	1	12	2	545.2	1	0	2 1 2	1
543.4572	1	12	1	499.2	1	0	1 1 2	2
545.8019	1	12	2	464.3	1	0	2 3 2	3
548.7951	1	12	1	609.9	1	1	2 2 1	4
552.3205	1	12	2	717.1	1	1	2 1 1	5
555.6297	1	11	3	482.6	1	1	0 0 3	1
559.2215	1	11	1	379.1	1	1	1 0 0	2
561.6327	1	11	1	392.7	1	1	1 0 0	3
563.7613	1	11	1	345.6	1	1	1 0 0	4
566.5716	1	11	1	346	1	1	1 0 0	5
569.9473	1	11	2	390.3	1	1	0 2 0	6
573.4892	1	11	1	338.6	1	1	1 0 0	7
575.834	1	11	1	368.7	1	1	1 0 0	8
579.4591	1	12	1	431.2	1	0	2 1 1	1
582.2361	1	12	3	816	1	1	2 3 2	2
584.9301	1	12	3	780.1	1	1	1 3 1	3
587.9732	1	11	1	436.4	1	1	1 0 0	1
590.7169	1	11	3	406	1	1	0 0 3	2
593.0284	1	11	2	457.2	1	1	0 2 0	3
596.2212	1	11	2	393.4	1	1	0 2 0	4
599.7964	1	12	3	664.9	1	0	3 1 3	1
602.8063	1	12	2	654.4	1	1	1 1 2	2
606.6642	1	12	3	629.3	1	1	1 3 1	3
608.8592	1	12	3	388.6	1	1	1 3 1	4
610.9213	1	12	2	776.4	1	0	2 1 2	5
613.4821	1	11	1	446.5	1	1	1 0 0	1
615.594	1	11	3	511.2	1	1	0 0 3	2
618.8034	1	11	3	325.5	1	1	0 0 3	3
620.8155	1	11	3	332.8	1	1	0 0 3	4
622.7445	1	11	3	393.2	1	1	0 0 3	5
625.6712	1	11	3	346.9	1	1	0 0 3	6
627.7	1	12	2	676.2	1	1	3 3 2	1
629.7952	1	12	3	661.5	1	1	1 3 1	2
632.4226	1	12	2	552	1	1	2 3 3	3
635.7152	1	12	2	1024.9	1	1	1 1 2	4
637.6441	1	12	3	773.2	1	0	3 3 2	5
640.4877	1	12	2	763.1	1	1	1 1 2	6
642.6495	1	12	1	664.6	1	1	2 2 1	7
645.9753	1	11	3	476.7	1	1	0 0 3	1
649.6004	1	11	3	461	1	1	0 0 3	2
652.3442	1	11	1	414.6	1	1	1 0 0	3
656.0359	1	12	2	930.9	1	1	2 3 3	1
657.915	1	12	2	628.7	1	1	2 1 1	2
660.0269	1	12	2	462.3	1	1	2 3 3	3
662.4547	1	12	2	333.1	1	1	2 3 3	4
665.7971	1	11	3	465.1	1	1	0 0 3	1
667.7427	1	11	1	427.7	1	1	1 0 0	2
670.9854	1	11	3	381.8	1	1	0 0 3	3
673.513	1	11	1	396.3	1	1	1 0 0	4
676.0406	1	11	2	477.8	1	1	0 2 0	5
679.4829	1	11	1	392.6	1	1	1 0 0	6
682.8087	1	11	3	413	1	1	0 0 3	7
686.3506	1	11	3	470.6	1	1	0 0 3	8
688.7286	1	12	2	639.6	1	1	2 1 1	1
692.0212	1	12	2	631.8	1	1	3 3 2	2
694.0665	1	12	1	558.2	1	1	2 1 2	3
696.1618	1	12	3	741.6	1	1	2 3 2	4
699.0719	1	12	1	636.8	1	1	3 1 3	5
701.6161	1	11	3	479.6	1	1	0 0 3	1
703.9109	1	11	2	434.6	1	1	0 2 0	2
706.3388	1	11	1	299.3	1	1	1 0 0	3
708.7832	1	11	2	383.8	1	1	0 2 0	4
710.7122	1	11	2	347.2	1	1	0 2 0	5
714.3207	1	11	3	394.3	1	1	0 0 3	6
717.1144	1	11	1	345.7	1	1	1 0 0	7
720.8393	1	12	3	842.2	1	1	3 2 2	1
722.7516	1	12	2	518.6	1	0	2 2 1	2
725.5121	1	12	2	521.5	1	1	1 1 2	3
727.7404	1	12	3	555.1	1	1	2 3 2	4
730.8833	1	12	1	381.9	1	1	3 3 1	5
733.3277	1	12	1	519.3	1	1	3 1 3	6
736.3376	1	11	1	366	1	1	1 0 0	1
739.7133	1	11	3	438.7	1	1	0 0 3	2
742.6732	1	11	1	366.1	1	1	1 0 0	3
745.9492	1	11	3	356.4	1	1	0 0 3	4
748.5599	1	11	1	365.6	1	1	1 0 0	5
750.6718	1	12	1	639.6	1	1	3 1 3	1
753.8979	1	12	3	775.6	1	1	1 3 1	2
757.7724	1	12	1	589.4	1	1	3 3 1	3
760.1504	1	12	1	703.7	1	1	2 1 2	4
763.3764	1	12	1	501.3	1	0	2 3 3	5
765.7045	1	12	3	779.2	1	1	3 2 2	6
768.997	1	12	2	767	1	0	3 1 1	7
772.0069	1	12	3	889.9	1	1	1 3 1	8
775.0168	1	11	3	554	1	1	0 0 3	1
777.0954	1	11	1	414.9	1	1	1 0 0	2
779.7394	1	11	2	453.1	1	1	0 2 0	3
783.3313	1	11	2	443.5	1	1	0 2 0	4
785.7425	1	11	3	510.4	1	1	0 0 3	5
789.218	1	11	2	397.1	1	1	0 2 0	6
791.9119	1	11	1	381.4	1	1	1 0 0	7
794.2732	1	12	2	802.5	1	1	2 1 1	1
797.4494	1	12	1	585.7	1	1	2 1 2	2
800.7918	1	12	1	511.6	1	1	2 2 1	3
803.6354	1	11	2	458.2	1	1	0 2 0	1
805.9468	1	11	2	352.4	1	1	0 2 0	2
808.3746	1	11	3	440.6	1	1	0 0 3	3
810.4533	1	11	2	401.5	1	1	0 2 0	4
813.8622	1	11	2	394.6	1	1	0 2 0	5
816.7557	1	11	3	441.6	1	1	0 0 3	6
819.1337	1	12	3	786.9	1	1	1 3 1	1
822.2433	1	12	3	783.4	1	1	2 3 2	2
825.6855	1	12	3	501.9	1	1	3 1 1	3
828.3295	1	12	2	584.6	1	1	2 3 3	4
