onset	duration	value	response	rt	good	TMS	delta	fixed	seq
93.4562	1	82	n/a	n/a	1	0	0	0	0
93.6782	1	82	n/a	n/a	1	0	0	0	0
93.9552	1	82	n/a	n/a	1	0	0	0	0
94.0212	1	82	n/a	n/a	1	0	0	0	0
94.0542	1	82	n/a	n/a	1	0	0	0	0
94.4562	1	82	n/a	n/a	1	0	0	0	0
94.5992	1	82	n/a	n/a	1	0	0	0	0
94.8242	1	82	n/a	n/a	1	0	0	0	0
94.8722	1	82	n/a	n/a	1	0	0	0	0
95.2172	1	82	n/a	n/a	1	0	0	0	0
96.395	1	10	725.4	725.4	1	52	0	0	1
97.4616	1	10	266.8	266.8	1	52	0	0	2
98.5448	1	10	207.5	207.5	1	52	-0.1	0	3
99.6282	1	21	228.3	228.3	1	52	0.2	0	0
100.9448	1	10	383.7	383.7	1	52	1.4552e-11	0	1
102.0446	1	10	291.6	291.6	1	52	-0.2	0	2
103.1112	1	10	185	185	1	52	0	0	3
104.1778	1	21	-99	-99	1	52	0	0	0
105.2112	1	10	213.1	213.1	1	52	0.1	0	1
106.4778	1	10	226.5	226.5	1	52	0	0	2
107.711	1	10	209.3	209.3	1	52	0	0	3
108.811	1	10	229.2	229.2	1	52	0	0	4
110.0108	1	10	-99	-99	1	52	-0.1	0	5
111.2108	1	21	-99	-99	1	52	0	0	0
112.344	1	10	216.1	216.1	1	52	-1.4552e-11	0	1
113.4274	1	10	204.8	204.8	1	52	0.1	0	2
114.6772	1	10	234.8	234.8	1	52	-0.2	0	3
115.9772	1	10	246.8	246.8	1	52	0.1	0	4
117.2938	1	10	210.2	210.2	1	52	1.4552e-11	0	5
118.477	1	10	227	227	1	52	-1.4552e-11	0	6
119.2424	1	82	n/a	n/a	1	0	-0.1	0	0
119.5784	1	82	n/a	n/a	1	0	0	0	0
119.8394	1	82	n/a	n/a	1	0	0	0	0
119.9574	1	82	n/a	n/a	1	0	0	0	0
120.0034	1	82	n/a	n/a	1	0	0	0	0
120.2424	1	82	n/a	n/a	1	0	0	0	0
120.4014	1	82	n/a	n/a	1	0	0	0	0
120.7884	1	82	n/a	n/a	1	0	0	0	0
120.8504	1	82	n/a	n/a	1	0	0	0	0
121.1354	1	82	n/a	n/a	1	0	0	0	0
122.4434	1	10	468.4	468.4	1	52	0	0	1
123.4934	1	10	234.4	234.4	1	52	0	0	2
124.7434	1	10	248.5	248.5	1	52	0.1	0	3
125.9932	1	21	230.6	230.6	1	52	-0.1	0	0
127.0764	1	10	299.3	299.3	1	52	-0.1	0	1
128.1598	1	21	223.9	223.9	1	52	0.1	0	0
129.2096	1	10	374	374	1	52	-0.1	0	1
130.2596	1	21	268	268	1	52	0	0	0
131.4596	1	10	268.1	268.1	1	52	0.1	0	1
132.7428	1	10	296.8	296.8	1	52	-0.1	0	2
133.9594	1	10	328.1	328.1	1	52	0	0	3
135.076	1	10	283.5	283.5	1	52	2.9104e-11	0	4
136.2926	1	10	250.9	250.9	1	52	0	0	5
137.5426	1	10	281	281	1	52	0.1	0	6
138.6758	1	10	283.7	283.7	1	52	-0.1	0	7
139.809	1	21	-99	-99	1	52	-0.1	0	0
141.0924	1	10	171.1	171.1	1	52	0.2	0	1
142.3756	1	21	101	101	1	52	-0.1	0	0
143.5922	1	10	295.2	295.2	1	52	0	0	1
144.6922	1	10	267.3	267.3	1	52	0.1	0	2
145.6258	1	82	n/a	n/a	1	0	-0.1	0	0
145.9638	1	82	n/a	n/a	1	0	0	0	0
145.9968	1	82	n/a	n/a	1	0	0	0	0
146.1418	1	82	n/a	n/a	1	0	0	0	0
146.4398	1	82	n/a	n/a	1	0	0	0	0
146.6258	1	82	n/a	n/a	1	0	0	0	0
146.7358	1	82	n/a	n/a	1	0	0	0	0
146.9678	1	82	n/a	n/a	1	0	0	0	0
147.1548	1	82	n/a	n/a	1	0	0	0	0
147.4548	1	82	n/a	n/a	1	0	0	0	0
148.7252	1	10	442	442	1	52	-0.1	0	1
149.9252	1	21	250.1	250.1	1	52	0.1	0	0
150.975	1	10	288.1	288.1	1	52	-0.2	0	1
152.025	1	10	310.2	310.2	1	52	0.1	0	2
153.2916	1	10	243.5	243.5	1	52	2.9104e-11	0	3
154.5582	1	21	-99	-99	1	52	0	0	0
155.6914	1	10	227.6	227.6	1	52	-0.1	0	1
156.8248	1	21	278.4	278.4	1	52	0.2	0	0
158.1246	1	10	418.4	418.4	1	52	-0.2	0	1
159.4246	1	21	302.4	302.4	1	52	0.1	0	0
160.6912	1	10	331.8	331.8	1	52	0	0	1
161.8078	1	10	335.2	335.2	1	52	-2.9104e-11	0	2
162.9244	1	10	274.6	274.6	1	52	2.9104e-11	0	3
164.041	1	21	-99	-99	1	52	-2.9104e-11	0	0
165.1076	1	10	251.4	251.4	1	52	2.9104e-11	0	1
166.2408	1	10	222	222	1	52	-0.1	0	2
167.3074	1	10	259.4	259.4	1	52	-2.9104e-11	0	3
168.5406	1	10	306.1	306.1	1	52	-0.1	0	4
169.7072	1	10	307.5	307.5	1	52	2.9104e-11	0	5
170.8738	1	21	260.9	260.9	1	52	-5.8208e-11	0	0
171.9884	1	82	n/a	n/a	1	0	0.1	0	0
172.3654	1	82	n/a	n/a	1	0	0	0	0
172.4104	1	82	n/a	n/a	1	0	0	0	0
172.5404	1	82	n/a	n/a	1	0	0	0	0
172.8164	1	82	n/a	n/a	1	0	0	0	0
172.9884	1	82	n/a	n/a	1	0	0	0	0
173.0874	1	82	n/a	n/a	1	0	0	0	0
173.2124	1	82	n/a	n/a	1	0	0	0	0
173.5844	1	82	n/a	n/a	1	0	0	0	0
173.8954	1	82	n/a	n/a	1	0	0	0	0
175.1736	1	10	473	473	1	52	-0.1	0	1
176.2902	1	10	348.4	348.4	1	52	2.9104e-11	0	2
177.3402	1	10	274.5	274.5	1	52	0.1	0	3
178.3902	1	21	-99	-99	1	52	0	0	0
179.64	1	10	246.5	246.5	1	52	-0.1	0	1
180.8232	1	10	311.2	311.2	1	52	-0.1	0	2
182.1232	1	10	259.3	259.3	1	52	0.1	0	3
183.2732	1	10	325.2	325.2	1	52	0	0	4
184.373	1	10	281.3	281.3	1	52	-0.1	0	5
185.4896	1	10	284.7	284.7	1	52	2.9104e-11	0	6
186.8062	1	10	296.1	296.1	1	52	-2.9104e-11	0	7
188.1228	1	21	259.5	259.5	1	52	0	0	0
189.2062	1	10	280.2	280.2	1	52	0.1	0	1
190.2894	1	21	-99	-99	1	52	-0.1	0	0
191.406	1	10	240.2	240.2	1	52	0	0	1
192.706	1	10	-99	-99	1	52	0.1	0	2
193.9226	1	10	251.7	251.7	1	52	0	0	3
194.9892	1	10	273.1	273.1	1	52	2.9104e-11	0	4
196.1224	1	10	275.8	275.8	1	52	-0.1	0	5
197.2556	1	21	-99	-99	1	52	-0.1	0	0
198.2754	1	82	n/a	n/a	1	0	0.1	0	0
198.5014	1	82	n/a	n/a	1	0	51	0	0
198.8874	1	82	n/a	n/a	1	0	335	0	0
199.1434	1	82	n/a	n/a	1	0	-130	0	0
199.2762	1	82	n/a	n/a	1	0	-123.2	0	0
199.6532	1	82	n/a	n/a	1	0	244.2	0	0
199.6992	1	82	n/a	n/a	1	0	-331	0	0
199.8702	1	82	n/a	n/a	1	0	125	0	0
200.1342	1	82	n/a	n/a	1	0	93	0	0
199.8716	1	82	n/a	n/a	1	0	1073.8	1	0
201.472	1	10	286	286	1	52	-264.1	0	1
202.772	1	21	250.1	250.1	1	52	0.1	0	0
204.0052	1	10	216.7	216.7	1	52	-0.1	0	1
205.2218	1	10	232.1	232.1	1	52	0	0	2
206.4884	1	10	293.5	293.5	1	52	-2.9104e-11	0	3
207.755	1	21	-99	-99	1	52	2.9104e-11	0	0
208.9382	1	10	259.6	259.6	1	52	-0.1	0	1
210.1382	1	21	-99	-99	1	52	0.1	0	0
211.4048	1	10	209	209	1	52	0	0	1
212.7214	1	10	268.4	268.4	1	52	-2.9104e-11	0	2
213.788	1	10	273.8	273.8	1	52	2.9104e-11	0	3
215.038	1	10	255.8	255.8	1	52	0	0	4
216.1712	1	10	306.5	306.5	1	52	0	0	5
217.3044	1	21	-99	-99	1	52	-0.1	0	0
218.4544	1	10	231.3	231.3	1	52	0.1	0	1
219.5544	1	10	235.3	235.3	1	52	0	0	2
220.821	1	10	216.7	216.7	1	52	2.9104e-11	0	3
221.9876	1	10	282.1	282.1	1	52	-2.9104e-11	0	4
223.1042	1	10	301.4	301.4	1	52	2.9104e-11	0	5
224.254	1	10	303.5	303.5	1	52	-0.1	0	6
252.9818	1	82	n/a	n/a	1	0	-0.2	0	0
253.0078	1	82	n/a	n/a	1	0	0	0	0
253.1638	1	82	n/a	n/a	1	0	0	0	0
253.4518	1	82	n/a	n/a	1	0	0	0	0
253.7088	1	82	n/a	n/a	1	0	0	0	0
253.9818	1	82	n/a	n/a	1	0	0	0	0
254.3098	1	82	n/a	n/a	1	0	0	0	0
254.4138	1	82	n/a	n/a	1	0	0	0	0
254.4538	1	82	n/a	n/a	1	0	0	0	0
254.8218	1	82	n/a	n/a	1	0	0	0	0
255.9188	1	10	430	430	1	50	0	0	1
257.0854	1	10	271.3	271.3	1	50	-0.1	0	2
258.2354	1	10	289.4	289.4	1	50	0.1	0	3
259.5186	1	10	238	238	1	50	-0.1	0	4
260.5518	1	10	244.8	244.8	1	50	-2.9104e-11	0	5
261.8352	1	10	225.5	225.5	1	50	0.1	0	6
263.0018	1	10	226.9	226.9	1	50	-5.8208e-11	0	7
264.1684	1	21	228.3	228.3	1	50	5.8208e-11	0	0
265.4182	1	10	514.4	514.4	1	50	-0.1	0	1
266.6016	1	10	275	275	1	50	0.1	0	2
267.7682	1	10	276.4	276.4	1	50	5.8208e-11	0	3
268.9348	1	21	261.8	261.8	1	50	-5.8208e-11	0	0
270.1846	1	10	307.8	307.8	1	50	-0.2	0	1
271.2512	1	10	217.2	217.2	1	50	5.8208e-11	0	2
272.5346	1	10	278	278	1	50	0.2	0	3
273.801	1	10	275.3	275.3	1	50	-0.2	0	4
274.9676	1	10	292.7	292.7	1	50	-5.8208e-11	0	5
276.1342	1	21	-99	-99	1	50	-0.1	0	0
277.2342	1	10	218.1	218.1	1	50	0.1	0	1
278.3342	1	21	-99	-99	1	50	0.1	0	0
279.2558	1	82	n/a	n/a	1	0	-0.2	0	0
279.6918	1	82	n/a	n/a	1	0	0	0	0
279.8038	1	82	n/a	n/a	1	0	0	0	0
279.9628	1	82	n/a	n/a	1	0	0	0	0
280.2128	1	82	n/a	n/a	1	0	0	0	0
280.2558	1	82	n/a	n/a	1	0	0	0	0
280.3478	1	82	n/a	n/a	1	0	0	0	0
280.6448	1	82	n/a	n/a	1	0	0	0	0
280.7628	1	82	n/a	n/a	1	0	0	0	0
280.9918	1	82	n/a	n/a	1	0	0	0	0
282.2172	1	10	306.9	306.9	1	50	0	0	1
283.5006	1	10	335.7	335.7	1	50	0.2	0	2
284.6172	1	10	275.1	275.1	1	50	0	0	3
285.767	1	10	213	213	1	50	-0.2	0	4
286.967	1	10	213.1	213.1	1	50	0.1	0	5
288.167	1	10	293.1	293.1	1	50	0	0	6
289.4336	1	10	290.5	290.5	1	50	-5.8208e-11	0	7
290.7	1	21	-99	-99	1	50	-0.2	0	0
291.75	1	10	230	230	1	50	0.1	0	1
292.8	1	10	252	252	1	50	0.1	0	2
294.0332	1	10	234.7	234.7	1	50	-0.1	0	3
295.2664	1	21	233.4	233.4	1	50	-0.1	0	0
296.533	1	10	278.8	278.8	1	50	0	0	1
297.7996	1	21	260.2	260.2	1	50	-5.8208e-11	0	0
299.0996	1	10	320.2	320.2	1	50	0.1	0	1
300.2996	1	10	432.2	432.2	1	50	0	0	2
301.4828	1	10	385	385	1	50	0	0	3
302.666	1	10	337.7	337.7	1	50	-0.1	0	4
303.8826	1	10	305.1	305.1	1	50	-5.8208e-11	0	5
305.0992	1	21	-99	-99	1	50	5.8208e-11	0	0
305.859	1	82	n/a	n/a	1	0	0.1	0	0
306.038	1	82	n/a	n/a	1	0	0	0	0
306.092	1	82	n/a	n/a	1	0	0	0	0
306.324	1	82	n/a	n/a	1	0	0	0	0
306.669	1	82	n/a	n/a	1	0	0	0	0
306.859	1	82	n/a	n/a	1	0	-0.1	0	0
307.228	1	82	n/a	n/a	1	0	0	0	0
307.398	1	82	n/a	n/a	1	0	0	0	0
307.423	1	82	n/a	n/a	1	0	0	0	0
307.749	1	82	n/a	n/a	1	0	0	0	0
308.899	1	10	312.6	312.6	1	50	0	0	1
309.949	1	10	302.7	302.7	1	50	0.1	0	2
311.2156	1	10	44	44	1	50	0	0	3
312.3154	1	10	288	288	1	50	-0.2	0	4
313.532	1	10	383.4	383.4	1	50	-5.8208e-11	0	5
314.7486	1	21	-99	-99	1	50	0	0	0
315.8986	1	10	320.9	320.9	1	50	0.1	0	1
317.0486	1	21	-99	-99	1	50	0	0	0
318.1152	1	10	248.2	248.2	1	50	5.8208e-11	0	1
319.1818	1	21	-99	-99	1	50	0	0	0
320.4484	1	10	235	235	1	50	0	0	1
321.715	1	21	-99	-99	1	50	0	0	0
322.8982	1	10	249	249	1	50	-0.1	0	1
324.0648	1	10	458.4	458.4	1	50	-5.8208e-11	0	2
325.3646	1	10	262.5	262.5	1	50	-0.1	0	3
326.6646	1	21	-99	-99	1	50	0.1	0	0
327.8312	1	10	324	324	1	50	5.8208e-11	0	1
329.0144	1	10	340.7	340.7	1	50	-0.1	0	2
330.1144	1	10	264.6	264.6	1	50	0	0	3
331.431	1	10	260	260	1	50	0	0	4
332.2134	1	82	n/a	n/a	1	0	-0.1	0	0
332.2844	1	82	n/a	n/a	1	0	0	0	0
332.3794	1	82	n/a	n/a	1	0	0	0	0
332.5264	1	82	n/a	n/a	1	0	0	0	0
332.8644	1	82	n/a	n/a	1	0	0	0	0
333.2134	1	82	n/a	n/a	1	0	0	0	0
333.5294	1	82	n/a	n/a	1	0	0	0	0
333.5804	1	82	n/a	n/a	1	0	0	0	0
333.7474	1	82	n/a	n/a	1	0	0	0	0
334.0174	1	82	n/a	n/a	1	0	0	0	0
335.1474	1	10	319.6	319.6	1	50	0.1	0	1
336.314	1	10	416.9	416.9	1	50	0	0	2
337.414	1	10	244.9	244.9	1	50	0	0	3
338.5806	1	10	262.3	262.3	1	50	-5.8208e-11	0	4
339.7972	1	10	229.7	229.7	1	50	5.8208e-11	0	5
341.0304	1	10	244.5	244.5	1	50	0	0	6
342.0804	1	10	346.5	346.5	1	50	0	0	7
343.1304	1	21	-99	-99	1	50	0.1	0	0
344.3968	1	10	269.9	269.9	1	50	-0.2	0	1
345.6634	1	10	219.3	219.3	1	50	5.8208e-11	0	2
346.83	1	10	300.7	300.7	1	50	-5.8208e-11	0	3
348.1466	1	10	248.1	248.1	1	50	0	0	4
349.2632	1	10	363.4	363.4	1	50	5.8208e-11	0	5
350.3798	1	21	-99	-99	1	50	-0.1	0	0
351.6298	1	10	492.8	492.8	1	50	0.1	0	1
352.9298	1	10	232.9	232.9	1	50	0.1	0	2
353.9796	1	10	238.9	238.9	1	50	-0.2	0	3
355.1962	1	10	334.2	334.2	1	50	0	0	4
356.3128	1	10	337.6	337.6	1	50	0	0	5
357.4294	1	21	-99	-99	1	50	0	0	0
358.4902	1	82	n/a	n/a	1	0	0.1	0	0
358.5842	1	82	n/a	n/a	1	0	0	0	0
359.0082	1	82	n/a	n/a	1	0	0	0	0
359.1542	1	82	n/a	n/a	1	0	0	0	0
359.4092	1	82	n/a	n/a	1	0	0	0	0
359.4902	1	82	n/a	n/a	1	0	0	0	0
359.6142	1	82	n/a	n/a	1	0	0	0	0
359.8952	1	82	n/a	n/a	1	0	0	0	0
360.2822	1	82	n/a	n/a	1	0	0	0	0
360.3702	1	82	n/a	n/a	1	0	0	0	0
361.5126	1	10	289.8	289.8	1	50	-5.8208e-11	0	1
362.8124	1	10	173.9	173.9	1	50	-0.1	0	2
364.029	1	10	237.3	237.3	1	50	0	0	3
365.2456	1	21	236.7	236.7	1	50	0	0	0
366.3456	1	10	240.7	240.7	1	50	0	0	1
367.4122	1	10	262.1	262.1	1	50	0	0	2
368.4454	1	10	284.7	284.7	1	50	-0.1	0	3
369.562	1	10	288.1	288.1	1	50	0	0	4
370.7786	1	10	335.5	335.5	1	50	-5.8208e-11	0	5
371.9952	1	21	-99	-99	1	50	5.8208e-11	0	0
373.2952	1	10	235	235	1	50	0.1	0	1
374.5952	1	10	230.9	230.9	1	50	0	0	2
375.7784	1	10	279.7	279.7	1	50	0	0	3
376.995	1	10	279.1	279.1	1	50	0	0	4
378.2116	1	10	278.5	278.5	1	50	0	0	5
379.4448	1	10	277.2	277.2	1	50	-0.1	0	6
380.678	1	10	403.8	403.8	1	50	-0.1	0	7
381.9114	1	21	-99	-99	1	50	0.2	0	0
382.9946	1	10	279.3	279.3	1	50	-0.1	0	1
384.0946	1	21	235.3	235.3	1	50	0	0	0
398.8274	1	81	n/a	n/a	1	0	-0.1	0	0
399.0274	1	81	n/a	n/a	1	0	0	0	0
399.2274	1	81	n/a	n/a	1	0	0	0	0
399.4274	1	81	n/a	n/a	1	0	0	0	0
399.6274	1	81	n/a	n/a	1	0	0	0	0
399.8274	1	81	n/a	n/a	1	0	0	0	0
400.0274	1	81	n/a	n/a	1	0	0	0	0
400.2274	1	81	n/a	n/a	1	0	0	0	0
400.4274	1	81	n/a	n/a	1	0	0	0	0
400.6274	1	81	n/a	n/a	1	0	0	0	0
401.9102	1	10	419.3	419.3	1	51	0	0	1
403.0268	1	10	262.7	262.7	1	51	0	0	2
404.1266	1	10	218.8	218.8	1	51	-0.1	0	3
405.3432	1	10	266.2	266.2	1	51	5.8208e-11	0	4
406.6266	1	10	262.8	262.8	1	51	0.1	0	5
407.9098	1	21	-99	-99	1	51	-0.1	0	0
408.943	1	10	218.2	218.2	1	51	-0.1	0	1
410.2596	1	10	245.6	245.6	1	51	0	0	2
411.3096	1	10	299.7	299.7	1	51	0.1	0	3
412.4762	1	10	253	253	1	51	5.8208e-11	0	4
413.5762	1	10	305.1	305.1	1	51	0.1	0	5
414.676	1	21	-99	-99	1	51	-0.2	0	0
415.7594	1	10	249.8	249.8	1	51	0.1	0	1
416.926	1	10	267.2	267.2	1	51	0	0	2
418.1592	1	10	249.9	249.9	1	51	0	0	3
419.3924	1	21	232.6	232.6	1	51	-0.1	0	0
420.6756	1	10	245.3	245.3	1	51	-0.1	0	1
421.9756	1	10	305.4	305.4	1	51	0.1	0	2
423.0922	1	10	292.8	292.8	1	51	0	0	3
424.2254	1	10	295.5	295.5	1	51	-0.1	0	4
425.2788	1	81	n/a	n/a	1	0	0	0	0
425.4788	1	81	n/a	n/a	1	0	0	0	0
425.6788	1	81	n/a	n/a	1	0	0	0	0
425.8788	1	81	n/a	n/a	1	0	0	0	0
426.0788	1	81	n/a	n/a	1	0	0	0	0
426.2788	1	81	n/a	n/a	1	0	0	0	0
426.4788	1	81	n/a	n/a	1	0	0	0	0
426.6788	1	81	n/a	n/a	1	0	0	0	0
426.8788	1	81	n/a	n/a	1	0	0	0	0
427.0788	1	81	n/a	n/a	1	0	0	0	0
428.4586	1	10	462.3	462.3	1	51	0.1	0	1
429.6752	1	10	269.7	269.7	1	51	0	0	2
430.925	1	10	251.7	251.7	1	51	-0.1	0	3
432.0916	1	10	333.1	333.1	1	51	-5.8208e-11	0	4
433.2082	1	10	304.4	304.4	1	51	-0.1	0	5
434.3248	1	21	-99	-99	1	51	-5.8208e-11	0	0
435.4414	1	10	359.2	359.2	1	51	5.8208e-11	0	1
436.708	1	10	308.6	308.6	1	51	-5.8208e-11	0	2
438.008	1	10	256.6	256.6	1	51	0.1	0	3
439.1746	1	10	306	306	1	51	-5.8208e-11	0	4
440.4412	1	10	255.4	255.4	1	51	5.8208e-11	0	5
441.7078	1	21	284.8	284.8	1	51	0	0	0
442.741	1	10	243.4	243.4	1	51	-0.1	0	1
443.991	1	10	481.5	481.5	1	51	0.1	0	2
445.041	1	10	487.5	487.5	1	51	0	0	3
446.0908	1	21	-99	-99	1	51	-0.1	0	0
447.2908	1	10	269.7	269.7	1	51	0.1	0	1
448.4908	1	21	269.7	269.7	1	51	0	0	0
449.8072	1	10	329	329	1	51	-0.2	0	1
451.0738	1	10	230.4	230.4	1	51	0	0	2
452.1502	1	81	n/a	n/a	1	0	0	0	0
452.3502	1	81	n/a	n/a	1	0	0	0	0
452.5502	1	81	n/a	n/a	1	0	0	0	0
452.7502	1	81	n/a	n/a	1	0	0	0	0
452.9502	1	81	n/a	n/a	1	0	0	0	0
453.1504	1	81	n/a	n/a	1	0	0.2	0	0
453.3504	1	81	n/a	n/a	1	0	0	0	0
453.5504	1	81	n/a	n/a	1	0	0	0	0
453.7504	1	81	n/a	n/a	1	0	0	0	0
453.9502	1	81	n/a	n/a	1	0	-0.2	0	0
455.257	1	10	415.3	415.3	1	51	0.1	0	1
456.4736	1	21	286.6	286.6	1	51	0	0	0
457.5902	1	10	274	274	1	51	5.8208e-11	0	1
458.7068	1	10	213.4	213.4	1	51	-5.8208e-11	0	2
459.79	1	10	234.1	234.1	1	51	-0.1	0	3
460.9232	1	10	284.8	284.8	1	51	-0.1	0	4
462.0232	1	10	288.9	288.9	1	51	0.1	0	5
463.2898	1	10	238.2	238.2	1	51	0	0	6
464.4398	1	10	288.3	288.3	1	51	0.1	0	7
465.5896	1	21	-99	-99	1	51	-0.2	0	0
466.723	1	10	261	261	1	51	0.1	0	1
467.8562	1	10	231.7	231.7	1	51	0	0	2
469.1894	1	10	242.4	242.4	1	51	-0.1	0	3
470.3228	1	10	245.1	245.1	1	51	0.1	0	4
471.6394	1	10	256.5	256.5	1	51	0	0	5
472.956	1	21	219.9	219.9	1	51	0	0	0
474.1226	1	10	301.2	301.2	1	51	0	0	1
475.2392	1	10	240.7	240.7	1	51	0	0	2
476.389	1	10	242.7	242.7	1	51	-0.1	0	3
477.539	1	21	276.7	276.7	1	51	0	0	0
478.5604	1	81	n/a	n/a	1	0	0	0	0
478.7604	1	81	n/a	n/a	1	0	0	0	0
478.9604	1	81	n/a	n/a	1	0	0	0	0
479.1604	1	81	n/a	n/a	1	0	0	0	0
479.3604	1	81	n/a	n/a	1	0	0	0	0
479.5604	1	81	n/a	n/a	1	0	0	0	0
479.7604	1	81	n/a	n/a	1	0	0	0	0
479.9604	1	81	n/a	n/a	1	0	0	0	0
480.1604	1	81	n/a	n/a	1	0	0	0	0
480.3604	1	81	n/a	n/a	1	0	0	0	0
481.6554	1	10	320.2	320.2	1	51	0	0	1
482.7554	1	10	388.2	388.2	1	51	0	0	2
483.9552	1	10	276.3	276.3	1	51	-0.1	0	3
485.1552	1	21	-99	-99	1	51	0.1	0	0
486.4384	1	10	225.1	225.1	1	51	-0.1	0	1
487.5884	1	10	259.1	259.1	1	51	0.1	0	2
488.655	1	10	312.5	312.5	1	51	0	0	3
489.6882	1	10	335.2	335.2	1	51	-0.1	0	4
490.9548	1	10	220.6	220.6	1	51	0	0	5
492.0382	1	10	353.3	353.3	1	51	0.1	0	6
493.138	1	10	357.4	357.4	1	51	-0.1	0	7
494.238	1	21	-99	-99	1	51	0	0	0
495.438	1	10	233.4	233.4	1	51	0.1	0	1
496.6378	1	21	217.4	217.4	1	51	-0.2	0	0
497.7878	1	10	219.5	219.5	1	51	0.1	0	1
499.0876	1	10	215.6	215.6	1	51	-0.1	0	2
500.2376	1	10	265.6	265.6	1	51	0	0	3
501.5208	1	10	-99	-99	1	51	5.8208e-11	0	4
502.7042	1	10	247	247	1	51	0.1	0	5
503.8874	1	21	-99	-99	1	51	-0.1	0	0
504.792	1	81	n/a	n/a	1	0	-0.1	0	0
504.992	1	81	n/a	n/a	1	0	0	0	0
505.192	1	81	n/a	n/a	1	0	0	0	0
505.392	1	81	n/a	n/a	1	0	0	0	0
505.592	1	81	n/a	n/a	1	0	0	0	0
505.792	1	81	n/a	n/a	1	0	0	0	0
505.992	1	81	n/a	n/a	1	0	0	0	0
506.192	1	81	n/a	n/a	1	0	0	0	0
506.392	1	81	n/a	n/a	1	0	0	0	0
506.592	1	81	n/a	n/a	1	0	0	0	0
507.7206	1	10	286.5	286.5	1	51	0.2	0	1
509.0204	1	10	250.6	250.6	1	51	-0.1	0	2
510.3204	1	10	278.6	278.6	1	51	0	0	3
511.587	1	10	244	244	1	51	0	0	4
512.8368	1	10	258	258	1	51	-0.1	0	5
514.0868	1	21	288.1	288.1	1	51	0.1	0	0
515.12	1	10	358.8	358.8	1	51	-0.1	0	1
516.1866	1	10	204.2	204.2	1	51	0	0	2
517.27	1	10	224.9	224.9	1	51	0.1	0	3
518.3532	1	21	-99	-99	1	51	-0.1	0	0
519.5032	1	10	215.7	215.7	1	51	0.1	0	1
520.803	1	10	243.6	243.6	1	51	-0.2	0	2
521.853	1	10	313.7	313.7	1	51	0.1	0	3
522.953	1	10	477.8	477.8	1	51	0.1	0	4
524.1196	1	10	335.2	335.2	1	51	-5.8208e-11	0	5
525.2862	1	21	-99	-99	1	51	-0.1	0	0
526.4028	1	10	259.8	259.8	1	51	0	0	1
527.5194	1	21	263.2	263.2	1	51	0	0	0
528.586	1	10	220.6	220.6	1	51	0	0	1
529.8858	1	10	-99	-99	1	51	-0.1	0	2
749.8476	1	82	n/a	n/a	1	0	-1.4	0	0
749.8736	1	82	n/a	n/a	1	0	0	0	0
749.9336	1	82	n/a	n/a	1	0	0	0	0
750.2496	1	82	n/a	n/a	1	0	0	0	0
750.6546	1	82	n/a	n/a	1	0	0	0	0
750.8476	1	82	n/a	n/a	1	0	-0.1	0	0
751.1716	1	82	n/a	n/a	1	0	0	0	0
751.4496	1	82	n/a	n/a	1	0	0	0	0
751.6396	1	82	n/a	n/a	1	0	0	0	0
751.7956	1	82	n/a	n/a	1	0	0	0	0
752.9892	1	10	692.1	692.1	1	52	-0.1	0	1
754.2892	1	10	224.2	224.2	1	52	0.1	0	2
755.3724	1	10	228.9	228.9	1	52	-0.1	0	3
756.639	1	10	290.3	290.3	1	52	0	0	4
757.6724	1	10	265	265	1	52	0.1	0	5
758.7056	1	21	-99	-99	1	52	-0.1	0	0
759.9554	1	10	237.7	237.7	1	52	-0.1	0	1
761.0888	1	10	208.4	208.4	1	52	0.1	0	2
762.222	1	10	275.2	275.2	1	52	0	0	3
763.4386	1	10	274.6	274.6	1	52	-1.1642e-10	0	4
764.7386	1	10	238.6	238.6	1	52	0	0	5
766.0384	1	21	282.6	282.6	1	52	-0.1	0	0
767.255	1	10	266	266	1	52	-1.1642e-10	0	1
768.4716	1	21	-99	-99	1	52	0	0	0
769.605	1	10	204.1	204.1	1	52	0.1	0	1
770.6882	1	10	224.8	224.8	1	52	-0.1	0	2
771.7714	1	10	245.5	245.5	1	52	1.1642e-10	0	3
772.9048	1	10	248.2	248.2	1	52	0.1	0	4
774.138	1	10	294.9	294.9	1	52	-0.1	0	5
775.1712	1	10	269.6	269.6	1	52	-0.1	0	6
775.9738	1	82	n/a	n/a	1	0	0.1	0	0
775.9978	1	82	n/a	n/a	1	0	0	0	0
776.2868	1	82	n/a	n/a	1	0	0	0	0
776.4038	1	82	n/a	n/a	1	0	0	0	0
776.4968	1	82	n/a	n/a	1	0	0	0	0
776.9738	1	82	n/a	n/a	1	0	0	0	0
777.2738	1	82	n/a	n/a	1	0	0	0	0
777.6918	1	82	n/a	n/a	1	0	0	0	0
777.8568	1	82	n/a	n/a	1	0	0	0	0
777.8878	1	82	n/a	n/a	1	0	0	0	0
779.1376	1	10	351.1	351.1	1	52	-0.1	0	1
780.3876	1	10	253.2	253.2	1	52	0.1	0	2
781.5208	1	10	255.9	255.9	1	52	-0.1	0	3
782.7874	1	10	253.3	253.3	1	52	-1.1642e-10	0	4
783.8208	1	10	244	244	1	52	0.1	0	5
784.854	1	21	250.6	250.6	1	52	-0.1	0	0
785.8872	1	10	257.3	257.3	1	52	-0.1	0	1
786.9206	1	21	-99	-99	1	52	0.2	0	0
788.2204	1	10	244.1	244.1	1	52	-0.2	0	1
789.4204	1	10	260.2	260.2	1	52	0.1	0	2
790.4536	1	10	234.9	234.9	1	52	-0.1	0	3
791.7036	1	10	232.9	232.9	1	52	0.1	0	4
792.8202	1	10	252.3	252.3	1	52	0	0	5
793.9368	1	21	-99	-99	1	52	1.1642e-10	0	0
795.17	1	10	254.4	254.4	1	52	-0.1	0	1
796.3534	1	10	255.1	255.1	1	52	0.1	0	2
797.47	1	10	274.5	274.5	1	52	0	0	3
798.5866	1	21	-99	-99	1	52	0	0	0
799.9032	1	10	257.2	257.2	1	52	0	0	1
801.2198	1	21	236.6	236.6	1	52	1.1642e-10	0	0
802.0322	1	82	n/a	n/a	1	0	-0.1	0	0
802.1862	1	82	n/a	n/a	1	0	0	0	0
802.2182	1	82	n/a	n/a	1	0	0	0	0
802.6082	1	82	n/a	n/a	1	0	0	0	0
802.9052	1	82	n/a	n/a	1	0	0	0	0
803.0322	1	82	n/a	n/a	1	0	0	0	0
803.1682	1	82	n/a	n/a	1	0	0	0	0
803.2242	1	82	n/a	n/a	1	0	0	0	0
803.3052	1	82	n/a	n/a	1	0	0	0	0
803.3302	1	82	n/a	n/a	1	0	0	0	0
805.1862	1	10	286.1	286.1	1	52	0.1	0	1
806.4694	1	10	250.8	250.8	1	52	-0.1	0	2
807.6026	1	10	285.5	285.5	1	52	-0.1	0	3
808.6526	1	10	291.6	291.6	1	52	0.1	0	4
809.8026	1	10	277.5	277.5	1	52	0	0	5
810.9524	1	21	-99	-99	1	52	-0.1	0	0
812.269	1	10	259	259	1	52	0	0	1
813.5856	1	21	254.4	254.4	1	52	0	0	0
814.8856	1	10	282.5	282.5	1	52	0.1	0	1
816.0354	1	10	252.4	252.4	1	52	-0.2	0	2
817.0854	1	10	290.5	290.5	1	52	0.1	0	3
818.1354	1	21	-99	-99	1	52	0	0	0
819.2686	1	10	251.3	251.3	1	52	0	0	1
820.4852	1	10	250.7	250.7	1	52	-1.1642e-10	0	2
821.6684	1	10	251.4	251.4	1	52	-0.1	0	3
822.8184	1	10	397.3	397.3	1	52	0	0	4
823.985	1	10	302.7	302.7	1	52	0	0	5
825.1516	1	10	320.1	320.1	1	52	-1.1642e-10	0	6
826.2348	1	10	308.9	308.9	1	52	1.1642e-10	0	7
827.3182	1	21	-99	-99	1	52	0.1	0	0
828.1548	1	82	n/a	n/a	1	0	-0.1	0	0
828.2698	1	82	n/a	n/a	1	0	0	0	0
828.5008	1	82	n/a	n/a	1	0	0	0	0
828.6958	1	82	n/a	n/a	1	0	0	0	0
829.1188	1	82	n/a	n/a	1	0	0	0	0
829.1548	1	82	n/a	n/a	1	0	-0.1	0	0
829.2608	1	82	n/a	n/a	1	0	0	0	0
829.3928	1	82	n/a	n/a	1	0	0	0	0
829.4628	1	82	n/a	n/a	1	0	0	0	0
829.6978	1	82	n/a	n/a	1	0	0	0	0
831.2012	1	10	286.4	286.4	1	52	0.1	0	1
832.4012	1	10	270.4	270.4	1	52	0	0	2
833.6178	1	10	301.8	301.8	1	52	1.1642e-10	0	3
834.8344	1	21	-99	-99	1	52	0	0	0
836.1176	1	10	265.8	265.8	1	52	-0.1	0	1
837.2342	1	10	317.2	317.2	1	52	0	0	2
838.4342	1	10	253.3	253.3	1	52	0.1	0	3
839.584	1	10	303.4	303.4	1	52	-0.1	0	4
840.8506	1	10	316.8	316.8	1	52	0	0	5
841.9672	1	10	288	288	1	52	-0.1	0	6
843.2006	1	10	286.8	286.8	1	52	0.2	0	7
844.4338	1	21	-99	-99	1	52	-0.1	0	0
845.467	1	10	292.2	292.2	1	52	-0.1	0	1
846.5004	1	21	266.9	266.9	1	52	0.1	0	0
847.7002	1	10	267	267	1	52	-0.1	0	1
848.9002	1	21	-99	-99	1	52	0.1	0	0
850.1502	1	10	233	233	1	52	0	0	1
851.35	1	10	473.1	473.1	1	52	-0.1	0	2
852.6334	1	10	325.8	325.8	1	52	0.1	0	3
853.9166	1	10	-99	-99	1	52	-1.1642e-10	0	4
854.9012	1	82	n/a	n/a	1	0	-0.2	0	0
855.1392	1	82	n/a	n/a	1	0	0	0	0
855.4542	1	82	n/a	n/a	1	0	0	0	0
855.6502	1	82	n/a	n/a	1	0	0	0	0
855.7122	1	82	n/a	n/a	1	0	0	0	0
855.9012	1	82	n/a	n/a	1	0	0	0	0
856.1352	1	82	n/a	n/a	1	0	0	0	0
856.1622	1	82	n/a	n/a	1	0	0	0	0
856.2262	1	82	n/a	n/a	1	0	0	0	0
856.3802	1	82	n/a	n/a	1	0	0	0	0
858.0496	1	10	365.4	365.4	1	52	0.1	0	1
859.1662	1	10	272.7	272.7	1	52	-0.1	0	2
860.2162	1	10	262.7	262.7	1	52	0.1	0	3
861.2662	1	21	396.8	396.8	1	52	0.1	0	0
862.416	1	10	286.8	286.8	1	52	-0.2	0	1
863.6994	1	10	267.6	267.6	1	52	0.2	0	2
864.8492	1	10	269.6	269.6	1	52	-0.2	0	3
866.0158	1	10	319	319	1	52	0	0	4
867.2492	1	10	413.7	413.7	1	52	0.1	0	5
868.549	1	10	265.7	265.7	1	52	-0.1	0	6
869.649	1	10	365.8	365.8	1	52	0.1	0	7
870.749	1	21	-99	-99	1	52	0	0	0
872.0154	1	10	287.2	287.2	1	52	-0.2	0	1
873.282	1	21	268.5	268.5	1	52	0	0	0
874.4154	1	10	399.2	399.2	1	52	0.1	0	1
875.6986	1	10	284	284	1	52	0	0	2
876.9486	1	10	314	314	1	52	0	0	3
878.1984	1	21	-99	-99	1	52	-0.1	0	0
879.3984	1	10	280.2	280.2	1	52	0.1	0	1
880.4816	1	10	300.8	300.8	1	52	-0.1	0	2
894.6782	1	81	n/a	n/a	1	0	-1.1642e-10	0	0
894.8782	1	81	n/a	n/a	1	0	0	0	0
895.0782	1	81	n/a	n/a	1	0	0	0	0
895.2782	1	81	n/a	n/a	1	0	0	0	0
895.4782	1	81	n/a	n/a	1	0	0	0	0
895.6782	1	81	n/a	n/a	1	0	-0.1	0	0
895.8782	1	81	n/a	n/a	1	0	0	0	0
896.0782	1	81	n/a	n/a	1	0	0	0	0
896.2782	1	81	n/a	n/a	1	0	0	0	0
896.4782	1	81	n/a	n/a	1	0	0	0	0
897.664	1	10	382.2	382.2	1	50	0.1	0	1
898.764	1	21	258.1	258.1	1	50	0	0	0
899.9972	1	10	336.9	336.9	1	50	-1.1642e-10	0	1
901.1138	1	10	292.2	292.2	1	50	-0.1	0	2
902.2138	1	10	360.3	360.3	1	50	0.1	0	3
903.2636	1	10	414.4	414.4	1	50	-0.1	0	4
904.3636	1	10	322.3	322.3	1	50	0	0	5
905.4636	1	21	-99	-99	1	50	0.1	0	0
906.68	1	10	261.8	261.8	1	50	-0.2	0	1
907.8966	1	21	245.2	245.2	1	50	0	0	0
909.0132	1	10	312.6	312.6	1	50	0	0	1
910.2798	1	10	342	342	1	50	1.1642e-10	0	2
911.5798	1	10	369.9	369.9	1	50	0	0	3
912.8964	1	10	397.3	397.3	1	50	0	0	4
914.113	1	10	396.7	396.7	1	50	-1.1642e-10	0	5
915.3296	1	21	-99	-99	1	50	0	0	0
916.5462	1	10	251.5	251.5	1	50	0	0	1
917.7628	1	10	634.8	634.8	1	50	1.1642e-10	0	2
918.9794	1	10	314.2	314.2	1	50	0	0	3
920.146	1	10	363.6	363.6	1	50	-1.1642e-10	0	4
920.9354	1	81	n/a	n/a	1	0	1.1642e-10	0	0
921.1354	1	81	n/a	n/a	1	0	0	0	0
921.3354	1	81	n/a	n/a	1	0	0	0	0
921.5354	1	81	n/a	n/a	1	0	0	0	0
921.7354	1	81	n/a	n/a	1	0	0	0	0
921.9354	1	81	n/a	n/a	1	0	0	0	0
922.1354	1	81	n/a	n/a	1	0	0	0	0
922.3354	1	81	n/a	n/a	1	0	0	0	0
922.5354	1	81	n/a	n/a	1	0	0	0	0
922.7354	1	81	n/a	n/a	1	0	0	0	0
924.0458	1	10	335.7	335.7	1	50	0	0	1
925.229	1	10	336.4	336.4	1	50	-0.1	0	2
926.3122	1	10	373.2	373.2	1	50	0	0	3
927.4122	1	10	361.2	361.2	1	50	0	0	4
928.5454	1	10	348	348	1	50	0	0	5
929.812	1	10	393.4	393.4	1	50	0	0	6
931.1286	1	10	308.7	308.7	1	50	0	0	7
932.4452	1	21	368.1	368.1	1	50	0	0	0
933.5452	1	10	308.1	308.1	1	50	0	0	1
934.845	1	10	464.2	464.2	1	50	-0.1	0	2
935.9116	1	10	245.6	245.6	1	50	0	0	3
937.0116	1	10	297.5	297.5	1	50	0	0	4
938.145	1	10	300.3	300.3	1	50	0.2	0	5
939.2782	1	21	-99	-99	1	50	-0.1	0	0
940.5114	1	10	269.7	269.7	1	50	-0.1	0	1
941.7446	1	21	252.3	252.3	1	50	-0.1	0	0
942.878	1	10	-99	-99	1	50	0.2	0	1
944.1112	1	10	253.8	253.8	1	50	-0.1	0	2
945.1444	1	10	276.5	276.5	1	50	-0.1	0	3
946.411	1	10	289.9	289.9	1	50	0	0	4
947.2784	1	81	n/a	n/a	1	0	0	0	0
947.4784	1	81	n/a	n/a	1	0	0	0	0
947.6784	1	81	n/a	n/a	1	0	0	0	0
947.8784	1	81	n/a	n/a	1	0	0	0	0
948.0784	1	81	n/a	n/a	1	0	0	0	0
948.2784	1	81	n/a	n/a	1	0	0	0	0
948.4784	1	81	n/a	n/a	1	0	0	0	0
948.6784	1	81	n/a	n/a	1	0	0	0	0
948.8784	1	81	n/a	n/a	1	0	0	0	0
949.0784	1	81	n/a	n/a	1	0	0	0	0
950.3108	1	10	358	358	1	50	0	0	1
951.4274	1	10	313.4	313.4	1	50	0	0	2
952.5274	1	10	365.5	365.5	1	50	0.1	0	3
953.6274	1	21	-99	-99	1	50	0	0	0
954.6606	1	10	456.3	456.3	1	50	0	0	1
955.6938	1	21	-99	-99	1	50	-0.1	0	0
956.7772	1	10	227.6	227.6	1	50	0.1	0	1
958.0104	1	10	242.3	242.3	1	50	-0.1	0	2
959.3104	1	10	254.4	254.4	1	50	0.1	0	3
960.6102	1	21	266.5	266.5	1	50	-0.1	0	0
961.6434	1	10	289.1	289.1	1	50	-0.1	0	1
962.86	1	10	304.5	304.5	1	50	0	0	2
964.0934	1	10	351.2	351.2	1	50	0.1	0	3
965.41	1	10	314.6	314.6	1	50	0	0	4
966.6098	1	10	330.7	330.7	1	50	-0.1	0	5
967.6932	1	10	303.3	303.3	1	50	0.1	0	6
968.793	1	10	371.4	371.4	1	50	-0.1	0	7
969.893	1	21	-99	-99	1	50	0	0	0
971.1262	1	10	342.2	342.2	1	50	-1.1642e-10	0	1
972.2262	1	10	266.2	266.2	1	50	0	0	2
973.21	1	81	n/a	n/a	1	0	0.1	0	0
973.41	1	81	n/a	n/a	1	0	0	0	0
973.61	1	81	n/a	n/a	1	0	0	0	0
973.81	1	81	n/a	n/a	1	0	0	0	0
974.01	1	81	n/a	n/a	1	0	0	0	0
974.21	1	81	n/a	n/a	1	0	-0.1	0	0
974.41	1	81	n/a	n/a	1	0	0	0	0
974.61	1	81	n/a	n/a	1	0	0	0	0
974.81	1	81	n/a	n/a	1	0	0	0	0
975.01	1	81	n/a	n/a	1	0	0	0	0
976.4092	1	10	371	371	1	50	-0.1	0	1
977.4592	1	10	281	281	1	50	0	0	2
978.7092	1	10	263.1	263.1	1	50	0.1	0	3
980.009	1	10	323.2	323.2	1	50	-0.1	0	4
981.0424	1	10	425.8	425.8	1	50	0.1	0	5
982.0756	1	21	-99	-99	1	50	-0.1	0	0
983.3756	1	10	252.6	252.6	1	50	0.1	0	1
984.5422	1	10	286	286	1	50	0	0	2
985.8254	1	10	298.7	298.7	1	50	-0.1	0	3
987.0754	1	10	392.7	392.7	1	50	0.1	0	4
988.1252	1	10	350.7	350.7	1	50	-0.2	0	5
989.1752	1	21	-99	-99	1	50	0.1	0	0
990.3584	1	10	277.5	277.5	1	50	-0.1	0	1
991.6584	1	10	257.6	257.6	1	50	0.1	0	2
992.725	1	10	375	375	1	50	-1.1642e-10	0	3
993.7916	1	21	-99	-99	1	50	0	0	0
994.9248	1	10	319	319	1	50	-0.1	0	1
996.1582	1	10	301.7	301.7	1	50	0.1	0	2
997.308	1	10	447.8	447.8	1	50	-0.1	0	3
998.358	1	10	325.8	325.8	1	50	0	0	4
999.3804	1	81	n/a	n/a	1	0	0	0	0
999.5804	1	81	n/a	n/a	1	0	0	0	0
999.7804	1	81	n/a	n/a	1	0	0	0	0
999.9804	1	81	n/a	n/a	1	0	0	0	0
1000.1804	1	81	n/a	n/a	1	0	0	0	0
1000.3804	1	81	n/a	n/a	1	0	0	0	0
1000.5804	1	81	n/a	n/a	1	0	0	0	0
1000.7804	1	81	n/a	n/a	1	0	0	0	0
1000.9804	1	81	n/a	n/a	1	0	0	0	0
1001.1804	1	81	n/a	n/a	1	0	0	0	0
1002.541	1	10	302.6	302.6	1	50	-0.1	0	1
1003.741	1	10	238.7	238.7	1	50	0.1	0	2
1005.0576	1	10	250.1	250.1	1	50	0	0	3
1006.3742	1	21	245.4	245.4	1	50	0	0	0
1007.4242	1	10	235.5	235.5	1	50	0.1	0	1
1008.474	1	21	273.5	273.5	1	50	-0.2	0	0
1009.7906	1	10	284.9	284.9	1	50	0	0	1
1011.1072	1	21	-99	-99	1	50	0	0	0
1012.3072	1	10	200.4	200.4	1	50	0.1	0	1
1013.607	1	10	356.3	356.3	1	50	-0.2	0	2
1014.707	1	10	424.4	424.4	1	50	0.1	0	3
1015.807	1	21	-99	-99	1	50	0.1	0	0
1016.9068	1	10	288.5	288.5	1	50	-0.2	0	1
1018.0068	1	10	276.6	276.6	1	50	0.1	0	2
1019.14	1	10	215.2	215.2	1	50	-0.1	0	3
1020.39	1	10	277.3	277.3	1	50	0.1	0	4
1021.4566	1	10	330.7	330.7	1	50	0	0	5
1022.5232	1	21	-99	-99	1	50	0	0	0
1023.7732	1	10	398.1	398.1	1	50	0	0	1
1025.023	1	21	252.1	252.1	1	50	-0.1	0	0
1043.2114	1	81	n/a	n/a	1	0	-0.1	0	0
1043.4114	1	81	n/a	n/a	1	0	0	0	0
1043.6114	1	81	n/a	n/a	1	0	0	0	0
1043.8114	1	81	n/a	n/a	1	0	0	0	0
1044.0114	1	81	n/a	n/a	1	0	0	0	0
1044.2114	1	81	n/a	n/a	1	0	0	0	0
1044.4114	1	81	n/a	n/a	1	0	0	0	0
1044.6114	1	81	n/a	n/a	1	0	0	0	0
1044.8114	1	81	n/a	n/a	1	0	0	0	0
1045.0114	1	81	n/a	n/a	1	0	0	0	0
1046.1384	1	10	480.2	480.2	1	51	-0.1	0	1
1047.2384	1	10	276.3	276.3	1	51	0.1	0	2
1048.2716	1	10	235	235	1	51	-0.1	0	3
1049.4382	1	10	236.3	236.3	1	51	0	0	4
1050.6882	1	10	250.4	250.4	1	51	0.1	0	5
1051.9882	1	10	230.4	230.4	1	51	0	0	6
1053.1548	1	10	247.8	247.8	1	51	2.3283e-10	0	7
1054.3214	1	21	-99	-99	1	51	-2.3283e-10	0	0
1055.4212	1	10	301.3	301.3	1	51	-0.1	0	1
1056.7212	1	10	249.2	249.2	1	51	0	0	2
1057.971	1	10	279.3	279.3	1	51	-0.1	0	3
1059.121	1	10	297.4	297.4	1	51	0.1	0	4
1060.2542	1	10	316.1	316.1	1	51	-0.1	0	5
1061.3876	1	21	-99	-99	1	51	0.1	0	0
1062.6374	1	10	300.9	300.9	1	51	-0.1	0	1
1063.7208	1	10	257.5	257.5	1	51	0.1	0	2
1064.7874	1	10	326.9	326.9	1	51	0	0	3
1066.054	1	10	628.3	628.3	1	51	0	0	4
1067.3038	1	10	226.4	226.4	1	51	-0.1	0	5
1068.5538	1	21	240.4	240.4	1	51	0	0	0
1069.3832	1	81	n/a	n/a	1	0	-2.3283e-10	0	0
1069.5832	1	81	n/a	n/a	1	0	0	0	0
1069.7832	1	81	n/a	n/a	1	0	0	0	0
1069.9832	1	81	n/a	n/a	1	0	0	0	0
1070.1832	1	81	n/a	n/a	1	0	0	0	0
1070.3832	1	81	n/a	n/a	1	0	0	0	0
1070.5832	1	81	n/a	n/a	1	0	0	0	0
1070.7832	1	81	n/a	n/a	1	0	0	0	0
1070.9832	1	81	n/a	n/a	1	0	0	0	0
1071.1832	1	81	n/a	n/a	1	0	0	0	0
1072.5702	1	10	335.9	335.9	1	51	0	0	1
1073.6368	1	10	357.3	357.3	1	51	2.3283e-10	0	2
1074.6702	1	10	316	316	1	51	0.1	0	3
1075.7034	1	21	370.6	370.6	1	51	-0.1	0	0
1076.9534	1	10	272.7	272.7	1	51	0.1	0	1
1078.1532	1	10	336.7	336.7	1	51	-0.2	0	2
1079.2698	1	10	420.1	420.1	1	51	0	0	3
1080.3864	1	21	-99	-99	1	51	-2.3283e-10	0	0
1081.6364	1	10	245.6	245.6	1	51	0.1	0	1
1082.8862	1	21	-99	-99	1	51	-0.2	0	0
1084.0862	1	10	339.6	339.6	1	51	0.1	0	1
1085.2862	1	21	419.7	419.7	1	51	0.1	0	0
1086.436	1	10	309.7	309.7	1	51	-0.2	0	1
1087.586	1	21	-99	-99	1	51	0.1	0	0
1088.9026	1	10	291.1	291.1	1	51	0	0	1
1090.2026	1	10	511.2	511.2	1	51	0.1	0	2
1091.2858	1	10	323.9	323.9	1	51	-0.1	0	3
1092.3524	1	10	329.3	329.3	1	51	-2.3283e-10	0	4
1093.5024	1	10	379.3	379.3	1	51	0	0	5
1094.6356	1	10	430	430	1	51	2.3283e-10	0	6
1095.613	1	81	n/a	n/a	1	0	0	0	0
1095.813	1	81	n/a	n/a	1	0	0	0	0
1096.013	1	81	n/a	n/a	1	0	0	0	0
1096.213	1	81	n/a	n/a	1	0	0	0	0
1096.413	1	81	n/a	n/a	1	0	0	0	0
1096.613	1	81	n/a	n/a	1	0	-0.1	0	0
1096.813	1	81	n/a	n/a	1	0	0	0	0
1097.013	1	81	n/a	n/a	1	0	0	0	0
1097.213	1	81	n/a	n/a	1	0	0	0	0
1097.413	1	81	n/a	n/a	1	0	0	0	0
1098.8186	1	10	374.8	374.8	1	51	-0.1	0	1
1100.0686	1	10	324.9	324.9	1	51	0.1	0	2
1101.1852	1	10	408.2	408.2	1	51	-2.3283e-10	0	3
1102.4352	1	10	646.3	646.3	1	51	0.1	0	4
1103.535	1	10	346.3	346.3	1	51	-0.2	0	5
1104.7516	1	10	281.7	281.7	1	51	0	0	6
1105.8516	1	10	237.8	237.8	1	51	0.1	0	7
1106.9516	1	21	-99	-99	1	51	0	0	0
1108.0848	1	10	500.5	500.5	1	51	-2.3283e-10	0	1
1109.218	1	21	263.2	263.2	1	51	-0.1	0	0
1110.4514	1	10	229.9	229.9	1	51	0.1	0	1
1111.7678	1	10	305.3	305.3	1	51	-0.2	0	2
1112.9178	1	10	419.4	419.4	1	51	0.1	0	3
1114.0678	1	21	-99	-99	1	51	0	0	0
1115.2676	1	10	533.4	533.4	1	51	-0.1	0	1
1116.4676	1	10	229.5	229.5	1	51	0.1	0	2
1117.5176	1	10	219.5	219.5	1	51	0	0	3
1118.5842	1	10	256.9	256.9	1	51	0	0	4
1119.784	1	10	257	257	1	51	-0.1	0	5
1120.934	1	10	258.9	258.9	1	51	0	0	6
1121.7584	1	81	n/a	n/a	1	0	0	0	0
1121.9584	1	81	n/a	n/a	1	0	0	0	0
1122.1584	1	81	n/a	n/a	1	0	0	0	0
1122.3584	1	81	n/a	n/a	1	0	0	0	0
1122.5584	1	81	n/a	n/a	1	0	0	0	0
1122.7584	1	81	n/a	n/a	1	0	0	0	0
1122.9584	1	81	n/a	n/a	1	0	0	0	0
1123.1584	1	81	n/a	n/a	1	0	0	0	0
1123.3584	1	81	n/a	n/a	1	0	0	0	0
1123.5584	1	81	n/a	n/a	1	0	0	0	0
1124.9672	1	10	257.8	257.8	1	51	0.1	0	1
1126.2504	1	10	254.5	254.5	1	51	-2.3283e-10	0	2
1127.4336	1	10	303.2	303.2	1	51	-0.1	0	3
1128.7168	1	10	251.9	251.9	1	51	-0.1	0	4
1129.7668	1	10	274	274	1	51	0.1	0	5
1130.9668	1	10	274	274	1	51	0	0	6
1132.1	1	10	372.8	372.8	1	51	0	0	7
1133.2332	1	21	-99	-99	1	51	-0.1	0	0
1134.4998	1	10	244.8	244.8	1	51	2.3283e-10	0	1
1135.6998	1	10	276.8	276.8	1	51	0	0	2
1136.733	1	10	299.6	299.6	1	51	0	0	3
1137.833	1	10	271.6	271.6	1	51	0	0	4
1138.9996	1	10	304.9	304.9	1	51	0	0	5
1140.0496	1	10	247	247	1	51	0.1	0	6
1141.1162	1	10	380.4	380.4	1	51	-2.3283e-10	0	7
1142.1828	1	21	289.7	289.7	1	51	-0.1	0	0
1143.466	1	10	334.5	334.5	1	51	0	0	1
1144.7826	1	10	297.9	297.9	1	51	0	0	2
1145.8658	1	10	510.5	510.5	1	51	-0.1	0	3
1146.9492	1	21	-99	-99	1	51	0.1	0	0
1147.6978	1	81	n/a	n/a	1	0	2.3283e-10	0	0
1147.8978	1	81	n/a	n/a	1	0	0	0	0
1148.0978	1	81	n/a	n/a	1	0	0	0	0
1148.2978	1	81	n/a	n/a	1	0	0	0	0
1148.4978	1	81	n/a	n/a	1	0	0	0	0
1148.6978	1	81	n/a	n/a	1	0	-0.1	0	0
1148.8978	1	81	n/a	n/a	1	0	0	0	0
1149.0978	1	81	n/a	n/a	1	0	0	0	0
1149.2978	1	81	n/a	n/a	1	0	0	0	0
1149.4978	1	81	n/a	n/a	1	0	0	0	0
1150.8822	1	10	-99	-99	1	51	0	0	1
1152.1822	1	10	466.1	466.1	1	51	0.1	0	2
1153.4654	1	10	270.8	270.8	1	51	-0.1	0	3
1154.5154	1	10	260.9	260.9	1	51	0.1	0	4
1155.7152	1	10	276.9	276.9	1	51	-0.2	0	5
1156.7818	1	10	442.3	442.3	1	51	2.3283e-10	0	6
1157.8818	1	10	798.3	798.3	1	51	0.1	0	7
1158.9818	1	21	290.3	290.3	1	51	0	0	0
1160.0816	1	10	326.4	326.4	1	51	-0.1	0	1
1161.315	1	10	325.1	325.1	1	51	0.1	0	2
1162.4482	1	10	279.9	279.9	1	51	0	0	3
1163.6148	1	10	297.2	297.2	1	51	-0.1	0	4
1164.748	1	10	347.9	347.9	1	51	-2.3283e-10	0	5
1165.8814	1	21	-99	-99	1	51	0.1	0	0
1167.1312	1	10	236.7	236.7	1	51	-0.1	0	1
1168.2312	1	10	272.7	272.7	1	51	0	0	2
1169.3478	1	10	276.1	276.1	1	51	2.3283e-10	0	3
1170.4978	1	10	294.1	294.1	1	51	0.1	0	4
1171.6476	1	10	328.1	328.1	1	51	-0.2	0	5
1172.6976	1	10	350.2	350.2	1	51	0.1	0	6
1251.608	1	82	n/a	n/a	1	0	0	0	0
1252.018	1	82	n/a	n/a	1	0	0	0	0
1252.292	1	82	n/a	n/a	1	0	0	0	0
1252.32	1	82	n/a	n/a	1	0	0	0	0
1252.495	1	82	n/a	n/a	1	0	0	0	0
1252.608	1	82	n/a	n/a	1	0	0	0	0
1253.033	1	82	n/a	n/a	1	0	0	0	0
1253.066	1	82	n/a	n/a	1	0	0	0	0
1253.343	1	82	n/a	n/a	1	0	0	0	0
1253.574	1	82	n/a	n/a	1	0	0	0	0
1254.6056	1	10	588.4	588.4	1	52	-0.1	0	1
1255.9222	1	10	279.8	279.8	1	52	-2.3283e-10	0	2
1256.9888	1	10	269.2	269.2	1	52	2.3283e-10	0	3
1258.0722	1	10	225.8	225.8	1	52	0.1	0	4
1259.3054	1	10	224.6	224.6	1	52	0	0	5
1260.5386	1	21	223.3	223.3	1	52	-0.1	0	0
1261.6886	1	10	241.4	241.4	1	52	0.1	0	1
1262.8218	1	10	292.1	292.1	1	52	-0.1	0	2
1264.0718	1	10	306	306	1	52	0	0	3
1265.2216	1	10	308.1	308.1	1	52	-0.1	0	4
1266.4382	1	10	291.5	291.5	1	52	0	0	5
1267.7382	1	10	303.6	303.6	1	52	0.1	0	6
1268.9048	1	10	273	273	1	52	2.3283e-10	0	7
1270.0714	1	21	-99	-99	1	52	-2.3283e-10	0	0
1271.2546	1	10	227	227	1	52	-0.1	0	1
1272.338	1	10	231.7	231.7	1	52	0.1	0	2
1273.5378	1	10	263.8	263.8	1	52	-0.1	0	3
1274.7544	1	10	407.2	407.2	1	52	0	0	4
1275.8878	1	10	553.9	553.9	1	52	0.1	0	5
1277.021	1	21	-99	-99	1	52	-0.1	0	0
1278.1008	1	82	n/a	n/a	1	0	0.1	0	0
1278.1708	1	82	n/a	n/a	1	0	0	0	0
1278.2078	1	82	n/a	n/a	1	0	0	0	0
1278.4428	1	82	n/a	n/a	1	0	0	0	0
1278.7128	1	82	n/a	n/a	1	0	0	0	0
1279.1014	1	82	n/a	n/a	1	0	-0.2	0	0
1279.2434	1	82	n/a	n/a	1	0	0	0	0
1279.5104	1	82	n/a	n/a	1	0	0	0	0
1279.9314	1	82	n/a	n/a	1	0	0	0	0
1280.0504	1	82	n/a	n/a	1	0	0	0	0
1281.2708	1	10	322.7	322.7	1	52	0.1	0	1
1282.404	1	10	293.4	293.4	1	52	0	0	2
1283.604	1	10	213.4	213.4	1	52	0	0	3
1284.8038	1	21	245.5	245.5	1	52	-0.1	0	0
1285.8538	1	10	427.5	427.5	1	52	0	0	1
1287.1538	1	10	279.6	279.6	1	52	0.1	0	2
1288.2036	1	10	301.7	301.7	1	52	-0.1	0	3
1289.5036	1	10	249.6	249.6	1	52	0	0	4
1290.7868	1	10	262.4	262.4	1	52	0	0	5
1292.07	1	21	259.1	259.1	1	52	-0.1	0	0
1293.1368	1	10	328.5	328.5	1	52	0.2	0	1
1294.2366	1	10	268.6	268.6	1	52	-0.1	0	2
1295.4366	1	10	284.5	284.5	1	52	0	0	3
1296.6864	1	10	298.6	298.6	1	52	-0.1	0	4
1297.853	1	10	508	508	1	52	2.3283e-10	0	5
1299.103	1	10	298	298	1	52	0	0	6
1300.403	1	10	294.1	294.1	1	52	0.1	0	7
1301.7028	1	21	-99	-99	1	52	-0.1	0	0
1302.8362	1	10	260.8	260.8	1	52	0.1	0	1
1304.0528	1	10	260.2	260.2	1	52	2.3283e-10	0	2
1305.1162	1	82	n/a	n/a	1	0	-0.1	0	0
1305.3962	1	82	n/a	n/a	1	0	0	0	0
1305.4582	1	82	n/a	n/a	1	0	0	0	0
1305.6892	1	82	n/a	n/a	1	0	0	0	0
1306.0502	1	82	n/a	n/a	1	0	0	0	0
1306.1162	1	82	n/a	n/a	1	0	0	0	0
1306.3572	1	82	n/a	n/a	1	0	0	0	0
1306.4162	1	82	n/a	n/a	1	0	0	0	0
1306.5642	1	82	n/a	n/a	1	0	0	0	0
1306.8352	1	82	n/a	n/a	1	0	0	0	0
1308.2524	1	10	300.3	300.3	1	52	-0.1	0	1
1309.4024	1	10	254.4	254.4	1	52	0.1	0	2
1310.6856	1	10	267.1	267.1	1	52	-0.1	0	3
1311.8522	1	10	364.5	364.5	1	52	-2.3283e-10	0	4
1313.1188	1	10	537.9	537.9	1	52	0	0	5
1314.3854	1	21	-99	-99	1	52	0	0	0
1315.552	1	10	216.6	216.6	1	52	0	0	1
1316.802	1	10	278.7	278.7	1	52	0.1	0	2
1318.0018	1	10	246.7	246.7	1	52	-0.2	0	3
1319.2184	1	10	246.1	246.1	1	52	-2.3283e-10	0	4
1320.3184	1	10	314.2	314.2	1	52	0.1	0	5
1321.4184	1	21	-99	-99	1	52	0	0	0
1322.635	1	10	397.5	397.5	1	52	0	0	1
1323.9348	1	10	297.6	297.6	1	52	-0.1	0	2
1325.1014	1	10	315	315	1	52	-2.3283e-10	0	3
1326.1348	1	10	257.7	257.7	1	52	0.1	0	4
1327.3514	1	10	257	257	1	52	0	0	5
1328.6012	1	10	223.1	223.1	1	52	-0.1	0	6
1329.6846	1	10	307.8	307.8	1	52	0.1	0	7
1330.7678	1	21	-99	-99	1	52	-0.1	0	0
1331.8154	1	82	n/a	n/a	1	0	-0.1	0	0
1332.1304	1	82	n/a	n/a	1	0	0	0	0
1332.3564	1	82	n/a	n/a	1	0	0	0	0
1332.6174	1	82	n/a	n/a	1	0	0	0	0
1332.6924	1	82	n/a	n/a	1	0	0	0	0
1332.8154	1	82	n/a	n/a	1	0	0	0	0
1333.0374	1	82	n/a	n/a	1	0	0	0	0
1333.1214	1	82	n/a	n/a	1	0	0	0	0
1333.4344	1	82	n/a	n/a	1	0	0	0	0
1333.7054	1	82	n/a	n/a	1	0	0	0	0
1334.8676	1	10	244.7	244.7	1	52	0.2	0	1
1336.0174	1	10	262.7	262.7	1	52	-0.2	0	2
1337.334	1	10	274.1	274.1	1	52	0	0	3
1338.6506	1	21	269.5	269.5	1	52	0	0	0
1339.8172	1	10	270.8	270.8	1	52	0	0	1
1340.9838	1	10	288.2	288.2	1	52	0	0	2
1342.0172	1	10	230.9	230.9	1	52	0.1	0	3
1343.267	1	10	245	245	1	52	-0.1	0	4
1344.5836	1	10	288.4	288.4	1	52	0	0	5
1345.9002	1	21	-99	-99	1	52	0	0	0
1347.0502	1	10	237.8	237.8	1	52	0.1	0	1
1348.35	1	10	345.8	345.8	1	52	-0.2	0	2
1349.4166	1	10	223.2	223.2	1	52	2.3283e-10	0	3
1350.7332	1	10	218.6	218.6	1	52	-2.3283e-10	0	4
1351.9332	1	10	234.7	234.7	1	52	0.1	0	5
1353.1332	1	21	-99	-99	1	52	0	0	0
1354.2998	1	10	220	220	1	52	0	0	1
1355.533	1	10	-99	-99	1	52	0	0	2
1356.683	1	10	252.8	252.8	1	52	0	0	3
1357.8328	1	21	222.8	222.8	1	52	-0.1	0	0
1358.7344	1	82	n/a	n/a	1	0	0.1	0	0
1358.8914	1	82	n/a	n/a	1	0	0	0	0
1359.1414	1	82	n/a	n/a	1	0	0	0	0
1359.1814	1	82	n/a	n/a	1	0	0	0	0
1359.6074	1	82	n/a	n/a	1	0	0	0	0
1359.7344	1	82	n/a	n/a	1	0	-0.1	0	0
1360.1104	1	82	n/a	n/a	1	0	0	0	0
1360.1784	1	82	n/a	n/a	1	0	0	0	0
1360.4514	1	82	n/a	n/a	1	0	0	0	0
1360.6994	1	82	n/a	n/a	1	0	0	0	0
1361.7492	1	10	338.3	338.3	1	52	-0.1	0	1
1362.8658	1	21	-99	-99	1	52	0	0	0
1363.9492	1	10	218.4	218.4	1	52	0.1	0	1
1365.1324	1	10	267.2	267.2	1	52	0	0	2
1366.1656	1	10	241.8	241.8	1	52	-0.1	0	3
1367.199	1	21	-99	-99	1	52	0.1	0	0
1368.4656	1	10	165.9	165.9	1	52	2.3283e-10	0	1
1369.6154	1	10	248	248	1	52	-0.1	0	2
1370.6654	1	10	238	238	1	52	0	0	3
1371.7154	1	21	228	228	1	52	0.1	0	0
1372.8152	1	10	296	296	1	52	-0.2	0	1
1374.1318	1	10	499.4	499.4	1	52	0	0	2
1375.2818	1	10	277.5	277.5	1	52	0.1	0	3
1376.3484	1	10	298.9	298.9	1	52	-2.3283e-10	0	4
1377.5316	1	10	283.5	283.5	1	52	-0.1	0	5
1378.715	1	21	-99	-99	1	52	0.2	0	0
1379.8148	1	10	240.3	240.3	1	52	-0.2	0	1
1380.9148	1	21	212.4	212.4	1	52	0.1	0	0
1382.198	1	10	305.1	305.1	1	52	-0.1	0	1
1383.3814	1	10	257.8	257.8	1	52	0.1	0	2
1406.6234	1	82	n/a	n/a	1	0	-0.2	0	0
1406.6824	1	82	n/a	n/a	1	0	0	0	0
1406.8334	1	82	n/a	n/a	1	0	0	0	0
1407.1354	1	82	n/a	n/a	1	0	0	0	0
1407.4654	1	82	n/a	n/a	1	0	0	0	0
1407.6234	1	82	n/a	n/a	1	0	0	0	0
1408.0434	1	82	n/a	n/a	1	0	0	0	0
1408.1864	1	82	n/a	n/a	1	0	0	0	0
1408.2174	1	82	n/a	n/a	1	0	0	0	0
1408.5154	1	82	n/a	n/a	1	0	0	0	0
1409.713	1	10	293.4	293.4	1	50	-0.1	0	1
1410.763	1	10	251.4	251.4	1	50	0	0	2
1411.8962	1	10	254.2	254.2	1	50	0	0	3
1413.0296	1	21	-99	-99	1	50	0.1	0	0
1414.0794	1	10	214.9	214.9	1	50	-0.2	0	1
1415.246	1	10	248.2	248.2	1	50	0	0	2
1416.3294	1	10	237	237	1	50	0.2	0	3
1417.396	1	10	242.3	242.3	1	50	-0.1	0	4
1418.4626	1	10	263.7	263.7	1	50	0	0	5
1419.6292	1	10	281.1	281.1	1	50	0	0	6
1420.779	1	10	299.2	299.2	1	50	-0.1	0	7
1421.929	1	21	-99	-99	1	50	0.1	0	0
1422.9956	1	10	274.5	274.5	1	50	-0.1	0	1
1424.2288	1	10	385.3	385.3	1	50	0	0	2
1425.3454	1	10	276.7	276.7	1	50	-2.3283e-10	0	3
1426.4954	1	10	326.7	326.7	1	50	0	0	4
1427.562	1	10	284.1	284.1	1	50	0	0	5
1428.6952	1	10	302.7	302.7	1	50	-0.1	0	6
1429.8452	1	10	288.8	288.8	1	50	0.1	0	7
1430.9952	1	21	322.9	322.9	1	50	0.1	0	0
1431.8266	1	82	n/a	n/a	1	0	-0.1	0	0
1432.1436	1	82	n/a	n/a	1	0	0	0	0
1432.2476	1	82	n/a	n/a	1	0	0	0	0
1432.3256	1	82	n/a	n/a	1	0	0	0	0
1432.5506	1	82	n/a	n/a	1	0	0	0	0
1432.8266	1	82	n/a	n/a	1	0	0	0	0
1432.9606	1	82	n/a	n/a	1	0	0	0	0
1433.2786	1	82	n/a	n/a	1	0	0	0	0
1433.5046	1	82	n/a	n/a	1	0	0	0	0
1433.5886	1	82	n/a	n/a	1	0	0	0	0
1435.0282	1	10	225.6	225.6	1	50	-0.1	0	1
1436.2448	1	10	225	225	1	50	0	0	2
1437.528	1	10	237.8	237.8	1	50	0	0	3
1438.6446	1	10	241.2	241.2	1	50	0	0	4
1439.828	1	10	273.9	273.9	1	50	0.1	0	5
1441.0112	1	21	-99	-99	1	50	-0.1	0	0
1442.0778	1	10	263.9	263.9	1	50	0	0	1
1443.1278	1	10	254	254	1	50	0.1	0	2
1444.4444	1	10	233.4	233.4	1	50	-2.3283e-10	0	3
1445.6942	1	10	311.4	311.4	1	50	-0.2	0	4
1446.9776	1	10	244.2	244.2	1	50	0.2	0	5
1448.2608	1	10	272.8	272.8	1	50	-0.1	0	6
1449.444	1	10	273.5	273.5	1	50	-0.1	0	7
1450.6274	1	21	242.3	242.3	1	50	0.2	0	0
1451.8272	1	10	258.3	258.3	1	50	-0.2	0	1
1453.1438	1	10	269.7	269.7	1	50	0	0	2
1454.2772	1	10	272.3	272.3	1	50	0.1	0	3
1455.4104	1	21	-99	-99	1	50	-2.3283e-10	0	0
1456.5602	1	10	325.1	325.1	1	50	-0.2	0	1
1457.7436	1	10	213.9	213.9	1	50	0.2	0	2
1458.594	1	82	n/a	n/a	1	0	-0.1	0	0
1458.697	1	82	n/a	n/a	1	0	0	0	0
1458.852	1	82	n/a	n/a	1	0	0	0	0
1459.149	1	82	n/a	n/a	1	0	0	0	0
1459.381	1	82	n/a	n/a	1	0	0	0	0
1459.594	1	82	n/a	n/a	1	0	-0.1	0	0
1459.742	1	82	n/a	n/a	1	0	0	0	0
1459.765	1	82	n/a	n/a	1	0	0	0	0
1460.155	1	82	n/a	n/a	1	0	0	0	0
1460.276	1	82	n/a	n/a	1	0	0	0	0
1461.6266	1	10	250.6	250.6	1	50	0	0	1
1462.7432	1	10	238	238	1	50	-2.3283e-10	0	2
1464.0098	1	10	283.4	283.4	1	50	2.3283e-10	0	3
1465.2764	1	21	264.8	264.8	1	50	-2.3283e-10	0	0
1466.4264	1	10	234.8	234.8	1	50	0.1	0	1
1467.7262	1	10	262.9	262.9	1	50	-0.1	0	2
1469.0428	1	10	482.3	482.3	1	50	2.3283e-10	0	3
1470.3594	1	21	-99	-99	1	50	-2.3283e-10	0	0
1471.6594	1	10	233.7	233.7	1	50	0	0	1
1472.7594	1	10	205.7	205.7	1	50	0.1	0	2
1473.9426	1	10	270.4	270.4	1	50	-0.1	0	3
1475.1258	1	21	255.1	255.1	1	50	-0.1	0	0
1476.2592	1	10	225.9	225.9	1	50	0.2	0	1
1477.3924	1	21	244.6	244.6	1	50	-0.1	0	0
1478.509	1	10	312	312	1	50	2.3283e-10	0	1
1479.5422	1	10	302.6	302.6	1	50	-0.1	0	2
1480.6256	1	10	307.3	307.3	1	50	0.1	0	3
1481.7422	1	10	294.7	294.7	1	50	-2.3283e-10	0	4
1482.942	1	10	278.8	278.8	1	50	-0.1	0	5
1484.142	1	21	294.9	294.9	1	50	0.1	0	0
1485.0334	1	82	n/a	n/a	1	0	-0.1	0	0
1485.4054	1	82	n/a	n/a	1	0	0	0	0
1485.5024	1	82	n/a	n/a	1	0	0	0	0
1485.5494	1	82	n/a	n/a	1	0	0	0	0
1485.8724	1	82	n/a	n/a	1	0	0	0	0
1486.0334	1	82	n/a	n/a	1	0	0	0	0
1486.3194	1	82	n/a	n/a	1	0	0	0	0
1486.3444	1	82	n/a	n/a	1	0	0	0	0
1486.3914	1	82	n/a	n/a	1	0	0	0	0
1486.4804	1	82	n/a	n/a	1	0	0	0	0
1487.9584	1	10	270.3	270.3	1	50	0	0	1
1488.9916	1	21	-99	-99	1	50	-0.1	0	0
1490.125	1	10	183.7	183.7	1	50	0.1	0	1
1491.2582	1	21	-99	-99	1	50	0	0	0
1492.4082	1	10	236.4	236.4	1	50	0	0	1
1493.708	1	10	248.5	248.5	1	50	-0.1	0	2
1494.958	1	10	246.5	246.5	1	50	0	0	3
1496.158	1	10	294.6	294.6	1	50	0.1	0	4
1497.2246	1	10	300	300	1	50	0	0	5
1498.2912	1	21	-99	-99	1	50	0	0	0
1499.4078	1	10	228.7	228.7	1	50	0	0	1
1500.741	1	10	-99	-99	1	50	-0.1	0	2
1501.791	1	10	341.5	341.5	1	50	0.1	0	3
1502.8908	1	10	281.5	281.5	1	50	-0.2	0	4
1504.1574	1	10	326.8	326.8	1	50	-2.3283e-10	0	5
1505.3408	1	10	311.6	311.6	1	50	0.2	0	6
1506.624	1	10	276.3	276.3	1	50	-0.1	0	7
1507.9072	1	21	-99	-99	1	50	-0.1	0	0
1509.1072	1	10	273.1	273.1	1	50	0.1	0	1
1510.357	1	10	383.1	383.1	1	50	-0.1	0	2
1511.2886	1	82	n/a	n/a	1	0	0.1	0	0
1511.5496	1	82	n/a	n/a	1	0	0	0	0
1511.6126	1	82	n/a	n/a	1	0	0	0	0
1511.7276	1	82	n/a	n/a	1	0	0	0	0
1512.0326	1	82	n/a	n/a	1	0	0	0	0
1512.2886	1	82	n/a	n/a	1	0	0	0	0
1512.5406	1	82	n/a	n/a	1	0	0	0	0
1512.6116	1	82	n/a	n/a	1	0	0	0	0
1512.7396	1	82	n/a	n/a	1	0	0	0	0
1513.0886	1	82	n/a	n/a	1	0	0	0	0
1514.2068	1	10	245.3	245.3	1	50	-0.1	0	1
1515.4902	1	10	290	290	1	50	0.1	0	2
1516.59	1	10	294	294	1	50	-0.1	0	3
1517.6234	1	10	252.7	252.7	1	50	0.1	0	4
1518.8566	1	10	267.4	267.4	1	50	-0.1	0	5
1520.1732	1	10	278.8	278.8	1	50	0	0	6
1521.4564	1	10	243.5	243.5	1	50	-0.1	0	7
1522.7396	1	21	-99	-99	1	50	2.3283e-10	0	0
1523.873	1	10	306.9	306.9	1	50	0.1	0	1
1524.9728	1	10	311	311	1	50	-0.1	0	2
1526.0562	1	10	251.7	251.7	1	50	0.1	0	3
1527.1394	1	21	256.4	256.4	1	50	-0.1	0	0
1528.2226	1	10	245	245	1	50	-0.1	0	1
1529.306	1	21	-99	-99	1	50	0.1	0	0
1530.4058	1	10	237.8	237.8	1	50	-0.1	0	1
1531.6392	1	10	252.5	252.5	1	50	0.1	0	2
1532.8058	1	10	285.9	285.9	1	50	0	0	3
1533.9724	1	21	287.3	287.3	1	50	0	0	0
1535.1056	1	10	306.1	306.1	1	50	2.3283e-10	0	1
1536.2888	1	10	258.7	258.7	1	50	-0.1	0	2
1564.4942	1	81	n/a	n/a	1	0	-0.2	0	0
1564.6942	1	81	n/a	n/a	1	0	0	0	0
1564.8942	1	81	n/a	n/a	1	0	0	0	0
1565.0942	1	81	n/a	n/a	1	0	0	0	0
1565.2942	1	81	n/a	n/a	1	0	0	0	0
1565.4942	1	81	n/a	n/a	1	0	0	0	0
1565.6942	1	81	n/a	n/a	1	0	0	0	0
1565.8942	1	81	n/a	n/a	1	0	0	0	0
1566.0942	1	81	n/a	n/a	1	0	0	0	0
1566.2942	1	81	n/a	n/a	1	0	0	0	0
1567.4704	1	10	388.5	388.5	1	51	0.1	0	1
1568.5536	1	21	-99	-99	1	51	-0.1	0	0
1569.8536	1	10	261.3	261.3	1	51	0.1	0	1
1571.1202	1	10	338.7	338.7	1	51	0	0	2
1572.1868	1	10	296.1	296.1	1	51	0	0	3
1573.3366	1	10	234.1	234.1	1	51	-0.2	0	4
1574.5032	1	10	267.4	267.4	1	51	0	0	5
1575.6698	1	10	220.8	220.8	1	51	0	0	6
1577.0032	1	10	279.6	279.6	1	51	0.2	0	7
1578.3364	1	21	242.3	242.3	1	51	-0.1	0	0
1579.4196	1	10	247	247	1	51	-0.1	0	1
1580.503	1	21	235.6	235.6	1	51	0.1	0	0
1581.5362	1	10	562.4	562.4	1	51	0	0	1
1582.6862	1	10	276.4	276.4	1	51	0	0	2
1583.9528	1	10	241.8	241.8	1	51	2.3283e-10	0	3
1585.2192	1	21	255.2	255.2	1	51	-0.2	0	0
1586.4692	1	10	61.2	61.2	1	51	0.1	0	1
1587.6192	1	10	271.2	271.2	1	51	0	0	2
1588.669	1	10	293.3	293.3	1	51	-0.1	0	3
1589.719	1	21	-99	-99	1	51	0.1	0	0
1590.7036	1	81	n/a	n/a	1	0	-0.1	0	0
1590.9036	1	81	n/a	n/a	1	0	0	0	0
1591.1036	1	81	n/a	n/a	1	0	0	0	0
1591.3036	1	81	n/a	n/a	1	0	0	0	0
1591.5036	1	81	n/a	n/a	1	0	0	0	0
1591.7036	1	81	n/a	n/a	1	0	0	0	0
1591.9036	1	81	n/a	n/a	1	0	0	0	0
1592.1036	1	81	n/a	n/a	1	0	0	0	0
1592.3036	1	81	n/a	n/a	1	0	0	0	0
1592.5036	1	81	n/a	n/a	1	0	0	0	0
1593.7188	1	10	347.5	347.5	1	51	0.1	0	1
1594.8354	1	21	-99	-99	1	51	-2.3283e-10	0	0
1596.0854	1	10	220.9	220.9	1	51	0	0	1
1597.3352	1	21	-99	-99	1	51	-0.1	0	0
1598.4018	1	10	224.3	224.3	1	51	0	0	1
1599.6684	1	10	237.7	237.7	1	51	0	0	2
1600.735	1	10	275.1	275.1	1	51	0	0	3
1601.8684	1	10	229.8	229.8	1	51	0.1	0	4
1602.9682	1	10	313.8	313.8	1	51	-0.2	0	5
1604.0682	1	21	-99	-99	1	51	0.1	0	0
1605.2682	1	10	237.9	237.9	1	51	0.1	0	1
1606.5014	1	10	252.6	252.6	1	51	-0.1	0	2
1607.7012	1	10	268.7	268.7	1	51	-0.1	0	3
1608.9012	1	21	-99	-99	1	51	0	0	0
1610.0178	1	10	304.1	304.1	1	51	2.3283e-10	0	1
1611.101	1	10	420.8	420.8	1	51	-0.1	0	2
1612.1344	1	10	299.5	299.5	1	51	0.2	0	3
1613.3842	1	10	617.5	617.5	1	51	-0.2	0	4
1614.6176	1	10	440.3	440.3	1	51	0.2	0	5
1615.8508	1	21	-99	-99	1	51	-0.1	0	0
1616.9404	1	81	n/a	n/a	1	0	-0.1	0	0
1617.1404	1	81	n/a	n/a	1	0	0	0	0
1617.3404	1	81	n/a	n/a	1	0	0	0	0
1617.5404	1	81	n/a	n/a	1	0	0	0	0
1617.7404	1	81	n/a	n/a	1	0	0	0	0
1617.9404	1	81	n/a	n/a	1	0	0	0	0
1618.1404	1	81	n/a	n/a	1	0	0	0	0
1618.3404	1	81	n/a	n/a	1	0	0	0	0
1618.5404	1	81	n/a	n/a	1	0	0	0	0
1618.7404	1	81	n/a	n/a	1	0	0	0	0
1619.8672	1	10	390.4	390.4	1	51	0	0	1
1621.0338	1	10	247.8	247.8	1	51	0	0	2
1622.217	1	10	376.6	376.6	1	51	0	0	3
1623.317	1	10	332.6	332.6	1	51	0	0	4
1624.4002	1	10	321.2	321.2	1	51	-0.1	0	5
1625.4836	1	21	294	294	1	51	0.2	0	0
1626.6834	1	10	262	262	1	51	-0.2	0	1
1627.7668	1	10	298.7	298.7	1	51	0.1	0	2
1628.8834	1	10	334.1	334.1	1	51	0	0	3
1629.9832	1	10	306.1	306.1	1	51	-0.1	0	4
1631.1666	1	10	338.8	338.8	1	51	0.1	0	5
1632.2998	1	10	309.6	309.6	1	51	0	0	6
1633.5664	1	10	275	275	1	51	0	0	7
1634.833	1	21	-99	-99	1	51	0	0	0
1635.8662	1	10	279	279	1	51	-0.1	0	1
1637.0162	1	10	297	297	1	51	0	0	2
1638.0662	1	10	303.1	303.1	1	51	0.1	0	3
1639.116	1	21	293.1	293.1	1	51	-0.2	0	0
1640.3994	1	10	385.9	385.9	1	51	0.2	0	1
1641.4826	1	10	502.6	502.6	1	51	-0.1	0	2
1642.276	1	81	n/a	n/a	1	0	-2.3283e-10	0	0
1642.476	1	81	n/a	n/a	1	0	0	0	0
1642.676	1	81	n/a	n/a	1	0	0	0	0
1642.876	1	81	n/a	n/a	1	0	0	0	0
1643.076	1	81	n/a	n/a	1	0	0	0	0
1643.276	1	81	n/a	n/a	1	0	0	0	0
1643.476	1	81	n/a	n/a	1	0	0	0	0
1643.676	1	81	n/a	n/a	1	0	0	0	0
1643.876	1	81	n/a	n/a	1	0	0	0	0
1644.076	1	81	n/a	n/a	1	0	0	0	0
1645.399	1	10	250	250	1	51	-0.1	0	1
1646.6324	1	21	296.8	296.8	1	51	0.2	0	0
1647.7988	1	10	234.2	234.2	1	51	-0.2	0	1
1649.0322	1	10	280.9	280.9	1	51	0.1	0	2
1650.332	1	10	260.9	260.9	1	51	-0.1	0	3
1651.632	1	21	-99	-99	1	51	0	0	0
1652.8986	1	10	254.3	254.3	1	51	0	0	1
1654.1652	1	21	251.7	251.7	1	51	0	0	0
1655.1984	1	10	338.4	338.4	1	51	-2.3283e-10	0	1
1656.2318	1	21	-99	-99	1	51	0.1	0	0
1657.465	1	10	263.8	263.8	1	51	-0.1	0	1
1658.765	1	10	323.9	323.9	1	51	0.1	0	2
1659.8982	1	10	294.6	294.6	1	51	-0.1	0	3
1661.0648	1	10	328	328	1	51	0	0	4
1662.098	1	10	414.6	414.6	1	51	-0.1	0	5
1663.1314	1	21	357.3	357.3	1	51	0.1	0	0
1664.3812	1	10	259.4	259.4	1	51	-0.1	0	1
1665.6146	1	10	322.1	322.1	1	51	0.1	0	2
1666.8644	1	10	320.2	320.2	1	51	-0.1	0	3
1668.0144	1	10	274.3	274.3	1	51	0.1	0	4
1668.9658	1	81	n/a	n/a	1	0	2.3283e-10	0	0
1669.1658	1	81	n/a	n/a	1	0	0	0	0
1669.3658	1	81	n/a	n/a	1	0	0	0	0
1669.5658	1	81	n/a	n/a	1	0	0	0	0
1669.7658	1	81	n/a	n/a	1	0	0	0	0
1669.9658	1	81	n/a	n/a	1	0	-0.1	0	0
1670.1658	1	81	n/a	n/a	1	0	0	0	0
1670.3658	1	81	n/a	n/a	1	0	0	0	0
1670.5658	1	81	n/a	n/a	1	0	0	0	0
1670.7658	1	81	n/a	n/a	1	0	0	0	0
1672.1808	1	10	347.7	347.7	1	51	0	0	1
1673.414	1	10	250.4	250.4	1	51	-0.1	0	2
1674.6972	1	10	231.2	231.2	1	51	-2.3283e-10	0	3
1675.7972	1	10	267.1	267.1	1	51	0	0	4
1676.9804	1	10	283.9	283.9	1	51	0	0	5
1678.1138	1	10	334.6	334.6	1	51	0.1	0	6
1679.3136	1	10	318.7	318.7	1	51	-0.1	0	7
1680.5136	1	21	-99	-99	1	51	0	0	0
1681.7802	1	10	236	236	1	51	-2.3283e-10	0	1
1683.0468	1	21	265.4	265.4	1	51	2.3283e-10	0	0
1684.23	1	10	282.1	282.1	1	51	-0.1	0	1
1685.4634	1	10	408.9	408.9	1	51	0.2	0	2
1686.6966	1	10	407.6	407.6	1	51	-0.1	0	3
1687.9298	1	21	630.2	630.2	1	51	-0.1	0	0
1689.0298	1	10	490.3	490.3	1	51	0.1	0	1
1690.1298	1	10	222.4	222.4	1	51	0.1	0	2
1691.3796	1	10	236.4	236.4	1	51	-0.2	0	3
1692.6296	1	10	266.5	266.5	1	51	0.1	0	4
1693.9294	1	10	246.5	246.5	1	51	-0.1	0	5
1694.9628	1	10	285.2	285.2	1	51	0.1	0	6
1900.1516	1	81	n/a	n/a	1	0	-1.5	0	0
1900.3516	1	81	n/a	n/a	1	0	0	0	0
1900.5516	1	81	n/a	n/a	1	0	0	0	0
1900.7516	1	81	n/a	n/a	1	0	0	0	0
1900.9516	1	81	n/a	n/a	1	0	0	0	0
1901.1516	1	81	n/a	n/a	1	0	0	0	0
1901.3516	1	81	n/a	n/a	1	0	0	0	0
1901.5516	1	81	n/a	n/a	1	0	0	0	0
1901.7516	1	81	n/a	n/a	1	0	0	0	0
1901.9516	1	81	n/a	n/a	1	0	0	0	0
1903.1336	1	10	333.5	333.5	1	51	-0.1	0	1
1904.217	1	21	-99	-99	1	51	0.1	0	0
1905.5002	1	10	270.9	270.9	1	51	-0.1	0	1
1906.5502	1	10	501	501	1	51	0.1	0	2
1907.7168	1	10	470.4	470.4	1	51	0	0	3
1909.0166	1	10	274.3	274.3	1	51	-0.2	0	4
1910.3166	1	10	254.4	254.4	1	51	0.1	0	5
1911.4332	1	10	289.8	289.8	1	51	-2.3283e-10	0	6
1912.4664	1	10	360.5	360.5	1	51	-0.1	0	7
1913.4998	1	21	-99	-99	1	51	0.1	0	0
1914.633	1	10	226	226	1	51	-2.3283e-10	0	1
1915.7996	1	10	227.3	227.3	1	51	0	0	2
1916.9162	1	10	246.7	246.7	1	51	-2.3283e-10	0	3
1918.0994	1	10	231.4	231.4	1	51	-0.1	0	4
1919.1994	1	10	235.5	235.5	1	51	0.1	0	5
1920.2994	1	21	-99	-99	1	51	0	0	0
1921.3492	1	10	261.5	261.5	1	51	-0.1	0	1
1922.4658	1	10	216.9	216.9	1	51	0	0	2
1923.4992	1	10	223.6	223.6	1	51	0.1	0	3
1924.6658	1	10	273	273	1	51	4.6566e-10	0	4
1925.394	1	81	n/a	n/a	1	0	-0.2	0	0
1925.594	1	81	n/a	n/a	1	0	0	0	0
1925.794	1	81	n/a	n/a	1	0	0	0	0
1925.994	1	81	n/a	n/a	1	0	0	0	0
1926.194	1	81	n/a	n/a	1	0	0	0	0
1926.394	1	81	n/a	n/a	1	0	0	0	0
1926.594	1	81	n/a	n/a	1	0	0	0	0
1926.794	1	81	n/a	n/a	1	0	0	0	0
1926.994	1	81	n/a	n/a	1	0	0	0	0
1927.194	1	81	n/a	n/a	1	0	0	0	0
1928.3822	1	10	364.4	364.4	1	51	0.1	0	1
1929.5154	1	10	271.1	271.1	1	51	-0.1	0	2
1930.5654	1	10	293.2	293.2	1	51	0.1	0	3
1931.7986	1	10	259.9	259.9	1	51	-0.1	0	4
1933.0652	1	10	289.3	289.3	1	51	-2.3283e-10	0	5
1934.1152	1	10	327.3	327.3	1	51	0.1	0	6
1935.3318	1	10	294.7	294.7	1	51	0	0	7
1936.5484	1	21	-99	-99	1	51	-2.3283e-10	0	0
1937.7316	1	10	294.8	294.8	1	51	-0.1	0	1
1938.7816	1	10	236.8	236.8	1	51	0	0	2
1939.8648	1	10	273.6	273.6	1	51	-2.3283e-10	0	3
1941.1814	1	10	236.9	236.9	1	51	-2.3283e-10	0	4
1942.3314	1	10	318.9	318.9	1	51	0	0	5
1943.4646	1	10	273.7	273.7	1	51	4.6566e-10	0	6
1944.6146	1	10	291.7	291.7	1	51	0	0	7
1945.7644	1	21	-99	-99	1	51	-0.1	0	0
1946.8978	1	10	232.4	232.4	1	51	0.1	0	1
1948.0144	1	10	283.8	283.8	1	51	-2.3283e-10	0	2
1949.231	1	10	315.2	315.2	1	51	0	0	3
1950.4476	1	21	-99	-99	1	51	4.6566e-10	0	0
1951.5142	1	81	n/a	n/a	1	0	-0.1	0	0
1951.7142	1	81	n/a	n/a	1	0	0	0	0
1951.9142	1	81	n/a	n/a	1	0	0	0	0
1952.1142	1	81	n/a	n/a	1	0	0	0	0
1952.3142	1	81	n/a	n/a	1	0	0	0	0
1952.515	1	81	n/a	n/a	1	0	2.3283e-10	0	0
1952.715	1	81	n/a	n/a	1	0	0	0	0
1952.915	1	81	n/a	n/a	1	0	0	0	0
1953.115	1	81	n/a	n/a	1	0	0	0	0
1953.315	1	81	n/a	n/a	1	0	0	0	0
1954.5472	1	10	278.7	278.7	1	51	-0.1	0	1
1955.7306	1	10	247.4	247.4	1	51	0.1	0	2
1956.7972	1	10	204.8	204.8	1	51	-2.3283e-10	0	3
1958.097	1	10	296.9	296.9	1	51	-0.1	0	4
1959.2636	1	10	282.2	282.2	1	51	0	0	5
1960.4302	1	21	-99	-99	1	51	-2.3283e-10	0	0
1961.4802	1	10	257.6	257.6	1	51	0	0	1
1962.6134	1	10	244.4	244.4	1	51	2.3283e-10	0	2
1963.93	1	10	239.8	239.8	1	51	0	0	3
1965.2466	1	21	283.2	283.2	1	51	0	0	0
1966.3466	1	10	239.1	239.1	1	51	0	0	1
1967.4798	1	10	417.9	417.9	1	51	-2.3283e-10	0	2
1968.6964	1	10	673.2	673.2	1	51	-0.1	0	3
1969.913	1	21	-99	-99	1	51	0	0	0
1971.0796	1	10	242	242	1	51	0	0	1
1972.2628	1	10	290.7	290.7	1	51	2.3283e-10	0	2
1973.4128	1	10	-99	-99	1	51	0	0	3
1974.596	1	10	277.5	277.5	1	51	-2.3283e-10	0	4
1975.6626	1	10	330.8	330.8	1	51	-0.1	0	5
1976.7292	1	21	-99	-99	1	51	2.3283e-10	0	0
1977.646	1	81	n/a	n/a	1	0	0.2	0	0
1977.846	1	81	n/a	n/a	1	0	0	0	0
1978.046	1	81	n/a	n/a	1	0	0	0	0
1978.246	1	81	n/a	n/a	1	0	0	0	0
1978.446	1	81	n/a	n/a	1	0	0	0	0
1978.646	1	81	n/a	n/a	1	0	-0.1	0	0
1978.846	1	81	n/a	n/a	1	0	0	0	0
1979.046	1	81	n/a	n/a	1	0	0	0	0
1979.246	1	81	n/a	n/a	1	0	0	0	0
1979.446	1	81	n/a	n/a	1	0	0	0	0
1980.6124	1	10	341	341	1	51	0	0	1
1981.7124	1	10	297.1	297.1	1	51	0.1	0	2
1982.779	1	10	302.5	302.5	1	51	0	0	3
1983.8456	1	21	355.7	355.7	1	51	-0.1	0	0
1985.162	1	10	319.1	319.1	1	51	-0.2	0	1
1986.3954	1	10	365.9	365.9	1	51	0.2	0	2
1987.4286	1	10	388.6	388.6	1	51	-0.1	0	3
1988.462	1	21	-99	-99	1	51	0.1	0	0
1989.5618	1	10	447.4	447.4	1	51	-0.1	0	1
1990.8118	1	10	317.3	317.3	1	51	0	0	2
1991.9784	1	10	366.7	366.7	1	51	-2.3283e-10	0	3
1993.095	1	10	354.1	354.1	1	51	0	0	4
1994.2116	1	10	453.5	453.5	1	51	0	0	5
1995.4282	1	10	324.9	324.9	1	51	2.3283e-10	0	6
1996.5114	1	10	249.6	249.6	1	51	-0.1	0	7
1997.5946	1	21	-99	-99	1	51	4.6566e-10	0	0
1998.6612	1	10	243.7	243.7	1	51	-2.3283e-10	0	1
1999.7946	1	10	278.4	278.4	1	51	0.1	0	2
2001.0444	1	10	276.4	276.4	1	51	-0.2	0	3
2002.111	1	10	329.8	329.8	1	51	4.6566e-10	0	4
2003.0226	1	81	n/a	n/a	1	0	0.1	0	0
2003.2226	1	81	n/a	n/a	1	0	0	0	0
2003.4226	1	81	n/a	n/a	1	0	0	0	0
2003.6226	1	81	n/a	n/a	1	0	0	0	0
2003.8226	1	81	n/a	n/a	1	0	0	0	0
2004.0226	1	81	n/a	n/a	1	0	0	0	0
2004.2226	1	81	n/a	n/a	1	0	0	0	0
2004.4226	1	81	n/a	n/a	1	0	0	0	0
2004.6226	1	81	n/a	n/a	1	0	0	0	0
2004.8226	1	81	n/a	n/a	1	0	0	0	0
2006.0942	1	10	250.6	250.6	1	51	-2.3283e-10	0	1
2007.3274	1	10	281.3	281.3	1	51	-0.1	0	2
2008.3774	1	10	463.4	463.4	1	51	0.1	0	3
2009.494	1	10	-99	-99	1	51	0	0	4
2010.6106	1	10	550.1	550.1	1	51	4.6566e-10	0	5
2011.7272	1	21	249.5	249.5	1	51	-2.3283e-10	0	0
2012.8938	1	10	234.9	234.9	1	51	0	0	1
2013.927	1	10	241.6	241.6	1	51	-0.1	0	2
2014.9936	1	10	262.9	262.9	1	51	0	0	3
2016.0602	1	21	-99	-99	1	51	-2.3283e-10	0	0
2017.1102	1	10	258.3	258.3	1	51	0	0	1
2018.3102	1	10	258.4	258.4	1	51	0.1	0	2
2019.3934	1	10	263.1	263.1	1	51	-0.1	0	3
2020.4766	1	21	-99	-99	1	51	-0.1	0	0
2021.5432	1	10	241.2	241.2	1	51	-2.3283e-10	0	1
2022.8266	1	10	269.9	269.9	1	51	0.2	0	2
2023.9932	1	10	303.2	303.2	1	51	-0.1	0	3
2025.143	1	10	353.3	353.3	1	51	-0.1	0	4
2026.3596	1	10	272.7	272.7	1	51	0	0	5
2027.6262	1	10	350	350	1	51	-2.3283e-10	0	6
2054.7456	1	81	n/a	n/a	1	0	-0.2	0	0
2054.9456	1	81	n/a	n/a	1	0	0	0	0
2055.1456	1	81	n/a	n/a	1	0	0	0	0
2055.3456	1	81	n/a	n/a	1	0	0	0	0
2055.5456	1	81	n/a	n/a	1	0	0	0	0
2055.7456	1	81	n/a	n/a	1	0	-0.1	0	0
2055.9456	1	81	n/a	n/a	1	0	0	0	0
2056.1456	1	81	n/a	n/a	1	0	0	0	0
2056.3456	1	81	n/a	n/a	1	0	0	0	0
2056.5456	1	81	n/a	n/a	1	0	0	0	0
2057.841	1	10	310.5	310.5	1	50	-4.6566e-10	0	1
2059.041	1	21	-99	-99	1	50	0.1	0	0
2060.341	1	10	386.6	386.6	1	50	0.1	0	1
2061.6408	1	21	-99	-99	1	50	-0.2	0	0
2062.9074	1	10	268	268	1	50	-2.3283e-10	0	1
2064.224	1	10	743.4	743.4	1	50	0	0	2
2065.3906	1	10	248.8	248.8	1	50	4.6566e-10	0	3
2066.5572	1	21	-99	-99	1	50	-2.3283e-10	0	0
2067.6572	1	10	270.2	270.2	1	50	0.1	0	1
2068.8404	1	10	254.9	254.9	1	50	-0.1	0	2
2069.9738	1	10	241.6	241.6	1	50	0.1	0	3
2071.107	1	10	260.4	260.4	1	50	-2.3283e-10	0	4
2072.2902	1	10	261.1	261.1	1	50	-0.1	0	5
2073.3736	1	10	281.7	281.7	1	50	0.1	0	6
2074.64	1	10	279.1	279.1	1	50	-0.2	0	7
2075.9066	1	21	276.5	276.5	1	50	0	0	0
2077.1566	1	10	226.5	226.5	1	50	0.1	0	1
2078.4232	1	10	256	256	1	50	-2.3283e-10	0	2
2079.6564	1	10	334.6	334.6	1	50	-0.1	0	3
2080.8898	1	21	-99	-99	1	50	0.1	0	0
2081.8824	1	81	n/a	n/a	1	0	-2.3283e-10	0	0
2082.0824	1	81	n/a	n/a	1	0	0	0	0
2082.2824	1	81	n/a	n/a	1	0	0	0	0
2082.4824	1	81	n/a	n/a	1	0	0	0	0
2082.6824	1	81	n/a	n/a	1	0	0	0	0
2082.8824	1	81	n/a	n/a	1	0	-0.1	0	0
2083.0824	1	81	n/a	n/a	1	0	0	0	0
2083.2824	1	81	n/a	n/a	1	0	0	0	0
2083.4824	1	81	n/a	n/a	1	0	0	0	0
2083.6824	1	81	n/a	n/a	1	0	0	0	0
2084.9062	1	10	332.8	332.8	1	50	0.1	0	1
2086.0894	1	10	269.5	269.5	1	50	-0.1	0	2
2087.3394	1	10	235.6	235.6	1	50	0.1	0	3
2088.5892	1	21	265.6	265.6	1	50	-0.2	0	0
2089.6392	1	10	367.7	367.7	1	50	0.1	0	1
2090.9392	1	10	491.7	491.7	1	50	0.1	0	2
2092.2058	1	10	377.1	377.1	1	50	0	0	3
2093.4056	1	10	425.1	425.1	1	50	-0.2	0	4
2094.7222	1	10	308.5	308.5	1	50	-2.3283e-10	0	5
2096.0388	1	21	-99	-99	1	50	0	0	0
2097.1554	1	10	291.3	291.3	1	50	0	0	1
2098.4386	1	10	256	256	1	50	0	0	2
2099.622	1	10	416.7	416.7	1	50	0.1	0	3
2100.8052	1	21	337.4	337.4	1	50	-0.1	0	0
2101.9218	1	10	276.8	276.8	1	50	-9.3132e-10	0	1
2103.205	1	10	257.5	257.5	1	50	-0.1	0	2
2104.355	1	10	307.5	307.5	1	50	0.1	0	3
2105.405	1	10	361.6	361.6	1	50	0.1	0	4
2106.4382	1	10	400.3	400.3	1	50	-0.1	0	5
2107.4714	1	21	-99	-99	1	50	-0.1	0	0
2108.4672	1	81	n/a	n/a	1	0	0.1	0	0
2108.6672	1	81	n/a	n/a	1	0	0	0	0
2108.8672	1	81	n/a	n/a	1	0	0	0	0
2109.0672	1	81	n/a	n/a	1	0	0	0	0
2109.2672	1	81	n/a	n/a	1	0	0	0	0
2109.4672	1	81	n/a	n/a	1	0	0	0	0
2109.6672	1	81	n/a	n/a	1	0	0	0	0
2109.8672	1	81	n/a	n/a	1	0	0	0	0
2110.0672	1	81	n/a	n/a	1	0	0	0	0
2110.2672	1	81	n/a	n/a	1	0	0	0	0
2111.4878	1	10	358.4	358.4	1	50	-0.2	0	1
2112.7212	1	10	293.2	293.2	1	50	0.2	0	2
2113.8878	1	10	326.6	326.6	1	50	-9.3132e-10	0	3
2115.0044	1	10	346	346	1	50	4.6566e-10	0	4
2116.121	1	10	477.4	477.4	1	50	4.6566e-10	0	5
2117.1708	1	10	547.3	547.3	1	50	-0.2	0	6
2118.3208	1	10	949.4	949.4	1	50	0.1	0	7
2119.4708	1	21	-99	-99	1	50	0	0	0
2120.754	1	10	244.2	244.2	1	50	0	0	1
2121.8206	1	10	265.6	265.6	1	50	4.6566e-10	0	2
2123.0206	1	10	265.5	265.5	1	50	0	0	3
2124.1872	1	10	346.9	346.9	1	50	-4.6566e-10	0	4
2125.437	1	10	281	281	1	50	-0.1	0	5
2126.687	1	21	-99	-99	1	50	0	0	0
2127.7702	1	10	235.8	235.8	1	50	0	0	1
2128.8536	1	21	272.5	272.5	1	50	0.1	0	0
2129.9202	1	10	277.8	277.8	1	50	-4.6566e-10	0	1
2130.9868	1	21	-99	-99	1	50	0	0	0
2132.27	1	10	247.9	247.9	1	50	-0.1	0	1
2133.5532	1	21	-99	-99	1	50	-0.1	0	0
2134.353	1	81	n/a	n/a	1	0	0.2	0	0
2134.553	1	81	n/a	n/a	1	0	0	0	0
2134.753	1	81	n/a	n/a	1	0	0	0	0
2134.953	1	81	n/a	n/a	1	0	0	0	0
2135.1528	1	81	n/a	n/a	1	0	-0.2	0	0
2135.353	1	81	n/a	n/a	1	0	0.1	0	0
2135.553	1	81	n/a	n/a	1	0	0	0	0
2135.753	1	81	n/a	n/a	1	0	0	0	0
2135.953	1	81	n/a	n/a	1	0	0	0	0
2136.153	1	81	n/a	n/a	1	0	0	0	0
2137.553	1	10	-99	-99	1	50	-0.1	0	1
2138.7696	1	10	324.1	324.1	1	50	4.6566e-10	0	2
2139.9696	1	10	228.2	228.2	1	50	0.1	0	3
2141.1694	1	10	292.3	292.3	1	50	-0.1	0	4
2142.336	1	10	229.7	229.7	1	50	-4.6566e-10	0	5
2143.4526	1	10	233	233	1	50	4.6566e-10	0	6
2144.6192	1	10	234.3	234.3	1	50	-0.1	0	7
2145.7858	1	21	-99	-99	1	50	0	0	0
2147.0524	1	10	265.1	265.1	1	50	-4.6566e-10	0	1
2148.169	1	10	268.4	268.4	1	50	4.6566e-10	0	2
2149.2356	1	10	337.8	337.8	1	50	4.6566e-10	0	3
2150.5188	1	10	318.6	318.6	1	50	-4.6566e-10	0	4
2151.6522	1	10	417.3	417.3	1	50	0.1	0	5
2152.8354	1	10	322	322	1	50	-0.1	0	6
2153.8686	1	10	296.7	296.7	1	50	-0.1	0	7
2154.902	1	21	1055.4	1055.4	1	50	0.2	0	0
2156.0352	1	10	-99	-99	1	50	-0.1	0	1
2157.2852	1	10	272.1	272.1	1	50	0	0	2
2158.585	1	10	300.2	300.2	1	50	-0.1	0	3
2159.685	1	10	352.3	352.3	1	50	0.1	0	4
2160.6264	1	81	n/a	n/a	1	0	-0.1	0	0
2160.8264	1	81	n/a	n/a	1	0	0	0	0
2161.0264	1	81	n/a	n/a	1	0	0	0	0
2161.2264	1	81	n/a	n/a	1	0	0	0	0
2161.4264	1	81	n/a	n/a	1	0	0	0	0
2161.6264	1	81	n/a	n/a	1	0	0	0	0
2161.8264	1	81	n/a	n/a	1	0	0	0	0
2162.0264	1	81	n/a	n/a	1	0	0	0	0
2162.2264	1	81	n/a	n/a	1	0	0	0	0
2162.4264	1	81	n/a	n/a	1	0	0	0	0
2163.6682	1	10	289	289	1	50	0.1	0	1
2164.918	1	10	239.1	239.1	1	50	-0.1	0	2
2165.9514	1	10	309.8	309.8	1	50	0.1	0	3
2167.018	1	10	235.2	235.2	1	50	4.6566e-10	0	4
2168.1678	1	10	253.2	253.2	1	50	-0.1	0	5
2169.4678	1	10	297.2	297.2	1	50	0	0	6
2170.6676	1	10	441.3	441.3	1	50	-0.1	0	7
2171.8676	1	21	-99	-99	1	50	0.1	0	0
2172.9508	1	10	238.1	238.1	1	50	-0.1	0	1
2174.0674	1	10	241.4	241.4	1	50	4.6566e-10	0	2
2175.1008	1	10	280.1	280.1	1	50	0.1	0	3
2176.1506	1	10	-99	-99	1	50	-0.1	0	4
2177.2006	1	10	436.2	436.2	1	50	0	0	5
2178.2506	1	21	-99	-99	1	50	0.1	0	0
2179.5672	1	10	421.7	421.7	1	50	4.6566e-10	0	1
2180.7338	1	10	231	231	1	50	-9.3132e-10	0	2
2182.0004	1	10	-99	-99	1	50	4.6566e-10	0	3
2183.3002	1	10	240.4	240.4	1	50	-0.2	0	4
2184.3668	1	10	341.8	341.8	1	50	0	0	5
2185.4334	1	21	-99	-99	1	50	-4.6566e-10	0	0
2199.7294	1	82	n/a	n/a	1	0	0	0	0
2199.8934	1	82	n/a	n/a	1	0	0	0	0
2200.1564	1	82	n/a	n/a	1	0	0	0	0
2200.2774	1	82	n/a	n/a	1	0	0	0	0
2200.3014	1	82	n/a	n/a	1	0	0	0	0
2200.7294	1	82	n/a	n/a	1	0	0	0	0
2200.7774	1	82	n/a	n/a	1	0	0	0	0
2200.8614	1	82	n/a	n/a	1	0	0	0	0
2201.2484	1	82	n/a	n/a	1	0	0	0	0
2201.5224	1	82	n/a	n/a	1	0	0	0	0
2202.8492	1	10	307.2	307.2	1	52	0.1	0	1
2204.099	1	10	241.2	241.2	1	52	-0.2	0	2
2205.3156	1	10	304.6	304.6	1	52	4.6566e-10	0	3
2206.5156	1	10	288.6	288.6	1	52	0.1	0	4
2207.7988	1	10	317.3	317.3	1	52	-0.1	0	5
2209.0488	1	10	299.4	299.4	1	52	0.1	0	6
2210.3154	1	10	296.8	296.8	1	52	-4.6566e-10	0	7
2211.582	1	21	-99	-99	1	52	4.6566e-10	0	0
2212.7486	1	10	343.5	343.5	1	52	-4.6566e-10	0	1
2213.9152	1	21	-99	-99	1	52	4.6566e-10	0	0
2215.0818	1	10	218.3	218.3	1	52	0	0	1
2216.2484	1	21	-99	-99	1	52	-4.6566e-10	0	0
2217.5482	1	10	231.7	231.7	1	52	-0.2	0	1
2218.7482	1	10	439.7	439.7	1	52	0.1	0	2
2220.0314	1	10	-99	-99	1	52	-0.1	0	3
2221.3146	1	21	593.2	593.2	1	52	9.3132e-10	0	0
2222.598	1	10	237.9	237.9	1	52	0.1	0	1
2223.8312	1	10	332.6	332.6	1	52	-0.1	0	2
2225.0144	1	10	285.3	285.3	1	52	-4.6566e-10	0	3
2226.1978	1	21	-99	-99	1	52	0.1	0	0
2227.0574	1	82	n/a	n/a	1	0	-0.1	0	0
2227.2004	1	82	n/a	n/a	1	0	0	0	0
2227.5014	1	82	n/a	n/a	1	0	0	0	0
2227.7054	1	82	n/a	n/a	1	0	0	0	0
2227.8104	1	82	n/a	n/a	1	0	0	0	0
2228.0574	1	82	n/a	n/a	1	0	0	0	0
2228.3464	1	82	n/a	n/a	1	0	0	0	0
2228.7374	1	82	n/a	n/a	1	0	0	0	0
2228.8564	1	82	n/a	n/a	1	0	0	0	0
2228.9154	1	82	n/a	n/a	1	0	0	0	0
2230.2142	1	10	-99	-99	1	52	4.6566e-10	0	1
2231.5308	1	10	-99	-99	1	52	0	0	2
2232.6306	1	10	300.9	300.9	1	52	-0.1	0	3
2233.814	1	10	221.6	221.6	1	52	0.1	0	4
2234.9638	1	10	223.7	223.7	1	52	-0.1	0	5
2236.1138	1	21	257.7	257.7	1	52	0.1	0	0
2237.2304	1	10	213	213	1	52	-0.1	0	1
2238.4304	1	10	229.1	229.1	1	52	0.1	0	2
2239.6802	1	10	259.2	259.2	1	52	-0.1	0	3
2240.9302	1	21	273.2	273.2	1	52	0	0	0
2242.1968	1	10	222.6	222.6	1	52	-9.3132e-10	0	1
2243.5134	1	10	281.9	281.9	1	52	4.6566e-10	0	2
2244.6132	1	10	350	350	1	52	-0.1	0	3
2245.7132	1	21	-99	-99	1	52	0.1	0	0
2246.9798	1	10	319.5	319.5	1	52	-9.3132e-10	0	1
2248.2464	1	21	284.9	284.9	1	52	4.6566e-10	0	0
2249.2796	1	10	403.6	403.6	1	52	-0.1	0	1
2250.513	1	10	-99	-99	1	52	0.1	0	2
2251.6462	1	10	564.9	564.9	1	52	-0.1	0	3
2252.9628	1	10	272.3	272.3	1	52	0	0	4
2254.0592	1	82	n/a	n/a	1	0	0	0	0
2254.1052	1	82	n/a	n/a	1	0	0	0	0
2254.2622	1	82	n/a	n/a	1	0	0	0	0
2254.5002	1	82	n/a	n/a	1	0	0	0	0
2254.7902	1	82	n/a	n/a	1	0	0	0	0
2255.0592	1	82	n/a	n/a	1	0	0	0	0
2255.3252	1	82	n/a	n/a	1	0	0	0	0
2255.6332	1	82	n/a	n/a	1	0	0	0	0
2255.8402	1	82	n/a	n/a	1	0	0	0	0
2255.9452	1	82	n/a	n/a	1	0	0	0	0
2257.0458	1	10	1053.1	1053.1	1	52	-0.1	0	1
2258.3292	1	10	345.9	345.9	1	52	0.2	0	2
2259.4958	1	10	267.2	267.2	1	52	-0.1	0	3
2260.6624	1	21	-99	-99	1	52	4.6566e-10	0	0
2261.7956	1	10	239.4	239.4	1	52	0	0	1
2262.8956	1	10	259.3	259.3	1	52	0	0	2
2264.0122	1	10	374.7	374.7	1	52	-4.6566e-10	0	3
2265.1288	1	21	-99	-99	1	52	0	0	0
2266.212	1	10	462.8	462.8	1	52	-0.1	0	1
2267.2452	1	10	277.6	277.6	1	52	0	0	2
2268.3118	1	10	-99	-99	1	52	-0.1	0	3
2269.3784	1	21	224.2	224.2	1	52	4.6566e-10	0	0
2270.4118	1	10	359	359	1	52	0.2	0	1
2271.5284	1	10	394.3	394.3	1	52	-0.1	0	2
2272.5782	1	10	352.4	352.4	1	52	-0.1	0	3
2273.6782	1	10	324.5	324.5	1	52	0.1	0	4
2274.9282	1	10	354.4	354.4	1	52	0	0	5
2275.9614	1	10	457.1	457.1	1	52	-0.1	0	6
2277.0446	1	10	349.9	349.9	1	52	0	0	7
2278.128	1	21	-99	-99	1	52	0.1	0	0
2279.0246	1	82	n/a	n/a	1	0	-0.1	0	0
2279.2846	1	82	n/a	n/a	1	0	0	0	0
2279.5746	1	82	n/a	n/a	1	0	0	0	0
2279.6276	1	82	n/a	n/a	1	0	0	0	0
2279.7286	1	82	n/a	n/a	1	0	0	0	0
2280.0246	1	82	n/a	n/a	1	0	-0.1	0	0
2280.0516	1	82	n/a	n/a	1	0	0	0	0
2280.2286	1	82	n/a	n/a	1	0	0	0	0
2280.2906	1	82	n/a	n/a	1	0	0	0	0
2280.7046	1	82	n/a	n/a	1	0	0	0	0
2282.0944	1	10	276	276	1	52	0.1	0	1
2283.1276	1	10	346.8	346.8	1	52	0	0	2
2284.2276	1	10	302.8	302.8	1	52	0	0	3
2285.3442	1	10	-99	-99	1	52	4.6566e-10	0	4
2286.5774	1	10	368.9	368.9	1	52	-0.1	0	5
2287.6608	1	10	69.6	69.6	1	52	0.2	0	6
2288.9606	1	10	-99	-99	1	52	-0.2	0	7
2290.2606	1	21	269.7	269.7	1	52	0.1	0	0
2291.3772	1	10	257.1	257.1	1	52	4.6566e-10	0	1
2292.6438	1	10	222.5	222.5	1	52	-9.3132e-10	0	2
2293.8436	1	10	254.4	254.4	1	52	-0.2	0	3
2295.0436	1	21	-99	-99	1	52	0.1	0	0
2296.1436	1	10	258.6	258.6	1	52	0.1	0	1
2297.3934	1	10	-99	-99	1	52	-0.2	0	2
2298.51	1	10	308	308	1	52	4.6566e-10	0	3
2299.71	1	10	308.1	308.1	1	52	0.1	0	4
2300.9266	1	10	-99	-99	1	52	4.6566e-10	0	5
2302.1932	1	10	240.8	240.8	1	52	-4.6566e-10	0	6
2303.4432	1	10	238.9	238.9	1	52	0.1	0	7
2304.693	1	21	-99	-99	1	52	-0.2	0	0
2305.7298	1	82	n/a	n/a	1	0	0.1	0	0
2305.8238	1	82	n/a	n/a	1	0	0	0	0
2306.0498	1	82	n/a	n/a	1	0	0	0	0
2306.0898	1	82	n/a	n/a	1	0	0	0	0
2306.3518	1	82	n/a	n/a	1	0	0	0	0
2306.7298	1	82	n/a	n/a	1	0	0	0	0
2306.9088	1	82	n/a	n/a	1	0	0	0	0
2307.3258	1	82	n/a	n/a	1	0	0	0	0
2307.4238	1	82	n/a	n/a	1	0	0	0	0
2307.6568	1	82	n/a	n/a	1	0	0	0	0
2308.7428	1	10	427	427	1	52	-0.1	0	1
2310.0094	1	10	280.4	280.4	1	52	4.6566e-10	0	2
2311.2926	1	10	309.2	309.2	1	52	0	0	3
2312.4592	1	10	470.6	470.6	1	52	4.6566e-10	0	4
2313.5258	1	10	299.9	299.9	1	52	-9.3132e-10	0	5
2314.759	1	10	282.6	282.6	1	52	-0.1	0	6
2315.959	1	10	394.6	394.6	1	52	0	0	7
2317.159	1	21	-99	-99	1	52	0.1	0	0
2318.4422	1	10	279.4	279.4	1	52	-0.1	0	1
2319.4922	1	10	253.4	253.4	1	52	0.1	0	2
2320.5588	1	10	290.8	290.8	1	52	-9.3132e-10	0	3
2321.6254	1	21	280.2	280.2	1	52	4.6566e-10	0	0
2322.7586	1	10	234.9	234.9	1	52	-0.1	0	1
2323.9918	1	10	249.6	249.6	1	52	-0.1	0	2
2325.0918	1	10	413.7	413.7	1	52	0.1	0	3
2326.1918	1	21	545.6	545.6	1	52	0	0	0
2327.3416	1	10	323.7	323.7	1	52	-0.1	0	1
2328.625	1	10	-99	-99	1	52	0.1	0	2
2329.6748	1	10	262.5	262.5	1	52	-0.1	0	3
2330.8082	1	10	313.1	313.1	1	52	0.1	0	4
