onset	duration	value	response	rt	good	TMS	seq
142.4078	1	81	n/a	n/a	1	0	0
142.6078	1	81	n/a	n/a	1	0	0
142.8078	1	81	n/a	n/a	1	0	0
143.0078	1	81	n/a	n/a	1	0	0
143.2078	1	81	n/a	n/a	1	0	0
143.4078	1	81	n/a	n/a	1	0	0
143.6078	1	81	n/a	n/a	1	0	0
143.8078	1	81	n/a	n/a	1	0	0
144.0078	1	81	n/a	n/a	1	0	0
144.2078	1	81	n/a	n/a	1	0	0
145.5292	1	10	1266.8	1266.8	1	51	1
146.8126	1	10	319.6	319.6	1	51	2
147.9292	1	10	-99	-99	1	51	3
149.0958	1	10	260.4	260.4	1	51	4
150.179	1	10	297.1	297.1	1	51	5
151.429	1	10	263	263	1	51	6
152.5788	1	10	297.1	297.1	1	51	7
153.7288	1	21	-99	-99	1	51	0
155.012	1	10	247.9	247.9	1	51	1
156.2286	1	10	247.3	247.3	1	51	2
157.5118	1	10	244	244	1	51	3
158.6284	1	10	279.3	279.3	1	51	4
159.845	1	10	342.7	342.7	1	51	5
160.9784	1	10	249.4	249.4	1	51	6
162.0116	1	10	336.2	336.2	1	51	7
163.0448	1	21	-99	-99	1	51	0
164.1948	1	10	232.8	232.8	1	51	1
165.378	1	10	249.6	249.6	1	51	2
166.6114	1	10	264.3	264.3	1	51	3
167.7446	1	10	347	347	1	51	4
168.715	1	81	n/a	n/a	1	0	0
168.915	1	81	n/a	n/a	1	0	0
169.115	1	81	n/a	n/a	1	0	0
169.315	1	81	n/a	n/a	1	0	0
169.515	1	81	n/a	n/a	1	0	0
169.715	1	81	n/a	n/a	1	0	0
169.915	1	81	n/a	n/a	1	0	0
170.115	1	81	n/a	n/a	1	0	0
170.315	1	81	n/a	n/a	1	0	0
170.515	1	81	n/a	n/a	1	0	0
171.6444	1	10	271.1	271.1	1	51	1
172.6776	1	10	245.8	245.8	1	51	2
173.811	1	10	376.6	376.6	1	51	3
174.9108	1	10	252.6	252.6	1	51	4
176.0108	1	10	320.7	320.7	1	51	5
177.2774	1	10	350	350	1	51	6
178.3106	1	10	292.7	292.7	1	51	7
179.344	1	21	-99	-99	1	51	0
180.4438	1	10	255.5	255.5	1	51	1
181.6272	1	10	128.2	128.2	1	51	2
182.7938	1	10	257.6	257.6	1	51	3
183.9604	1	21	-99	-99	1	51	0
185.177	1	10	226.3	226.3	1	51	1
186.2102	1	10	217	217	1	51	2
187.4934	1	10	245.8	245.8	1	51	3
188.7268	1	10	244.5	244.5	1	51	4
189.81	1	10	281.2	281.2	1	51	5
190.8932	1	21	253.8	253.8	1	51	0
192.1932	1	10	233.9	233.9	1	51	1
193.2764	1	10	270.6	270.6	1	51	2
194.1938	1	81	n/a	n/a	1	0	0
194.3938	1	81	n/a	n/a	1	0	0
194.5938	1	81	n/a	n/a	1	0	0
194.7938	1	81	n/a	n/a	1	0	0
194.9938	1	81	n/a	n/a	1	0	0
195.1938	1	81	n/a	n/a	1	0	0
195.3938	1	81	n/a	n/a	1	0	0
195.5938	1	81	n/a	n/a	1	0	0
195.7938	1	81	n/a	n/a	1	0	0
195.9938	1	81	n/a	n/a	1	0	0
197.3596	1	10	251.4	251.4	1	51	1
198.6428	1	10	232.1	232.1	1	51	2
199.7928	1	10	250.2	250.2	1	51	3
200.9426	1	21	220.3	220.3	1	51	0
202.1426	1	10	236.3	236.3	1	51	1
203.2926	1	10	270.3	270.3	1	51	2
204.5758	1	10	315	315	1	51	3
205.8924	1	10	246.4	246.4	1	51	4
207.1756	1	10	339.2	339.2	1	51	5
208.4588	1	21	287.8	287.8	1	51	0
209.7588	1	10	251.8	251.8	1	51	1
211.042	1	10	248.6	248.6	1	51	2
212.3254	1	10	245.3	245.3	1	51	3
213.4586	1	10	264	264	1	51	4
214.5086	1	10	334.1	334.1	1	51	5
215.5584	1	21	-99	-99	1	51	0
216.7918	1	10	194.8	194.8	1	51	1
218.025	1	10	49.5	49.5	1	51	2
219.0582	1	10	312.2	312.2	1	51	3
220.0916	1	21	-99	-99	1	51	0
221.0112	1	81	n/a	n/a	1	0	0
221.2112	1	81	n/a	n/a	1	0	0
221.4112	1	81	n/a	n/a	1	0	0
221.6112	1	81	n/a	n/a	1	0	0
221.8112	1	81	n/a	n/a	1	0	0
222.0112	1	81	n/a	n/a	1	0	0
222.2112	1	81	n/a	n/a	1	0	0
222.4112	1	81	n/a	n/a	1	0	0
222.6112	1	81	n/a	n/a	1	0	0
222.8112	1	81	n/a	n/a	1	0	0
224.1412	1	10	285.1	285.1	1	51	1
225.3246	1	10	285.7	285.7	1	51	2
226.6244	1	10	281.9	281.9	1	51	3
227.9244	1	21	293.8	293.8	1	51	0
229.1576	1	10	260.6	260.6	1	51	1
230.2076	1	10	442.6	442.6	1	51	2
231.2408	1	10	449.3	449.3	1	51	3
232.2742	1	21	-99	-99	1	51	0
233.4908	1	10	279.3	279.3	1	51	1
234.7074	1	21	294.7	294.7	1	51	0
235.924	1	10	294.1	294.1	1	51	1
237.0072	1	10	394.9	394.9	1	51	2
238.0904	1	10	431.6	431.6	1	51	3
239.1738	1	10	372.3	372.3	1	51	4
240.3236	1	10	550.3	550.3	1	51	5
241.457	1	10	537	537	1	51	6
242.7568	1	10	341.1	341.1	1	51	7
244.0568	1	21	-99	-99	1	51	0
245.2068	1	10	227.2	227.2	1	51	1
246.24	1	10	265.9	265.9	1	51	2
247.2464	1	81	n/a	n/a	1	0	0
247.4464	1	81	n/a	n/a	1	0	0
247.6464	1	81	n/a	n/a	1	0	0
247.8464	1	81	n/a	n/a	1	0	0
248.0464	1	81	n/a	n/a	1	0	0
248.2464	1	81	n/a	n/a	1	0	0
248.4464	1	81	n/a	n/a	1	0	0
248.6464	1	81	n/a	n/a	1	0	0
248.8464	1	81	n/a	n/a	1	0	0
249.0464	1	81	n/a	n/a	1	0	0
250.223	1	10	266.7	266.7	1	51	1
251.3896	1	10	284.1	284.1	1	51	2
252.5396	1	10	238.1	238.1	1	51	3
253.6896	1	21	-99	-99	1	51	0
254.8394	1	10	242.2	242.2	1	51	1
255.8894	1	10	232.2	232.2	1	51	2
257.0394	1	10	298.3	298.3	1	51	3
258.256	1	10	281.7	281.7	1	51	4
259.4058	1	10	299.6	299.6	1	51	5
260.7224	1	10	311	311	1	51	6
261.9724	1	10	309.1	309.1	1	51	7
263.2224	1	21	-99	-99	1	51	0
264.3222	1	10	247.2	247.2	1	51	1
265.5056	1	10	231.9	231.9	1	51	2
266.7722	1	10	245.2	245.2	1	51	3
267.822	1	10	283.3	283.3	1	51	4
268.922	1	10	255.4	255.4	1	51	5
269.9552	1	10	262.1	262.1	1	51	6
271.1886	1	10	276.8	276.8	1	51	7
272.4218	1	21	307.4	307.4	1	51	0
286.4774	1	81	n/a	n/a	1	0	0
286.6774	1	81	n/a	n/a	1	0	0
286.8774	1	81	n/a	n/a	1	0	0
287.0774	1	81	n/a	n/a	1	0	0
287.2774	1	81	n/a	n/a	1	0	0
287.4774	1	81	n/a	n/a	1	0	0
287.6774	1	81	n/a	n/a	1	0	0
287.8774	1	81	n/a	n/a	1	0	0
288.0774	1	81	n/a	n/a	1	0	0
288.2774	1	81	n/a	n/a	1	0	0
289.6208	1	10	324.1	324.1	1	50	1
290.904	1	10	256.8	256.8	1	50	2
291.9706	1	10	310.2	310.2	1	50	3
293.2538	1	10	226.9	226.9	1	50	4
294.5038	1	10	385	385	1	50	5
295.7538	1	21	271	271	1	50	0
296.837	1	10	259.6	259.6	1	50	1
297.887	1	10	281.7	281.7	1	50	2
299.1868	1	10	261.8	261.8	1	50	3
300.3702	1	10	262.5	262.5	1	50	4
301.4368	1	10	411.9	411.9	1	50	5
302.5034	1	21	-99	-99	1	50	0
303.7866	1	10	237.9	237.9	1	50	1
305.0866	1	10	250	250	1	50	2
306.2698	1	10	330.7	330.7	1	50	3
307.4364	1	10	348.1	348.1	1	50	4
308.6364	1	10	300.2	300.2	1	50	5
309.8362	1	21	-99	-99	1	50	0
311.1362	1	10	248.2	248.2	1	50	1
312.2862	1	10	266.2	266.2	1	50	2
313.3084	1	81	n/a	n/a	1	0	0
313.5084	1	81	n/a	n/a	1	0	0
313.7084	1	81	n/a	n/a	1	0	0
313.9084	1	81	n/a	n/a	1	0	0
314.1084	1	81	n/a	n/a	1	0	0
314.3084	1	81	n/a	n/a	1	0	0
314.5084	1	81	n/a	n/a	1	0	0
314.7084	1	81	n/a	n/a	1	0	0
314.9084	1	81	n/a	n/a	1	0	0
315.1084	1	81	n/a	n/a	1	0	0
316.5192	1	10	321	321	1	50	1
317.7192	1	10	305.1	305.1	1	50	2
319.0524	1	10	251.8	251.8	1	50	3
320.0856	1	10	322.6	322.6	1	50	4
321.1522	1	10	375.9	375.9	1	50	5
322.1856	1	10	334.6	334.6	1	50	6
323.3188	1	10	289.3	289.3	1	50	7
324.452	1	21	-99	-99	1	50	0
325.502	1	10	250.1	250.1	1	50	1
326.552	1	21	256.1	256.1	1	50	0
327.8518	1	10	284.2	284.2	1	50	1
329.0518	1	10	508.2	508.2	1	50	2
330.1684	1	10	239.5	239.5	1	50	3
331.285	1	21	-99	-99	1	50	0
332.435	1	10	229	229	1	50	1
333.5848	1	21	247.1	247.1	1	50	0
334.918	1	10	273.8	273.8	1	50	1
336.2014	1	10	270.4	270.4	1	50	2
337.2846	1	10	291.2	291.2	1	50	3
338.3678	1	21	-99	-99	1	50	0
339.3126	1	81	n/a	n/a	1	0	0
339.5126	1	81	n/a	n/a	1	0	0
339.7126	1	81	n/a	n/a	1	0	0
339.9126	1	81	n/a	n/a	1	0	0
340.1126	1	81	n/a	n/a	1	0	0
340.3126	1	81	n/a	n/a	1	0	0
340.5126	1	81	n/a	n/a	1	0	0
340.7126	1	81	n/a	n/a	1	0	0
340.9126	1	81	n/a	n/a	1	0	0
341.1126	1	81	n/a	n/a	1	0	0
342.4176	1	10	374	374	1	50	1
343.551	1	10	264.7	264.7	1	50	2
344.6676	1	10	300.1	300.1	1	50	3
345.7842	1	21	-99	-99	1	50	0
346.9508	1	10	240.9	240.9	1	50	1
348.2674	1	10	268.2	268.2	1	50	2
349.434	1	10	269.6	269.6	1	50	3
350.7172	1	10	234.3	234.3	1	50	4
351.7838	1	10	255.7	255.7	1	50	5
352.8504	1	21	-99	-99	1	50	0
354.117	1	10	226.4	226.4	1	50	1
355.3836	1	21	-99	-99	1	50	0
356.6002	1	10	255.2	255.2	1	50	1
357.7	1	10	275.2	275.2	1	50	2
358.9834	1	10	272	272	1	50	3
360.1166	1	10	258.6	258.6	1	50	4
361.1666	1	10	216.7	216.7	1	50	5
362.3832	1	10	280	280	1	50	6
363.633	1	10	294.1	294.1	1	50	7
364.883	1	21	-99	-99	1	50	0
365.8516	1	81	n/a	n/a	1	0	0
366.0516	1	81	n/a	n/a	1	0	0
366.2516	1	81	n/a	n/a	1	0	0
366.4516	1	81	n/a	n/a	1	0	0
366.6516	1	81	n/a	n/a	1	0	0
366.8516	1	81	n/a	n/a	1	0	0
367.0516	1	81	n/a	n/a	1	0	0
367.2516	1	81	n/a	n/a	1	0	0
367.4516	1	81	n/a	n/a	1	0	0
367.6516	1	81	n/a	n/a	1	0	0
369.016	1	10	255	255	1	50	1
370.2994	1	10	235.7	235.7	1	50	2
371.5992	1	10	311.8	311.8	1	50	3
372.7492	1	10	329.7	329.7	1	50	4
373.7824	1	10	320.4	320.4	1	50	5
374.8158	1	21	-99	-99	1	50	0
375.9824	1	10	232.6	232.6	1	50	1
377.149	1	21	250	250	1	50	0
378.2656	1	10	285.3	285.3	1	50	1
379.4322	1	10	286.6	286.6	1	50	2
380.6988	1	10	252	252	1	50	3
381.7654	1	10	305.4	305.4	1	50	4
382.9486	1	10	306.2	306.2	1	50	5
384.0818	1	10	292.9	292.9	1	50	6
385.1652	1	10	297.6	297.6	1	50	7
386.2484	1	21	-99	-99	1	50	0
387.3816	1	10	272.9	272.9	1	50	1
388.515	1	21	211.7	211.7	1	50	0
389.5816	1	10	265.1	265.1	1	50	1
390.8148	1	10	263.8	263.8	1	50	2
391.8132	1	81	n/a	n/a	1	0	0
392.0132	1	81	n/a	n/a	1	0	0
392.2132	1	81	n/a	n/a	1	0	0
392.4132	1	81	n/a	n/a	1	0	0
392.6132	1	81	n/a	n/a	1	0	0
392.8132	1	81	n/a	n/a	1	0	0
393.0132	1	81	n/a	n/a	1	0	0
393.2132	1	81	n/a	n/a	1	0	0
393.4132	1	81	n/a	n/a	1	0	0
393.6132	1	81	n/a	n/a	1	0	0
395.0146	1	10	287.9	287.9	1	50	1
396.3312	1	21	267.3	267.3	1	50	0
397.4644	1	10	254	254	1	50	1
398.6644	1	10	382	382	1	50	2
399.9476	1	10	266.7	266.7	1	50	3
401.2476	1	10	262.8	262.8	1	50	4
402.5308	1	10	291.5	291.5	1	50	5
403.814	1	21	256.3	256.3	1	50	0
404.864	1	10	230.2	230.2	1	50	1
406.014	1	10	280.3	280.3	1	50	2
407.2306	1	10	263.7	263.7	1	50	3
408.4972	1	10	277.1	277.1	1	50	4
409.6138	1	10	328.5	328.5	1	50	5
410.7304	1	21	-99	-99	1	50	0
411.8636	1	10	238.5	238.5	1	50	1
412.9968	1	21	-99	-99	1	50	0
414.28	1	10	254	254	1	50	1
415.5966	1	10	249.3	249.3	1	50	2
416.8132	1	10	264.6	264.6	1	50	3
417.9132	1	10	252.7	252.7	1	50	4
455.2068	1	82	n/a	n/a	1	0	0
455.3678	1	82	n/a	n/a	1	0	0
455.4098	1	82	n/a	n/a	1	0	0
455.7168	1	82	n/a	n/a	1	0	0
455.8218	1	82	n/a	n/a	1	0	0
456.2068	1	82	n/a	n/a	1	0	0
456.6358	1	82	n/a	n/a	1	0	0
456.9228	1	82	n/a	n/a	1	0	0
457.1088	1	82	n/a	n/a	1	0	0
457.1728	1	82	n/a	n/a	1	0	0
458.2442	1	10	320.9	320.9	1	52	1
459.3942	1	21	-99	-99	1	52	0
460.5608	1	10	260.3	260.3	1	52	1
461.794	1	10	243	243	1	52	2
463.0106	1	10	242.3	242.3	1	52	3
464.3272	1	10	253.7	253.7	1	52	4
465.377	1	10	307.8	307.8	1	52	5
466.7104	1	10	238.5	238.5	1	52	6
467.877	1	10	271.8	271.8	1	52	7
469.0436	1	21	-99	-99	1	52	0
470.2268	1	10	258	258	1	52	1
471.4934	1	10	255.4	255.4	1	52	2
472.5766	1	10	293.8	293.8	1	52	3
473.76	1	10	228.8	228.8	1	52	4
475.0932	1	10	319.4	319.4	1	52	5
476.2932	1	10	255.5	255.5	1	52	6
477.4764	1	10	256.2	256.2	1	52	7
478.6596	1	21	-99	-99	1	52	0
479.9762	1	10	252.3	252.3	1	52	1
481.2762	1	10	8.3	8.3	1	52	2
482.0578	1	82	n/a	n/a	1	0	0
482.3138	1	82	n/a	n/a	1	0	0
482.4118	1	82	n/a	n/a	1	0	0
482.6448	1	82	n/a	n/a	1	0	0
482.9788	1	82	n/a	n/a	1	0	0
483.0578	1	82	n/a	n/a	1	0	0
483.1878	1	82	n/a	n/a	1	0	0
483.4218	1	82	n/a	n/a	1	0	0
483.7298	1	82	n/a	n/a	1	0	0
483.7588	1	82	n/a	n/a	1	0	0
484.9926	1	10	243.9	243.9	1	52	1
486.0426	1	21	281.9	281.9	1	52	0
487.1924	1	10	235.9	235.9	1	52	1
488.2924	1	10	239.9	239.9	1	52	2
489.4924	1	10	288	288	1	52	3
490.6256	1	10	290.7	290.7	1	52	4
491.9422	1	10	270.1	270.1	1	52	5
493.2588	1	21	-99	-99	1	52	0
494.5254	1	10	278.8	278.8	1	52	1
495.8086	1	21	309.3	309.3	1	52	0
497.0918	1	10	304.3	304.3	1	52	1
498.1584	1	10	277.7	277.7	1	52	2
499.3918	1	10	324.3	324.3	1	52	3
500.4916	1	10	248.4	248.4	1	52	4
501.6916	1	10	248.4	248.4	1	52	5
502.8916	1	21	-99	-99	1	52	0
503.9914	1	10	236.5	236.5	1	52	1
505.0914	1	21	272.6	272.6	1	52	0
506.1746	1	10	293.2	293.2	1	52	1
507.2412	1	10	314.6	314.6	1	52	2
508.1458	1	82	n/a	n/a	1	0	0
508.5408	1	82	n/a	n/a	1	0	0
508.8928	1	82	n/a	n/a	1	0	0
508.9208	1	82	n/a	n/a	1	0	0
509.0348	1	82	n/a	n/a	1	0	0
509.1458	1	82	n/a	n/a	1	0	0
509.1858	1	82	n/a	n/a	1	0	0
509.4498	1	82	n/a	n/a	1	0	0
509.6878	1	82	n/a	n/a	1	0	0
509.8358	1	82	n/a	n/a	1	0	0
511.2078	1	10	-99	-99	1	52	1
512.3744	1	21	253.4	253.4	1	52	0
513.4742	1	10	225.5	225.5	1	52	1
514.7908	1	10	220.9	220.9	1	52	2
515.9574	1	10	286.3	286.3	1	52	3
517.124	1	10	287.6	287.6	1	52	4
518.3406	1	10	303	303	1	52	5
519.5572	1	21	-99	-99	1	52	0
520.7406	1	10	239.1	239.1	1	52	1
521.907	1	10	240.5	240.5	1	52	2
523.1236	1	10	255.9	255.9	1	52	3
524.257	1	10	354.5	354.5	1	52	4
525.4236	1	10	307.9	307.9	1	52	5
526.5902	1	21	261.3	261.3	1	52	0
527.7068	1	10	232.7	232.7	1	52	1
528.8234	1	21	284.1	284.1	1	52	0
530.0732	1	10	250.1	250.1	1	52	1
531.1398	1	10	287.5	287.5	1	52	2
532.3898	1	10	301.5	301.5	1	52	3
533.6398	1	21	-99	-99	1	52	0
534.4904	1	82	n/a	n/a	1	0	0
534.6504	1	82	n/a	n/a	1	0	0
534.8714	1	82	n/a	n/a	1	0	0
535.1484	1	82	n/a	n/a	1	0	0
535.4024	1	82	n/a	n/a	1	0	0
535.4904	1	82	n/a	n/a	1	0	0
535.7524	1	82	n/a	n/a	1	0	0
535.8554	1	82	n/a	n/a	1	0	0
535.9124	1	82	n/a	n/a	1	0	0
535.9924	1	82	n/a	n/a	1	0	0
537.4896	1	10	289.7	289.7	1	52	1
538.5894	1	10	229.7	229.7	1	52	2
539.6394	1	10	267.8	267.8	1	52	3
540.8394	1	10	251.9	251.9	1	52	4
542.156	1	10	279.3	279.3	1	52	5
543.3892	1	10	262	262	1	52	6
544.589	1	10	374	374	1	52	7
545.789	1	21	-99	-99	1	52	0
546.9556	1	10	231.4	231.4	1	52	1
548.0556	1	10	235.5	235.5	1	52	2
549.2054	1	10	221.5	221.5	1	52	3
550.2888	1	10	259.9	259.9	1	52	4
551.5054	1	10	321.5	321.5	1	52	5
552.7552	1	21	223.6	223.6	1	52	0
553.8718	1	10	259	259	1	52	1
554.9884	1	21	262.4	262.4	1	52	0
556.2218	1	10	165	165	1	52	1
557.2884	1	10	282.4	282.4	1	52	2
558.605	1	10	-99	-99	1	52	3
559.7216	1	10	265.2	265.2	1	52	4
560.651	1	82	n/a	n/a	1	0	0
560.71	1	82	n/a	n/a	1	0	0
560.742	1	82	n/a	n/a	1	0	0
560.827	1	82	n/a	n/a	1	0	0
560.955	1	82	n/a	n/a	1	0	0
561.651	1	82	n/a	n/a	1	0	0
561.96	1	82	n/a	n/a	1	0	0
562.049	1	82	n/a	n/a	1	0	0
562.159	1	82	n/a	n/a	1	0	0
562.566	1	82	n/a	n/a	1	0	0
563.738	1	10	344.7	344.7	1	52	1
564.9378	1	21	-99	-99	1	52	0
566.2544	1	10	-99	-99	1	52	1
567.571	1	21	-99	-99	1	52	0
568.871	1	10	315.5	315.5	1	52	1
570.1376	1	10	264.9	264.9	1	52	2
571.3876	1	10	262.9	262.9	1	52	3
572.4874	1	10	283	283	1	52	4
573.554	1	10	288.4	288.4	1	52	5
574.6206	1	21	261.8	261.8	1	52	0
575.8706	1	10	275.7	275.7	1	52	1
577.1206	1	21	-99	-99	1	52	0
578.2204	1	10	197.9	197.9	1	52	1
579.337	1	10	217.3	217.3	1	52	2
580.6204	1	10	262	262	1	52	3
581.687	1	10	267.3	267.3	1	52	4
582.8202	1	10	334	334	1	52	5
583.8534	1	10	228.7	228.7	1	52	6
585.1034	1	10	306.8	306.8	1	52	7
586.3534	1	21	-99	-99	1	52	0
687.0258	1	82	n/a	n/a	1	0	0
687.3108	1	82	n/a	n/a	1	0	0
687.4368	1	82	n/a	n/a	1	0	0
687.5168	1	82	n/a	n/a	1	0	0
687.8988	1	82	n/a	n/a	1	0	0
688.0258	1	82	n/a	n/a	1	0	0
688.4498	1	82	n/a	n/a	1	0	0
688.4738	1	82	n/a	n/a	1	0	0
688.5208	1	82	n/a	n/a	1	0	0
688.6848	1	82	n/a	n/a	1	0	0
690.0638	1	10	303.9	303.9	1	52	1
691.1804	1	10	227.3	227.3	1	52	2
692.4304	1	10	257.3	257.3	1	52	3
693.647	1	10	272.7	272.7	1	52	4
694.897	1	10	254.8	254.8	1	52	5
696.1468	1	10	268.8	268.8	1	52	6
697.2634	1	10	240.2	240.2	1	52	7
698.38	1	21	1235.5	1235.5	1	52	0
699.68	1	10	-99	-99	1	52	1
700.7466	1	10	293	293	1	52	2
701.8798	1	10	231.6	231.6	1	52	3
703.1464	1	10	229	229	1	52	4
704.263	1	10	232.4	232.4	1	52	5
705.3796	1	21	251.8	251.8	1	52	0
706.463	1	10	352.5	352.5	1	52	1
707.6462	1	10	225.3	225.3	1	52	2
708.9628	1	10	220.6	220.6	1	52	3
710.2626	1	10	264.6	264.6	1	52	4
711.4792	1	10	232	232	1	52	5
712.6958	1	21	231.4	231.4	1	52	0
713.6144	1	82	n/a	n/a	1	0	0
713.7894	1	82	n/a	n/a	1	0	0
714.0434	1	82	n/a	n/a	1	0	0
714.1354	1	82	n/a	n/a	1	0	0
714.5734	1	82	n/a	n/a	1	0	0
714.6144	1	82	n/a	n/a	1	0	0
714.8524	1	82	n/a	n/a	1	0	0
715.1764	1	82	n/a	n/a	1	0	0
715.3434	1	82	n/a	n/a	1	0	0
715.4564	1	82	n/a	n/a	1	0	0
716.729	1	10	246.2	246.2	1	52	1
717.8622	1	10	184.9	184.9	1	52	2
718.9956	1	10	219.6	219.6	1	52	3
720.0954	1	10	223.7	223.7	1	52	4
721.1788	1	10	276.3	276.3	1	52	5
722.2786	1	10	280.4	280.4	1	52	6
723.3952	1	10	283.8	283.8	1	52	7
724.5118	1	21	-99	-99	1	52	0
725.6618	1	10	193.2	193.2	1	52	1
726.8118	1	21	3.3	3.3	1	52	0
727.9116	1	10	279.2	279.2	1	52	1
729.1282	1	10	230.6	230.6	1	52	2
730.1616	1	10	253.4	253.4	1	52	3
731.4614	1	10	201.4	201.4	1	52	4
732.6448	1	10	234.2	234.2	1	52	5
733.8614	1	10	217.4	217.4	1	52	6
734.9612	1	10	221.5	221.5	1	52	7
736.0612	1	21	-99	-99	1	52	0
737.2778	1	10	225	225	1	52	1
738.4944	1	21	-99	-99	1	52	0
739.328	1	82	n/a	n/a	1	0	0
739.48	1	82	n/a	n/a	1	0	0
739.82	1	82	n/a	n/a	1	0	0
739.921	1	82	n/a	n/a	1	0	0
740.218	1	82	n/a	n/a	1	0	0
740.328	1	82	n/a	n/a	1	0	0
740.371	1	82	n/a	n/a	1	0	0
740.636	1	82	n/a	n/a	1	0	0
740.714	1	82	n/a	n/a	1	0	0
740.887	1	82	n/a	n/a	1	0	0
742.3608	1	10	277.8	277.8	1	52	1
743.494	1	21	248.5	248.5	1	52	0
744.7106	1	10	231.9	231.9	1	52	1
745.7606	1	10	333.9	333.9	1	52	2
746.9772	1	10	221.3	221.3	1	52	3
748.1272	1	10	175.3	175.3	1	52	4
749.4438	1	10	426.7	426.7	1	52	5
750.7104	1	10	280.1	280.1	1	52	6
751.8436	1	10	234.8	234.8	1	52	7
752.9768	1	21	-99	-99	1	52	0
754.1768	1	10	221.5	221.5	1	52	1
755.3268	1	10	287.6	287.6	1	52	2
756.3766	1	10	229.6	229.6	1	52	3
757.66	1	10	66.4	66.4	1	52	4
758.7432	1	10	263	263	1	52	5
759.9432	1	10	295.1	295.1	1	52	6
761.0598	1	10	234.5	234.5	1	52	7
762.1764	1	21	-99	-99	1	52	0
763.493	1	10	217.3	217.3	1	52	1
764.7594	1	10	262.7	262.7	1	52	2
765.865	1	82	n/a	n/a	1	0	0
766.12	1	82	n/a	n/a	1	0	0
766.167	1	82	n/a	n/a	1	0	0
766.458	1	82	n/a	n/a	1	0	0
766.686	1	82	n/a	n/a	1	0	0
766.865	1	82	n/a	n/a	1	0	0
767.247	1	82	n/a	n/a	1	0	0
767.361	1	82	n/a	n/a	1	0	0
767.71	1	82	n/a	n/a	1	0	0
767.751	1	82	n/a	n/a	1	0	0
769.026	1	10	252.1	252.1	1	52	1
770.2924	1	21	-99	-99	1	52	0
771.4424	1	10	235.5	235.5	1	52	1
772.6924	1	10	249.5	249.5	1	52	2
773.8256	1	10	220.3	220.3	1	52	3
774.9756	1	10	238.3	238.3	1	52	4
776.1088	1	10	209	209	1	52	5
777.242	1	21	227.8	227.8	1	52	0
778.3754	1	10	166.4	166.4	1	52	1
779.5086	1	21	201.1	201.1	1	52	0
780.7252	1	10	200.5	200.5	1	52	1
781.8252	1	10	204.6	204.6	1	52	2
782.9584	1	10	175.3	175.3	1	52	3
784.0916	1	10	241.9	241.9	1	52	4
785.1916	1	10	262	262	1	52	5
786.3082	1	10	265.4	265.4	1	52	6
787.3914	1	10	222.1	222.1	1	52	7
788.4748	1	21	-99	-99	1	52	0
789.6914	1	10	98.2	98.2	1	52	1
790.7746	1	10	246.8	246.8	1	52	2
791.8152	1	82	n/a	n/a	1	0	0
791.9492	1	82	n/a	n/a	1	0	0
791.9902	1	82	n/a	n/a	1	0	0
792.3202	1	82	n/a	n/a	1	0	0
792.612	1	82	n/a	n/a	1	0	0
792.8152	1	82	n/a	n/a	1	0	0
793.0892	1	82	n/a	n/a	1	0	0
793.1592	1	82	n/a	n/a	1	0	0
793.5512	1	82	n/a	n/a	1	0	0
793.6432	1	82	n/a	n/a	1	0	0
794.8744	1	10	291	291	1	52	1
796.1076	1	10	289.8	289.8	1	52	2
797.1576	1	10	279.7	279.7	1	52	3
798.3242	1	10	233.1	233.1	1	52	4
799.5408	1	10	248.5	248.5	1	52	5
800.8408	1	10	276.6	276.6	1	52	6
802.0406	1	10	244.7	244.7	1	52	7
803.2406	1	21	260.6	260.6	1	52	0
804.3404	1	10	248.7	248.7	1	52	1
805.4404	1	21	252.7	252.7	1	52	0
806.657	1	10	284.1	284.1	1	52	1
807.8736	1	21	267.5	267.5	1	52	0
808.9236	1	10	289.5	289.5	1	52	1
810.1902	1	10	334.9	334.9	1	52	2
811.2734	1	10	243.6	243.6	1	52	3
812.3066	1	10	298.3	298.3	1	52	4
813.5732	1	10	295.7	295.7	1	52	5
814.8398	1	21	-99	-99	1	52	0
815.9564	1	10	248.4	248.4	1	52	1
817.2064	1	10	342.5	342.5	1	52	2
828.1808	1	82	n/a	n/a	1	0	0
828.3278	1	82	n/a	n/a	1	0	0
828.6308	1	82	n/a	n/a	1	0	0
828.8238	1	82	n/a	n/a	1	0	0
828.9118	1	82	n/a	n/a	1	0	0
829.181	1	82	n/a	n/a	1	0	0
829.282	1	82	n/a	n/a	1	0	0
829.718	1	82	n/a	n/a	1	0	0
830.0768	1	82	n/a	n/a	1	0	0
830.1268	1	82	n/a	n/a	1	0	0
831.139	1	10	425.7	425.7	1	50	1
832.2056	1	10	239.1	239.1	1	50	2
833.4388	1	10	253.8	253.8	1	50	3
834.5554	1	10	289.1	289.1	1	50	4
835.772	1	10	320.5	320.5	1	50	5
836.9886	1	21	255.9	255.9	1	50	0
838.1218	1	10	210.6	210.6	1	50	1
839.2052	1	10	183.3	183.3	1	50	2
840.255	1	10	253.4	253.4	1	50	3
841.305	1	21	-99	-99	1	50	0
842.4382	1	10	214.1	214.1	1	50	1
843.6548	1	10	229.5	229.5	1	50	2
844.9548	1	10	241.5	241.5	1	50	3
846.2548	1	21	253.6	253.6	1	50	0
847.388	1	10	240.2	240.2	1	50	1
848.5712	1	10	240.9	240.9	1	50	2
849.8378	1	10	254.3	254.3	1	50	3
851.0044	1	10	223.7	223.7	1	50	4
852.221	1	10	287.1	287.1	1	50	5
853.4376	1	21	-99	-99	1	50	0
854.2424	1	82	n/a	n/a	1	0	0
854.4904	1	82	n/a	n/a	1	0	0
854.5834	1	82	n/a	n/a	1	0	0
854.8004	1	82	n/a	n/a	1	0	0
854.9524	1	82	n/a	n/a	1	0	0
855.2424	1	82	n/a	n/a	1	0	0
855.3484	1	82	n/a	n/a	1	0	0
855.6194	1	82	n/a	n/a	1	0	0
855.9684	1	82	n/a	n/a	1	0	0
856.0354	1	82	n/a	n/a	1	0	0
857.2208	1	10	295.3	295.3	1	50	1
858.5206	1	10	307.4	307.4	1	50	2
859.5706	1	10	249.3	249.3	1	50	3
860.8538	1	10	214	214	1	50	4
862.0704	1	10	309.4	309.4	1	50	5
863.287	1	21	-99	-99	1	50	0
864.5702	1	10	241.6	241.6	1	50	1
865.8536	1	21	270.2	270.2	1	50	0
867.1534	1	10	234.3	234.3	1	50	1
868.22	1	10	255.7	255.7	1	50	2
869.52	1	10	283.7	283.7	1	50	3
870.82	1	21	-99	-99	1	50	0
872.1198	1	10	259.8	259.8	1	50	1
873.4198	1	21	-99	-99	1	50	0
874.503	1	10	260.6	260.6	1	50	1
875.5864	1	21	265.3	265.3	1	50	0
876.8862	1	10	277.3	277.3	1	50	1
878.1862	1	21	-99	-99	1	50	0
879.336	1	10	259.4	259.4	1	50	1
880.4526	1	10	310.8	310.8	1	50	2
881.2542	1	82	n/a	n/a	1	0	0
881.5742	1	82	n/a	n/a	1	0	0
881.7412	1	82	n/a	n/a	1	0	0
881.8422	1	82	n/a	n/a	1	0	0
882.2092	1	82	n/a	n/a	1	0	0
882.2542	1	82	n/a	n/a	1	0	0
882.6072	1	82	n/a	n/a	1	0	0
882.6342	1	82	n/a	n/a	1	0	0
882.8162	1	82	n/a	n/a	1	0	0
883.0602	1	82	n/a	n/a	1	0	0
884.2692	1	10	270.3	270.3	1	50	1
885.5524	1	10	266.9	266.9	1	50	2
886.6524	1	10	319	319	1	50	3
887.769	1	10	306.4	306.4	1	50	4
888.9688	1	10	306.4	306.4	1	50	5
890.1688	1	10	274.5	274.5	1	50	6
891.4854	1	10	333.8	333.8	1	50	7
892.802	1	21	-99	-99	1	50	0
894.0852	1	10	293.9	293.9	1	50	1
895.2018	1	10	313.3	313.3	1	50	2
896.4184	1	10	280.7	280.7	1	50	3
897.535	1	10	252	252	1	50	4
898.8016	1	10	233.4	233.4	1	50	5
900.1182	1	10	308.8	308.8	1	50	6
901.3682	1	10	290.9	290.9	1	50	7
902.618	1	21	-99	-99	1	50	0
903.918	1	10	236.9	236.9	1	50	1
905.118	1	10	269	269	1	50	2
906.4178	1	10	233	233	1	50	3
907.5678	1	10	299.1	299.1	1	50	4
908.4752	1	82	n/a	n/a	1	0	0
908.6962	1	82	n/a	n/a	1	0	0
908.7452	1	82	n/a	n/a	1	0	0
908.8352	1	82	n/a	n/a	1	0	0
909.1022	1	82	n/a	n/a	1	0	0
909.4752	1	82	n/a	n/a	1	0	0
909.6112	1	82	n/a	n/a	1	0	0
909.8752	1	82	n/a	n/a	1	0	0
909.9172	1	82	n/a	n/a	1	0	0
910.3162	1	82	n/a	n/a	1	0	0
911.5342	1	10	236.5	236.5	1	50	1
912.6508	1	10	239.9	239.9	1	50	2
913.9174	1	10	237.3	237.3	1	50	3
915.184	1	21	-99	-99	1	50	0
916.2172	1	10	241.5	241.5	1	50	1
917.3172	1	10	213.4	213.4	1	50	2
918.3672	1	10	251.5	251.5	1	50	3
919.517	1	10	253.5	253.5	1	50	4
920.8004	1	10	234.3	234.3	1	50	5
922.017	1	10	265.7	265.7	1	50	6
923.2002	1	10	298.3	298.3	1	50	7
924.3834	1	21	-99	-99	1	50	0
925.6834	1	10	279.1	279.1	1	50	1
927	1	21	258.5	258.5	1	50	0
928.1998	1	10	114.5	114.5	1	50	1
929.4164	1	10	241.8	241.8	1	50	2
930.683	1	10	271.2	271.2	1	50	3
931.8496	1	10	336.6	336.6	1	50	4
932.9662	1	10	292	292	1	50	5
934.0828	1	21	-99	-99	1	50	0
934.9646	1	82	n/a	n/a	1	0	0
935.2426	1	82	n/a	n/a	1	0	0
935.3246	1	82	n/a	n/a	1	0	0
935.6636	1	82	n/a	n/a	1	0	0
935.8306	1	82	n/a	n/a	1	0	0
935.9646	1	82	n/a	n/a	1	0	0
936.3236	1	82	n/a	n/a	1	0	0
936.4906	1	82	n/a	n/a	1	0	0
936.8116	1	82	n/a	n/a	1	0	0
936.9066	1	82	n/a	n/a	1	0	0
937.9826	1	10	331.5	331.5	1	50	1
939.266	1	10	264.2	264.2	1	50	2
940.3492	1	10	365	365	1	50	3
941.6492	1	10	280.9	280.9	1	50	4
942.8324	1	10	281.7	281.7	1	50	5
943.9656	1	10	316.4	316.4	1	50	6
945.0156	1	10	434.4	434.4	1	50	7
946.0656	1	21	-99	-99	1	50	0
947.1322	1	10	269.9	269.9	1	50	1
948.3654	1	10	268.5	268.5	1	50	2
949.3986	1	10	355.2	355.2	1	50	3
950.4486	1	10	297.3	297.3	1	50	4
951.5152	1	10	238.7	238.7	1	50	5
952.5818	1	21	-99	-99	1	50	0
953.7318	1	10	230	230	1	50	1
954.9984	1	10	259.4	259.4	1	50	2
956.215	1	10	306.8	306.8	1	50	3
957.3982	1	10	291.6	291.6	1	50	4
958.6648	1	10	273	273	1	50	5
959.8648	1	10	289	289	1	50	6
984.5336	1	81	n/a	n/a	1	0	0
984.7336	1	81	n/a	n/a	1	0	0
984.9336	1	81	n/a	n/a	1	0	0
985.1336	1	81	n/a	n/a	1	0	0
985.3336	1	81	n/a	n/a	1	0	0
985.5336	1	81	n/a	n/a	1	0	0
985.7336	1	81	n/a	n/a	1	0	0
985.9336	1	81	n/a	n/a	1	0	0
986.1336	1	81	n/a	n/a	1	0	0
986.3336	1	81	n/a	n/a	1	0	0
987.663	1	10	346	346	1	51	1
988.813	1	10	252	252	1	51	2
989.8962	1	10	224.7	224.7	1	51	3
990.9796	1	21	-99	-99	1	51	0
992.2462	1	10	226.8	226.8	1	51	1
993.4628	1	10	242.2	242.2	1	51	2
994.5294	1	10	247.6	247.6	1	51	3
995.596	1	21	-99	-99	1	51	0
996.6292	1	10	-99	-99	1	51	1
997.6624	1	21	266.4	266.4	1	51	0
998.8458	1	10	203	203	1	51	1
1000.079	1	10	297.7	297.7	1	51	2
1001.2122	1	10	252.5	252.5	1	51	3
1002.2788	1	10	289.8	289.8	1	51	4
1003.4788	1	10	241.9	241.9	1	51	5
1004.6788	1	21	-99	-99	1	51	0
1005.812	1	10	228.6	228.6	1	51	1
1006.9452	1	21	215.3	215.3	1	51	0
1008.0952	1	10	249.4	249.4	1	51	1
1009.2452	1	21	-99	-99	1	51	0
1010.3538	1	81	n/a	n/a	1	0	0
1010.5538	1	81	n/a	n/a	1	0	0
1010.7538	1	81	n/a	n/a	1	0	0
1010.9538	1	81	n/a	n/a	1	0	0
1011.1538	1	81	n/a	n/a	1	0	0
1011.3546	1	81	n/a	n/a	1	0	0
1011.5546	1	81	n/a	n/a	1	0	0
1011.7546	1	81	n/a	n/a	1	0	0
1011.9546	1	81	n/a	n/a	1	0	0
1012.1546	1	81	n/a	n/a	1	0	0
1013.4116	1	10	324.9	324.9	1	51	1
1014.5782	1	21	-99	-99	1	51	0
1015.8948	1	10	193.7	193.7	1	51	1
1017.2114	1	21	253.1	253.1	1	51	0
1018.328	1	10	256.4	256.4	1	51	1
1019.4446	1	21	-99	-99	1	51	0
1020.5778	1	10	230.5	230.5	1	51	1
1021.6444	1	10	283.9	283.9	1	51	2
1022.7276	1	10	288.6	288.6	1	51	3
1023.8942	1	10	353.9	353.9	1	51	4
1024.9608	1	10	343.3	343.3	1	51	5
1026.0274	1	21	-99	-99	1	51	0
1027.2774	1	10	298.7	298.7	1	51	1
1028.3606	1	10	319.5	319.5	1	51	2
1029.5606	1	10	303.5	303.5	1	51	3
1030.7606	1	21	-99	-99	1	51	0
1031.9772	1	10	254.9	254.9	1	51	1
1033.1104	1	10	417.6	417.6	1	51	2
1034.4104	1	10	221.7	221.7	1	51	3
1035.5602	1	10	287.7	287.7	1	51	4
1036.5986	1	81	n/a	n/a	1	0	0
1036.7986	1	81	n/a	n/a	1	0	0
1036.9986	1	81	n/a	n/a	1	0	0
1037.1986	1	81	n/a	n/a	1	0	0
1037.3986	1	81	n/a	n/a	1	0	0
1037.5986	1	81	n/a	n/a	1	0	0
1037.7986	1	81	n/a	n/a	1	0	0
1037.9986	1	81	n/a	n/a	1	0	0
1038.1986	1	81	n/a	n/a	1	0	0
1038.3986	1	81	n/a	n/a	1	0	0
1039.71	1	10	233.9	233.9	1	51	1
1040.7432	1	10	224.6	224.6	1	51	2
1041.8266	1	10	197.3	197.3	1	51	3
1042.9098	1	21	1097.9	1097.9	1	51	0
1044.2264	1	10	-99	-99	1	51	1
1045.3096	1	10	234	234	1	51	2
1046.3762	1	10	287.4	287.4	1	51	3
1047.4762	1	10	307.5	307.5	1	51	4
1048.6762	1	10	227.6	227.6	1	51	5
1049.876	1	21	-99	-99	1	51	0
1050.9426	1	10	233	233	1	51	1
1052.0926	1	10	267	267	1	51	2
1053.2926	1	10	251	251	1	51	3
1054.4924	1	10	267.1	267.1	1	51	4
1055.7924	1	10	263.1	263.1	1	51	5
1056.8256	1	10	317.8	317.8	1	51	6
1057.8922	1	10	291.2	291.2	1	51	7
1058.9588	1	21	-99	-99	1	51	0
1060.1922	1	10	263.3	263.3	1	51	1
1061.242	1	10	253.3	253.3	1	51	2
1062.3088	1	81	n/a	n/a	1	0	0
1062.5088	1	81	n/a	n/a	1	0	0
1062.7088	1	81	n/a	n/a	1	0	0
1062.9088	1	81	n/a	n/a	1	0	0
1063.1088	1	81	n/a	n/a	1	0	0
1063.3088	1	81	n/a	n/a	1	0	0
1063.5088	1	81	n/a	n/a	1	0	0
1063.7088	1	81	n/a	n/a	1	0	0
1063.9088	1	81	n/a	n/a	1	0	0
1064.1088	1	81	n/a	n/a	1	0	0
1065.3752	1	10	296.1	296.1	1	51	1
1066.4584	1	10	268.8	268.8	1	51	2
1067.7084	1	10	234.9	234.9	1	51	3
1068.9584	1	21	-99	-99	1	51	0
1070.2248	1	10	262.3	262.3	1	51	1
1071.3914	1	10	247.7	247.7	1	51	2
1072.5748	1	10	264.4	264.4	1	51	3
1073.858	1	10	293.1	293.1	1	51	4
1075.1746	1	10	288.4	288.4	1	51	5
1076.3578	1	10	241.2	241.2	1	51	6
1077.6744	1	10	252.6	252.6	1	51	7
1078.991	1	21	-99	-99	1	51	0
1080.241	1	10	246	246	1	51	1
1081.2742	1	10	236.6	236.6	1	51	2
1082.5574	1	10	233.4	233.4	1	51	3
1083.6908	1	10	252.1	252.1	1	51	4
1084.824	1	10	270.8	270.8	1	51	5
1086.0406	1	10	238.2	238.2	1	51	6
1087.3238	1	10	362.9	362.9	1	51	7
1088.6072	1	21	231.6	231.6	1	51	0
1089.6586	1	81	n/a	n/a	1	0	0
1089.8586	1	81	n/a	n/a	1	0	0
1090.0586	1	81	n/a	n/a	1	0	0
1090.2586	1	81	n/a	n/a	1	0	0
1090.4586	1	81	n/a	n/a	1	0	0
1090.6586	1	81	n/a	n/a	1	0	0
1090.8586	1	81	n/a	n/a	1	0	0
1091.0586	1	81	n/a	n/a	1	0	0
1091.2586	1	81	n/a	n/a	1	0	0
1091.4586	1	81	n/a	n/a	1	0	0
1092.7736	1	10	321.1	321.1	1	51	1
1093.9236	1	10	243.1	243.1	1	51	2
1095.0568	1	10	245.8	245.8	1	51	3
1096.19	1	21	-99	-99	1	51	0
1097.4732	1	10	261.3	261.3	1	51	1
1098.7398	1	10	290.7	290.7	1	51	2
1099.8232	1	10	311.3	311.3	1	51	3
1101.0398	1	10	390.7	390.7	1	51	4
1102.2896	1	10	308.8	308.8	1	51	5
1103.5562	1	10	322.2	322.2	1	51	6
1104.8562	1	10	302.2	302.2	1	51	7
1106.1562	1	21	-99	-99	1	51	0
1107.3728	1	10	249.6	249.6	1	51	1
1108.5894	1	21	-99	-99	1	51	0
1109.656	1	10	254.4	254.4	1	51	1
1110.8892	1	10	301.1	301.1	1	51	2
1112.1058	1	10	252.5	252.5	1	51	3
1113.1558	1	10	290.5	290.5	1	51	4
1114.439	1	10	287.2	287.2	1	51	5
1115.7222	1	21	-99	-99	1	51	0
1200.179	1	82	n/a	n/a	1	0	0
1200.559	1	82	n/a	n/a	1	0	0
1200.588	1	82	n/a	n/a	1	0	0
1200.752	1	82	n/a	n/a	1	0	0
1200.84	1	82	n/a	n/a	1	0	0
1201.179	1	82	n/a	n/a	1	0	0
1201.596	1	82	n/a	n/a	1	0	0
1201.635	1	82	n/a	n/a	1	0	0
1201.776	1	82	n/a	n/a	1	0	0
1201.87	1	82	n/a	n/a	1	0	0
1203.2838	1	10	336.4	336.4	1	52	1
1204.4836	1	10	240.5	240.5	1	52	2
1205.717	1	10	271.2	271.2	1	52	3
1207.0002	1	10	267.8	267.8	1	52	4
1208.1334	1	10	302.6	302.6	1	52	5
1209.2668	1	21	-99	-99	1	52	0
1210.4834	1	10	240.7	240.7	1	52	1
1211.6	1	10	276.1	276.1	1	52	2
1212.8332	1	10	290.7	290.7	1	52	3
1214.0332	1	10	290.8	290.8	1	52	4
1215.283	1	10	240.8	240.8	1	52	5
1216.383	1	10	276.9	276.9	1	52	6
1217.6662	1	10	225.6	225.6	1	52	7
1218.9496	1	21	-99	-99	1	52	0
1220.1328	1	10	239	239	1	52	1
1221.1994	1	10	260.4	260.4	1	52	2
1222.2994	1	10	296.4	296.4	1	52	3
1223.5826	1	10	261.2	261.2	1	52	4
1224.7326	1	10	327.2	327.2	1	52	5
1225.8824	1	21	-99	-99	1	52	0
1226.8462	1	82	n/a	n/a	1	0	0
1227.1932	1	82	n/a	n/a	1	0	0
1227.2612	1	82	n/a	n/a	1	0	0
1227.2872	1	82	n/a	n/a	1	0	0
1227.5102	1	82	n/a	n/a	1	0	0
1227.8462	1	82	n/a	n/a	1	0	0
1227.8732	1	82	n/a	n/a	1	0	0
1228.0222	1	82	n/a	n/a	1	0	0
1228.2162	1	82	n/a	n/a	1	0	0
1228.5552	1	82	n/a	n/a	1	0	0
1229.7988	1	10	268.7	268.7	1	52	1
1231.0154	1	10	252.1	252.1	1	52	2
1232.1154	1	10	256.2	256.2	1	52	3
1233.432	1	10	299.5	299.5	1	52	4
1234.5986	1	10	300.9	300.9	1	52	5
1235.7652	1	21	286.3	286.3	1	52	0
1236.9652	1	10	238.3	238.3	1	52	1
1238.165	1	21	-99	-99	1	52	0
1239.465	1	10	234.4	234.4	1	52	1
1240.7482	1	10	231.1	231.1	1	52	2
1241.8816	1	10	281.8	281.8	1	52	3
1242.948	1	10	255.2	255.2	1	52	4
1244.1314	1	10	111.9	111.9	1	52	5
1245.1814	1	10	293.9	293.9	1	52	6
1246.4312	1	10	308	308	1	52	7
1247.6812	1	21	-99	-99	1	52	0
1248.9144	1	10	224.7	224.7	1	52	1
1250.231	1	10	252.1	252.1	1	52	2
1251.4142	1	10	252.8	252.8	1	52	3
1252.5976	1	21	221.5	221.5	1	52	0
1253.349	1	82	n/a	n/a	1	0	0
1253.622	1	82	n/a	n/a	1	0	0
1253.766	1	82	n/a	n/a	1	0	0
1254.198	1	82	n/a	n/a	1	0	0
1254.318	1	82	n/a	n/a	1	0	0
1254.349	1	82	n/a	n/a	1	0	0
1254.615	1	82	n/a	n/a	1	0	0
1254.65	1	82	n/a	n/a	1	0	0
1255.014	1	82	n/a	n/a	1	0	0
1255.088	1	82	n/a	n/a	1	0	0
1256.3806	1	10	246.4	246.4	1	52	1
1257.464	1	10	235	235	1	52	2
1258.6306	1	10	252.4	252.4	1	52	3
1259.6972	1	10	241.8	241.8	1	52	4
1260.7638	1	10	247.2	247.2	1	52	5
1261.8304	1	21	268.5	268.5	1	52	0
1263.1136	1	10	265.3	265.3	1	52	1
1264.2136	1	10	269.2	269.2	1	52	2
1265.2634	1	10	259.3	259.3	1	52	3
1266.3134	1	21	-99	-99	1	52	0
1267.3466	1	10	208.1	208.1	1	52	1
1268.38	1	21	-99	-99	1	52	0
1269.5132	1	10	249.5	249.5	1	52	1
1270.7132	1	10	281.5	281.5	1	52	2
1271.813	1	10	237.5	237.5	1	52	3
1272.913	1	21	-99	-99	1	52	0
1274.1462	1	10	-99	-99	1	52	1
1275.2628	1	10	275.7	275.7	1	52	2
1276.4128	1	10	245.8	245.8	1	52	3
1277.5628	1	21	-99	-99	1	52	0
1278.5134	1	82	n/a	n/a	1	0	0
1278.7884	1	82	n/a	n/a	1	0	0
1279.0274	1	82	n/a	n/a	1	0	0
1279.0814	1	82	n/a	n/a	1	0	0
1279.2214	1	82	n/a	n/a	1	0	0
1279.5134	1	82	n/a	n/a	1	0	0
1279.6664	1	82	n/a	n/a	1	0	0
1279.9774	1	82	n/a	n/a	1	0	0
1280.2124	1	82	n/a	n/a	1	0	0
1280.3314	1	82	n/a	n/a	1	0	0
1281.6458	1	10	260.6	260.6	1	52	1
1282.8624	1	10	259.9	259.9	1	52	2
1283.9124	1	10	234	234	1	52	3
1285.1956	1	10	262.7	262.7	1	52	4
1286.4956	1	10	258.8	258.8	1	52	5
1287.7288	1	10	225.5	225.5	1	52	6
1288.7788	1	10	311.5	311.5	1	52	7
1289.8286	1	21	-99	-99	1	52	0
1290.862	1	10	308.2	308.2	1	52	1
1291.9618	1	10	248.3	248.3	1	52	2
1293.1452	1	10	265	265	1	52	3
1294.3784	1	10	215.7	215.7	1	52	4
1295.4116	1	10	334.4	334.4	1	52	5
1296.6782	1	10	219.8	219.8	1	52	6
1297.7282	1	10	337.8	337.8	1	52	7
1298.7782	1	21	-99	-99	1	52	0
1299.8114	1	10	254.6	254.6	1	52	1
1301.0614	1	10	268.6	268.6	1	52	2
1302.2446	1	10	285.3	285.3	1	52	3
1303.4112	1	10	334.7	334.7	1	52	4
1304.2998	1	82	n/a	n/a	1	0	0
1304.3338	1	82	n/a	n/a	1	0	0
1304.5718	1	82	n/a	n/a	1	0	0
1304.8568	1	82	n/a	n/a	1	0	0
1305.2086	1	82	n/a	n/a	1	0	0
1305.2998	1	82	n/a	n/a	1	0	0
1305.5968	1	82	n/a	n/a	1	0	0
1305.7448	1	82	n/a	n/a	1	0	0
1305.7748	1	82	n/a	n/a	1	0	0
1306.0238	1	82	n/a	n/a	1	0	0
1307.3944	1	10	303.5	303.5	1	52	1
1308.5276	1	10	258.2	258.2	1	52	2
1309.7442	1	10	273.6	273.6	1	52	3
1310.8274	1	10	278.3	278.3	1	52	4
1311.9608	1	10	249	249	1	52	5
1313.144	1	10	249.7	249.7	1	52	6
1314.3772	1	10	264.4	264.4	1	52	7
1315.6106	1	21	-99	-99	1	52	0
1316.8272	1	10	230.5	230.5	1	52	1
1317.9438	1	10	233.9	233.9	1	52	2
1319.077	1	10	284.6	284.6	1	52	3
1320.2102	1	21	-99	-99	1	52	0
1321.4768	1	10	220.6	220.6	1	52	1
1322.6768	1	10	236.7	236.7	1	52	2
1323.86	1	10	317.4	317.4	1	52	3
1324.8932	1	10	292.2	292.2	1	52	4
1325.96	1	10	489.5	489.5	1	52	5
1327.0432	1	10	510.2	510.2	1	52	6
1328.2598	1	10	301.6	301.6	1	52	7
1329.4764	1	21	-99	-99	1	52	0
1340.0928	1	81	n/a	n/a	1	0	0
1340.2928	1	81	n/a	n/a	1	0	0
1340.4928	1	81	n/a	n/a	1	0	0
1340.6928	1	81	n/a	n/a	1	0	0
1340.8928	1	81	n/a	n/a	1	0	0
1341.0928	1	81	n/a	n/a	1	0	0
1341.2928	1	81	n/a	n/a	1	0	0
1341.4928	1	81	n/a	n/a	1	0	0
1341.6928	1	81	n/a	n/a	1	0	0
1341.8928	1	81	n/a	n/a	1	0	0
1343.0422	1	10	302.8	302.8	1	50	1
1344.2088	1	10	256.2	256.2	1	50	2
1345.342	1	10	290.9	290.9	1	50	3
1346.6586	1	10	254.2	254.2	1	50	4
1347.7586	1	10	290.3	290.3	1	50	5
1348.8418	1	10	231	231	1	50	6
1349.8752	1	10	285.7	285.7	1	50	7
1350.9084	1	21	-99	-99	1	50	0
1352.0916	1	10	213.1	213.1	1	50	1
1353.125	1	10	235.8	235.8	1	50	2
1354.225	1	10	223.8	223.8	1	50	3
1355.3248	1	21	243.9	243.9	1	50	0
1356.5748	1	10	18	18	1	50	1
1357.8914	1	10	255.2	255.2	1	50	2
1359.1412	1	10	251.3	251.3	1	50	3
1360.2746	1	10	286.1	286.1	1	50	4
1361.4744	1	10	382.1	382.1	1	50	5
1362.6744	1	21	-99	-99	1	50	0
1363.7576	1	10	242.9	242.9	1	50	1
1364.841	1	21	247.5	247.5	1	50	0
1365.5764	1	81	n/a	n/a	1	0	0
1365.7764	1	81	n/a	n/a	1	0	0
1365.9764	1	81	n/a	n/a	1	0	0
1366.1764	1	81	n/a	n/a	1	0	0
1366.3764	1	81	n/a	n/a	1	0	0
1366.5764	1	81	n/a	n/a	1	0	0
1366.7764	1	81	n/a	n/a	1	0	0
1366.9764	1	81	n/a	n/a	1	0	0
1367.1764	1	81	n/a	n/a	1	0	0
1367.3764	1	81	n/a	n/a	1	0	0
1368.674	1	10	238.4	238.4	1	50	1
1369.874	1	21	-99	-99	1	50	0
1371.0572	1	10	287.2	287.2	1	50	1
1372.3072	1	10	253.1	253.1	1	50	2
1373.3404	1	10	275.9	275.9	1	50	3
1374.3904	1	10	409.9	409.9	1	50	4
1375.5904	1	10	362	362	1	50	5
1376.6902	1	10	606	606	1	50	6
1377.7568	1	10	259.3	259.3	1	50	7
1378.8234	1	21	248.7	248.7	1	50	0
1380.14	1	10	52.1	52.1	1	50	1
1381.2566	1	10	279.5	279.5	1	50	2
1382.5066	1	10	245.6	245.6	1	50	3
1383.6066	1	10	313.6	313.6	1	50	4
1384.6898	1	10	398.3	398.3	1	50	5
1385.773	1	21	-99	-99	1	50	0
1386.9396	1	10	244.4	244.4	1	50	1
1388.223	1	10	-99	-99	1	50	2
1389.3728	1	10	227.2	227.2	1	50	3
1390.4228	1	10	249.2	249.2	1	50	4
1391.5302	1	81	n/a	n/a	1	0	0
1391.7302	1	81	n/a	n/a	1	0	0
1391.9302	1	81	n/a	n/a	1	0	0
1392.1302	1	81	n/a	n/a	1	0	0
1392.3302	1	81	n/a	n/a	1	0	0
1392.5302	1	81	n/a	n/a	1	0	0
1392.7302	1	81	n/a	n/a	1	0	0
1392.9302	1	81	n/a	n/a	1	0	0
1393.1302	1	81	n/a	n/a	1	0	0
1393.3302	1	81	n/a	n/a	1	0	0
1394.5892	1	10	274.7	274.7	1	50	1
1395.7558	1	21	276.1	276.1	1	50	0
1396.9724	1	10	211.4	211.4	1	50	1
1398.1224	1	10	229.4	229.4	1	50	2
1399.4222	1	10	225.5	225.5	1	50	3
1400.7222	1	10	221.5	221.5	1	50	4
1401.8054	1	10	260.1	260.1	1	50	5
1402.8388	1	21	-99	-99	1	50	0
1404.0054	1	10	250.3	250.3	1	50	1
1405.0552	1	10	240.3	240.3	1	50	2
1406.2386	1	10	49.1	49.1	1	50	3
1407.2718	1	10	231.8	231.8	1	50	4
1408.3384	1	10	253.2	253.2	1	50	5
1409.405	1	21	-99	-99	1	50	0
1410.6882	1	10	239.2	239.2	1	50	1
1412.0048	1	10	282.6	282.6	1	50	2
1413.1548	1	10	236.7	236.7	1	50	3
1414.3048	1	21	-99	-99	1	50	0
1415.488	1	10	-99	-99	1	50	1
1416.7046	1	10	238.7	238.7	1	50	2
1417.436	1	81	n/a	n/a	1	0	0
1417.636	1	81	n/a	n/a	1	0	0
1417.836	1	81	n/a	n/a	1	0	0
1418.036	1	81	n/a	n/a	1	0	0
1418.236	1	81	n/a	n/a	1	0	0
1418.436	1	81	n/a	n/a	1	0	0
1418.636	1	81	n/a	n/a	1	0	0
1418.836	1	81	n/a	n/a	1	0	0
1419.036	1	81	n/a	n/a	1	0	0
1419.236	1	81	n/a	n/a	1	0	0
1420.5876	1	10	211.6	211.6	1	50	1
1421.6876	1	10	247.7	247.7	1	50	2
1422.7876	1	10	235.7	235.7	1	50	3
1424.0042	1	10	219	219	1	50	4
1425.0874	1	10	255.7	255.7	1	50	5
1426.1706	1	21	-99	-99	1	50	0
1427.3706	1	10	148.5	148.5	1	50	1
1428.4206	1	10	234.5	234.5	1	50	2
1429.5204	1	10	238.5	238.5	1	50	3
1430.6204	1	10	242.6	242.6	1	50	4
1431.8036	1	10	243.3	243.3	1	50	5
1432.8536	1	10	217.4	217.4	1	50	6
1434.1702	1	10	276.8	276.8	1	50	7
1435.4868	1	21	192.1	192.1	1	50	0
1436.6868	1	10	176.1	176.1	1	50	1
1437.8866	1	21	224.2	224.2	1	50	0
1439.17	1	10	12.9	12.9	1	50	1
1440.3032	1	10	175.7	175.7	1	50	2
1441.5532	1	10	205.6	205.6	1	50	3
1442.6864	1	10	240.4	240.4	1	50	4
1443.4708	1	81	n/a	n/a	1	0	0
1443.6708	1	81	n/a	n/a	1	0	0
1443.8708	1	81	n/a	n/a	1	0	0
1444.0708	1	81	n/a	n/a	1	0	0
1444.2708	1	81	n/a	n/a	1	0	0
1444.4708	1	81	n/a	n/a	1	0	0
1444.6708	1	81	n/a	n/a	1	0	0
1444.8708	1	81	n/a	n/a	1	0	0
1445.0708	1	81	n/a	n/a	1	0	0
1445.2708	1	81	n/a	n/a	1	0	0
1446.5528	1	10	229.9	229.9	1	50	1
1447.7528	1	10	213.9	213.9	1	50	2
1448.9526	1	10	229.9	229.9	1	50	3
1450.2026	1	10	212	212	1	50	4
1451.4526	1	10	82	82	1	50	5
1452.4858	1	10	216.8	216.8	1	50	6
1453.6024	1	10	220.1	220.1	1	50	7
1454.719	1	21	1055.5	1055.5	1	50	0
1455.7856	1	10	-99	-99	1	50	1
1457.0188	1	10	115.6	115.6	1	50	2
1458.3354	1	10	223	223	1	50	3
1459.652	1	21	-99	-99	1	50	0
1460.7186	1	10	223.7	223.7	1	50	1
1461.7852	1	21	229.1	229.1	1	50	0
1462.9352	1	10	23.1	23.1	1	50	1
1463.9852	1	10	221.2	221.2	1	50	2
1465.1018	1	10	224.6	224.6	1	50	3
1466.2016	1	10	228.5	228.5	1	50	4
1467.285	1	10	233.2	233.2	1	50	5
1468.3682	1	21	158	158	1	50	0
1488.9088	1	81	n/a	n/a	1	0	0
1489.1088	1	81	n/a	n/a	1	0	0
1489.3088	1	81	n/a	n/a	1	0	0
1489.5088	1	81	n/a	n/a	1	0	0
1489.7088	1	81	n/a	n/a	1	0	0
1489.9088	1	81	n/a	n/a	1	0	0
1490.1088	1	81	n/a	n/a	1	0	0
1490.3088	1	81	n/a	n/a	1	0	0
1490.5088	1	81	n/a	n/a	1	0	0
1490.7088	1	81	n/a	n/a	1	0	0
1491.9668	1	10	350.8	350.8	1	51	1
1493.0668	1	10	242.8	242.8	1	51	2
1494.3	1	10	161.6	161.6	1	51	3
1495.6166	1	10	-99	-99	1	51	4
1496.7998	1	10	189.7	189.7	1	51	5
1498.0498	1	10	267.7	267.7	1	51	6
1499.3498	1	10	231.7	231.7	1	51	7
1500.6496	1	21	211.8	211.8	1	51	0
1501.8996	1	10	225.9	225.9	1	51	1
1503.0828	1	10	322.6	322.6	1	51	2
1504.2662	1	10	259.2	259.2	1	51	3
1505.4494	1	21	243.9	243.9	1	51	0
1506.6826	1	10	242.7	242.7	1	51	1
1507.8992	1	10	226.1	226.1	1	51	2
1508.9824	1	10	230.8	230.8	1	51	3
1510.0158	1	10	237.5	237.5	1	51	4
1511.2324	1	10	220.8	220.8	1	51	5
1512.449	1	21	-99	-99	1	51	0
1513.549	1	10	208.3	208.3	1	51	1
1514.8154	1	10	221.7	221.7	1	51	2
1515.789	1	81	n/a	n/a	1	0	0
1515.989	1	81	n/a	n/a	1	0	0
1516.189	1	81	n/a	n/a	1	0	0
1516.389	1	81	n/a	n/a	1	0	0
1516.589	1	81	n/a	n/a	1	0	0
1516.789	1	81	n/a	n/a	1	0	0
1516.989	1	81	n/a	n/a	1	0	0
1517.189	1	81	n/a	n/a	1	0	0
1517.389	1	81	n/a	n/a	1	0	0
1517.589	1	81	n/a	n/a	1	0	0
1518.7986	1	10	254.4	254.4	1	51	1
1519.9152	1	21	241.8	241.8	1	51	0
1521.1152	1	10	225.9	225.9	1	51	1
1522.2484	1	10	212.6	212.6	1	51	2
1523.5484	1	10	224.6	224.6	1	51	3
1524.6982	1	10	274.6	274.6	1	51	4
1525.8982	1	10	242.7	242.7	1	51	5
1527.0148	1	10	246.1	246.1	1	51	6
1528.1148	1	10	218.2	218.2	1	51	7
1529.2146	1	21	1246.1	1246.1	1	51	0
1530.4812	1	10	1195.5	1195.5	1	51	1
1531.7812	1	10	-99	-99	1	51	2
1532.9644	1	10	88.3	88.3	1	51	3
1534.1476	1	21	233	233	1	51	0
1535.1976	1	10	143.1	143.1	1	51	1
1536.2476	1	21	149.1	149.1	1	51	0
1537.3642	1	10	104.4	104.4	1	51	1
1538.4474	1	10	109.2	109.2	1	51	2
1539.7474	1	10	201.2	201.2	1	51	3
1540.7806	1	10	223.9	223.9	1	51	4
1541.818	1	81	n/a	n/a	1	0	0
1542.018	1	81	n/a	n/a	1	0	0
1542.218	1	81	n/a	n/a	1	0	0
1542.418	1	81	n/a	n/a	1	0	0
1542.618	1	81	n/a	n/a	1	0	0
1542.8188	1	81	n/a	n/a	1	0	0
1543.0188	1	81	n/a	n/a	1	0	0
1543.2188	1	81	n/a	n/a	1	0	0
1543.4188	1	81	n/a	n/a	1	0	0
1543.6188	1	81	n/a	n/a	1	0	0
1544.797	1	10	271.4	271.4	1	51	1
1545.9636	1	10	224.8	224.8	1	51	2
1547.097	1	10	179.5	179.5	1	51	3
1548.2302	1	21	214.2	214.2	1	51	0
1549.3468	1	10	217.5	217.5	1	51	1
1550.5468	1	10	-99	-99	1	51	2
1551.7134	1	10	-99	-99	1	51	3
1552.8466	1	10	109.7	109.7	1	51	4
1554.0132	1	10	79.1	79.1	1	51	5
1555.1798	1	21	-99	-99	1	51	0
1556.313	1	10	243.1	243.1	1	51	1
1557.4464	1	21	229.8	229.8	1	51	0
1558.5796	1	10	200.6	200.6	1	51	1
1559.7128	1	21	235.3	235.3	1	51	0
1560.7628	1	10	241.4	241.4	1	51	1
1562.0794	1	10	204.6	204.6	1	51	2
1563.146	1	10	210	210	1	51	3
1564.2126	1	21	1143.4	1143.4	1	51	0
1565.3792	1	10	-99	-99	1	51	1
1566.5458	1	21	106.2	106.2	1	51	0
1567.2832	1	81	n/a	n/a	1	0	0
1567.4832	1	81	n/a	n/a	1	0	0
1567.6832	1	81	n/a	n/a	1	0	0
1567.8832	1	81	n/a	n/a	1	0	0
1568.0832	1	81	n/a	n/a	1	0	0
1568.2832	1	81	n/a	n/a	1	0	0
1568.4832	1	81	n/a	n/a	1	0	0
1568.6832	1	81	n/a	n/a	1	0	0
1568.8832	1	81	n/a	n/a	1	0	0
1569.0832	1	81	n/a	n/a	1	0	0
1570.2622	1	10	309.6	309.6	1	51	1
1571.4956	1	10	244.4	244.4	1	51	2
1572.5622	1	10	281.8	281.8	1	51	3
1573.8454	1	10	310.4	310.4	1	51	4
1574.912	1	10	315.8	315.8	1	51	5
1576.0952	1	10	300.5	300.5	1	51	6
1577.1952	1	10	224.6	224.6	1	51	7
1578.2952	1	21	244.6	244.6	1	51	0
1579.5784	1	10	243.1	243.1	1	51	1
1580.745	1	10	242.6	242.6	1	51	2
1581.9116	1	10	228	228	1	51	3
1583.0782	1	21	277.4	277.4	1	51	0
1584.128	1	10	219.5	219.5	1	51	1
1585.228	1	10	191.6	191.6	1	51	2
1586.5446	1	10	282.9	282.9	1	51	3
1587.7278	1	10	235.6	235.6	1	51	4
1588.7778	1	10	257.6	257.6	1	51	5
1590.0944	1	10	221	221	1	51	6
1591.2276	1	10	111.8	111.8	1	51	7
1592.361	1	21	-99	-99	1	51	0
1593.3776	1	81	n/a	n/a	1	0	0
1593.5776	1	81	n/a	n/a	1	0	0
1593.7776	1	81	n/a	n/a	1	0	0
1593.9776	1	81	n/a	n/a	1	0	0
1594.1776	1	81	n/a	n/a	1	0	0
1594.3784	1	81	n/a	n/a	1	0	0
1594.5784	1	81	n/a	n/a	1	0	0
1594.7784	1	81	n/a	n/a	1	0	0
1594.9784	1	81	n/a	n/a	1	0	0
1595.1784	1	81	n/a	n/a	1	0	0
1596.4274	1	10	321.1	321.1	1	51	1
1597.4774	1	10	214	214	1	51	2
1598.5272	1	10	44	44	1	51	3
1599.7272	1	10	236	236	1	51	4
1600.9772	1	10	234.1	234.1	1	51	5
1602.227	1	21	248.1	248.1	1	51	0
1603.4436	1	10	215.5	215.5	1	51	1
1604.7436	1	10	243.6	243.6	1	51	2
1605.8102	1	10	264.9	264.9	1	51	3
1606.8768	1	21	238.3	238.3	1	51	0
1608.0434	1	10	223.7	223.7	1	51	1
1609.21	1	21	161.1	161.1	1	51	0
1610.3932	1	10	129.8	129.8	1	51	1
1611.5764	1	10	194.4	194.4	1	51	2
1612.8098	1	10	81.1	81.1	1	51	3
1614.043	1	21	-99	-99	1	51	0
1615.2262	1	10	224.6	224.6	1	51	1
1616.3428	1	10	228	228	1	51	2
1617.6594	1	10	-99	-99	1	51	3
1618.826	1	10	224.7	224.7	1	51	4
1682.747	1	81	n/a	n/a	1	0	0
1682.947	1	81	n/a	n/a	1	0	0
1683.147	1	81	n/a	n/a	1	0	0
1683.347	1	81	n/a	n/a	1	0	0
1683.547	1	81	n/a	n/a	1	0	0
1683.747	1	81	n/a	n/a	1	0	0
1683.947	1	81	n/a	n/a	1	0	0
1684.147	1	81	n/a	n/a	1	0	0
1684.347	1	81	n/a	n/a	1	0	0
1684.547	1	81	n/a	n/a	1	0	0
1685.8722	1	10	313.2	313.2	1	51	1
1687.1054	1	21	231.9	231.9	1	51	0
1688.2554	1	10	217.9	217.9	1	51	1
1689.372	1	10	269.3	269.3	1	51	2
1690.6552	1	10	282	282	1	51	3
1691.9718	1	10	229.4	229.4	1	51	4
1693.1884	1	10	292.8	292.8	1	51	5
1694.505	1	10	272.1	272.1	1	51	6
1695.7716	1	10	253.5	253.5	1	51	7
1697.0382	1	21	234.9	234.9	1	51	0
1698.2214	1	10	203.6	203.6	1	51	1
1699.4046	1	21	236.3	236.3	1	51	0
1700.5046	1	10	272.3	272.3	1	51	1
1701.6212	1	10	243.7	243.7	1	51	2
1702.6878	1	10	249.1	249.1	1	51	3
1703.8544	1	10	218.5	218.5	1	51	4
1705.0876	1	10	233.2	233.2	1	51	5
1706.321	1	21	231.8	231.8	1	51	0
1707.621	1	10	227.9	227.9	1	51	1
1708.9208	1	21	256	256	1	51	0
1709.7962	1	81	n/a	n/a	1	0	0
1709.9962	1	81	n/a	n/a	1	0	0
1710.1962	1	81	n/a	n/a	1	0	0
1710.3962	1	81	n/a	n/a	1	0	0
1710.5962	1	81	n/a	n/a	1	0	0
1710.7962	1	81	n/a	n/a	1	0	0
1710.9962	1	81	n/a	n/a	1	0	0
1711.1962	1	81	n/a	n/a	1	0	0
1711.3962	1	81	n/a	n/a	1	0	0
1711.5962	1	81	n/a	n/a	1	0	0
1713.0038	1	10	236.7	236.7	1	51	1
1714.1372	1	10	271.5	271.5	1	51	2
1715.437	1	10	219.5	219.5	1	51	3
1716.737	1	21	-99	-99	1	51	0
1717.787	1	10	269.7	269.7	1	51	1
1718.9868	1	10	237.6	237.6	1	51	2
1720.1702	1	10	222.4	222.4	1	51	3
1721.2034	1	10	-99	-99	1	51	4
1722.3534	1	10	231.1	231.1	1	51	5
1723.6532	1	10	307.2	307.2	1	51	6
1724.9698	1	10	206.6	206.6	1	51	7
1726.2864	1	21	-99	-99	1	51	0
1727.5864	1	10	214	214	1	51	1
1728.6696	1	10	250.7	250.7	1	51	2
1729.9528	1	10	231.4	231.4	1	51	3
1731.0028	1	10	221.4	221.4	1	51	4
1732.3028	1	10	169.4	169.4	1	51	5
1733.6194	1	10	244.8	244.8	1	51	6
1734.7026	1	10	249.6	249.6	1	51	7
1735.7858	1	21	-99	-99	1	51	0
1736.6446	1	81	n/a	n/a	1	0	0
1736.8446	1	81	n/a	n/a	1	0	0
1737.0446	1	81	n/a	n/a	1	0	0
1737.2446	1	81	n/a	n/a	1	0	0
1737.4446	1	81	n/a	n/a	1	0	0
1737.6446	1	81	n/a	n/a	1	0	0
1737.8446	1	81	n/a	n/a	1	0	0
1738.0446	1	81	n/a	n/a	1	0	0
1738.2446	1	81	n/a	n/a	1	0	0
1738.4446	1	81	n/a	n/a	1	0	0
1739.8022	1	10	221.7	221.7	1	51	1
1741.0688	1	10	203.1	203.1	1	51	2
1742.2688	1	10	235.2	235.2	1	51	3
1743.3854	1	10	238.6	238.6	1	51	4
1744.4354	1	10	212.5	212.5	1	51	5
1745.4686	1	10	219.3	219.3	1	51	6
1746.7018	1	10	330	330	1	51	7
1747.9352	1	21	232.7	232.7	1	51	0
1749.2184	1	10	37.5	37.5	1	51	1
1750.4516	1	10	116.1	116.1	1	51	2
1751.6016	1	10	246.1	246.1	1	51	3
1752.8016	1	10	134.2	134.2	1	51	4
1753.9182	1	10	265.6	265.6	1	51	5
1755.168	1	10	327.7	327.7	1	51	6
1756.3346	1	10	217.1	217.1	1	51	7
1757.5012	1	21	90.4	90.4	1	51	0
1758.7012	1	10	250.4	250.4	1	51	1
1759.8178	1	10	221.8	221.8	1	51	2
1761.0178	1	10	237.9	237.9	1	51	3
1762.301	1	10	234.6	234.6	1	51	4
1763.1404	1	81	n/a	n/a	1	0	0
1763.3404	1	81	n/a	n/a	1	0	0
1763.5404	1	81	n/a	n/a	1	0	0
1763.7404	1	81	n/a	n/a	1	0	0
1763.9404	1	81	n/a	n/a	1	0	0
1764.1404	1	81	n/a	n/a	1	0	0
1764.3404	1	81	n/a	n/a	1	0	0
1764.5404	1	81	n/a	n/a	1	0	0
1764.7404	1	81	n/a	n/a	1	0	0
1764.9404	1	81	n/a	n/a	1	0	0
1766.3008	1	10	266.7	266.7	1	51	1
1767.5674	1	21	248.1	248.1	1	51	0
1768.7172	1	10	234.2	234.2	1	51	1
1769.7506	1	10	240.8	240.8	1	51	2
1770.9004	1	10	242.8	242.8	1	51	3
1772.0504	1	21	1172.9	1172.9	1	51	0
1773.2504	1	10	1221	1221	1	51	1
1774.4836	1	10	-99	-99	1	51	2
1775.5336	1	10	281.8	281.8	1	51	3
1776.8168	1	10	182.4	182.4	1	51	4
1777.9834	1	10	247.8	247.8	1	51	5
1779.15	1	21	121.2	121.2	1	51	0
1780.4332	1	10	53.9	53.9	1	51	1
1781.7166	1	21	98.6	98.6	1	51	0
1782.7498	1	10	249.3	249.3	1	51	1
1783.8498	1	10	237.3	237.3	1	51	2
1784.9164	1	10	226.7	226.7	1	51	3
1785.9996	1	10	279.4	279.4	1	51	4
1787.1996	1	10	39.5	39.5	1	51	5
1788.4494	1	10	229.5	229.5	1	51	6
1789.4208	1	81	n/a	n/a	1	0	0
1789.6208	1	81	n/a	n/a	1	0	0
1789.8208	1	81	n/a	n/a	1	0	0
1790.0208	1	81	n/a	n/a	1	0	0
1790.2208	1	81	n/a	n/a	1	0	0
1790.421	1	81	n/a	n/a	1	0	0
1790.621	1	81	n/a	n/a	1	0	0
1790.821	1	81	n/a	n/a	1	0	0
1791.021	1	81	n/a	n/a	1	0	0
1791.221	1	81	n/a	n/a	1	0	0
1792.4826	1	10	260.3	260.3	1	51	1
1793.5992	1	10	231.7	231.7	1	51	2
1794.7658	1	10	169.1	169.1	1	51	3
1796.0156	1	10	39.1	39.1	1	51	4
1797.149	1	10	217.8	217.8	1	51	5
1798.2156	1	10	271.2	271.2	1	51	6
1799.5154	1	10	251.3	251.3	1	51	7
1800.8154	1	21	215.3	215.3	1	51	0
1801.9486	1	10	202	202	1	51	1
1803.1652	1	10	121.4	121.4	1	51	2
1804.4818	1	10	180.8	180.8	1	51	3
1805.7818	1	10	0.8	0.8	1	51	4
1807.065	1	10	253.6	253.6	1	51	5
1808.3482	1	21	266.3	266.3	1	51	0
1809.4982	1	10	220.2	220.2	1	51	1
1810.5482	1	10	210.3	210.3	1	51	2
1811.698	1	10	276.4	276.4	1	51	3
1812.848	1	21	246.4	246.4	1	51	0
1813.9812	1	10	201	201	1	51	1
1815.1312	1	10	251.1	251.1	1	51	2
1823.9478	1	82	n/a	n/a	1	0	0
1823.9738	1	82	n/a	n/a	1	0	0
1824.1128	1	82	n/a	n/a	1	0	0
1824.4168	1	82	n/a	n/a	1	0	0
1824.5918	1	82	n/a	n/a	1	0	0
1824.9478	1	82	n/a	n/a	1	0	0
1825.0168	1	82	n/a	n/a	1	0	0
1825.3278	1	82	n/a	n/a	1	0	0
1825.7318	1	82	n/a	n/a	1	0	0
1825.8938	1	82	n/a	n/a	1	0	0
1827.0306	1	10	255.5	255.5	1	50	1
1828.3138	1	10	220.3	220.3	1	50	2
1829.3804	1	10	305.6	305.6	1	50	3
1830.447	1	21	263	263	1	50	0
1831.597	1	10	233.1	233.1	1	50	1
1832.7468	1	10	219.1	219.1	1	50	2
1833.9634	1	10	218.5	218.5	1	50	3
1835.18	1	10	57.8	57.8	1	50	4
1836.3966	1	10	265.2	265.2	1	50	5
1837.4632	1	10	222.6	222.6	1	50	6
1838.7298	1	10	236	236	1	50	7
1839.9964	1	21	57.3	57.3	1	50	0
1841.263	1	10	-99	-99	1	50	1
1842.5796	1	10	210.1	210.1	1	50	2
1843.7296	1	10	244.2	244.2	1	50	3
1844.9294	1	10	228.2	228.2	1	50	4
1845.9628	1	10	314.9	314.9	1	50	5
1847.146	1	10	203.6	203.6	1	50	6
1848.3792	1	10	218.3	218.3	1	50	7
1849.6126	1	21	-99	-99	1	50	0
1850.5332	1	82	n/a	n/a	1	0	0
1850.8412	1	82	n/a	n/a	1	0	0
1850.9012	1	82	n/a	n/a	1	0	0
1851.1542	1	82	n/a	n/a	1	0	0
1851.4942	1	82	n/a	n/a	1	0	0
1851.5332	1	82	n/a	n/a	1	0	0
1851.9262	1	82	n/a	n/a	1	0	0
1851.9762	1	82	n/a	n/a	1	0	0
1852.2532	1	82	n/a	n/a	1	0	0
1852.4322	1	82	n/a	n/a	1	0	0
1853.5956	1	10	265.8	265.8	1	50	1
1854.7622	1	21	203.2	203.2	1	50	0
1855.9954	1	10	234	234	1	50	1
1857.2288	1	21	232.7	232.7	1	50	0
1858.4286	1	10	232.7	232.7	1	50	1
1859.4786	1	10	286.7	286.7	1	50	2
1860.5452	1	10	292.1	292.1	1	50	3
1861.8452	1	10	240.2	240.2	1	50	4
1863.145	1	10	236.1	236.1	1	50	5
1864.2284	1	10	256.9	256.9	1	50	6
1865.5282	1	10	188.9	188.9	1	50	7
1866.8282	1	21	-99	-99	1	50	0
1868.1282	1	10	197.1	197.1	1	50	1
1869.3614	1	10	195.8	195.8	1	50	2
1870.4946	1	10	246.4	246.4	1	50	3
1871.6446	1	10	296.5	296.5	1	50	4
1872.9112	1	10	261.9	261.9	1	50	5
1874.1278	1	10	293.3	293.3	1	50	6
1875.3776	1	10	339.3	339.3	1	50	7
1876.6276	1	21	257.4	257.4	1	50	0
1877.59	1	82	n/a	n/a	1	0	0
1878.018	1	82	n/a	n/a	1	0	0
1878.145	1	82	n/a	n/a	1	0	0
1878.364	1	82	n/a	n/a	1	0	0
1878.427	1	82	n/a	n/a	1	0	0
1878.5902	1	82	n/a	n/a	1	0	0
1878.622	1	82	n/a	n/a	1	0	0
1878.946	1	82	n/a	n/a	1	0	0
1879.322	1	82	n/a	n/a	1	0	0
1879.552	1	82	n/a	n/a	1	0	0
1880.6608	1	10	304.2	304.2	1	50	1
1881.794	1	10	242.9	242.9	1	50	2
1882.844	1	10	281	281	1	50	3
1883.8938	1	21	-99	-99	1	50	0
1885.0772	1	10	79.7	79.7	1	50	1
1886.1938	1	10	243	243	1	50	2
1887.2604	1	10	232.4	232.4	1	50	3
1888.327	1	21	-99	-99	1	50	0
1889.3768	1	10	211.9	211.9	1	50	1
1890.4268	1	10	217.9	217.9	1	50	2
1891.46	1	10	224.5	224.5	1	50	3
1892.5266	1	10	261.9	261.9	1	50	4
1893.5932	1	10	267.3	267.3	1	50	5
1894.6598	1	21	272.7	272.7	1	50	0
1895.8764	1	10	16.1	16.1	1	50	1
1897.093	1	21	239.4	239.4	1	50	0
1898.1596	1	10	180.8	180.8	1	50	1
1899.343	1	10	245.5	245.5	1	50	2
1900.4928	1	10	215.6	215.6	1	50	3
1901.6428	1	21	249.6	249.6	1	50	0
1902.6742	1	82	n/a	n/a	1	0	0
1902.9332	1	82	n/a	n/a	1	0	0
1903.2882	1	82	n/a	n/a	1	0	0
1903.4282	1	82	n/a	n/a	1	0	0
1903.5202	1	82	n/a	n/a	1	0	0
1903.675	1	82	n/a	n/a	1	0	0
1903.704	1	82	n/a	n/a	1	0	0
1903.966	1	82	n/a	n/a	1	0	0
1904.026	1	82	n/a	n/a	1	0	0
1904.409	1	82	n/a	n/a	1	0	0
1905.7926	1	10	275.7	275.7	1	50	1
1906.9926	1	10	275.8	275.8	1	50	2
1908.0592	1	10	249.2	249.2	1	50	3
1909.1258	1	21	-99	-99	1	50	0
1910.2756	1	10	240.5	240.5	1	50	1
1911.4256	1	21	306.6	306.6	1	50	0
1912.4922	1	10	232	232	1	50	1
1913.8088	1	10	227.4	227.4	1	50	2
1914.892	1	10	232	232	1	50	3
1916.092	1	10	216.1	216.1	1	50	4
1917.242	1	10	266.1	266.1	1	50	5
1918.4752	1	10	40.9	40.9	1	50	6
1919.6084	1	10	251.6	251.6	1	50	7
1920.7416	1	21	-99	-99	1	50	0
1921.9082	1	10	223.6	223.6	1	50	1
1923.2082	1	10	235.7	235.7	1	50	2
1924.2748	1	10	225.1	225.1	1	50	3
1925.3414	1	21	198.5	198.5	1	50	0
1926.458	1	10	233.8	233.8	1	50	1
1927.6746	1	10	217.1	217.1	1	50	2
1928.433	1	82	n/a	n/a	1	0	0
1928.688	1	82	n/a	n/a	1	0	0
1928.812	1	82	n/a	n/a	1	0	0
1928.98	1	82	n/a	n/a	1	0	0
1929.283	1	82	n/a	n/a	1	0	0
1929.433	1	82	n/a	n/a	1	0	0
1929.458	1	82	n/a	n/a	1	0	0
1929.794	1	82	n/a	n/a	1	0	0
1930.084	1	82	n/a	n/a	1	0	0
1930.326	1	82	n/a	n/a	1	0	0
1931.3578	1	10	246	246	1	50	1
1932.4076	1	10	268.1	268.1	1	50	2
1933.4742	1	10	241.3	241.3	1	50	3
1934.5242	1	10	375.4	375.4	1	50	4
1935.7408	1	10	-99	-99	1	50	5
1936.9574	1	21	182.2	182.2	1	50	0
1938.2074	1	10	36.3	36.3	1	50	1
1939.2406	1	10	235	235	1	50	2
1940.3738	1	10	239.4	239.4	1	50	3
1941.5738	1	10	253.7	253.7	1	50	4
1942.607	1	10	276.4	276.4	1	50	5
1943.6404	1	21	251.1	251.1	1	50	0
1944.857	1	10	266.5	266.5	1	50	1
1945.9736	1	10	253.9	253.9	1	50	2
1947.2402	1	10	363.2	363.2	1	50	3
1948.3568	1	10	222.6	222.6	1	50	4
1949.44	1	10	227.3	227.3	1	50	5
1950.6732	1	10	338	338	1	50	6
1951.7566	1	10	246.8	246.8	1	50	7
1952.8398	1	21	-99	-99	1	50	0
1977.7408	1	82	n/a	n/a	1	0	0
1978.0848	1	82	n/a	n/a	1	0	0
1978.3378	1	82	n/a	n/a	1	0	0
1978.5248	1	82	n/a	n/a	1	0	0
1978.5918	1	82	n/a	n/a	1	0	0
1978.7408	1	82	n/a	n/a	1	0	0
1978.8738	1	82	n/a	n/a	1	0	0
1979.2388	1	82	n/a	n/a	1	0	0
1979.3348	1	82	n/a	n/a	1	0	0
1979.6188	1	82	n/a	n/a	1	0	0
1980.7716	1	10	415.1	415.1	1	52	1
1982.0382	1	10	236.5	236.5	1	52	2
1983.3546	1	10	183.9	183.9	1	52	3
1984.4212	1	10	237.2	237.2	1	52	4
1985.6212	1	10	141.2	141.2	1	52	5
1986.8044	1	10	238	238	1	52	6
1987.9878	1	10	288.5	288.5	1	52	7
1989.121	1	21	289.4	289.4	1	52	0
1990.2376	1	10	276.8	276.8	1	52	1
1991.3042	1	10	202.1	202.1	1	52	2
1992.3708	1	10	239.5	239.5	1	52	3
1993.5874	1	10	238.9	238.9	1	52	4
1994.754	1	10	256.3	256.3	1	52	5
1995.9872	1	10	223	223	1	52	6
1997.1538	1	10	224.3	224.3	1	52	7
1998.3204	1	21	193.7	193.7	1	52	0
1999.5038	1	10	194.4	194.4	1	52	1
2000.6036	1	10	230.5	230.5	1	52	2
2001.8702	1	10	227.9	227.9	1	52	3
2003.1036	1	10	258.6	258.6	1	52	4
2003.83	1	82	n/a	n/a	1	0	0
2004.074	1	82	n/a	n/a	1	0	0
2004.43	1	82	n/a	n/a	1	0	0
2004.486	1	82	n/a	n/a	1	0	0
2004.79	1	82	n/a	n/a	1	0	0
2004.83	1	82	n/a	n/a	1	0	0
2005.246	1	82	n/a	n/a	1	0	0
2005.345	1	82	n/a	n/a	1	0	0
2005.702	1	82	n/a	n/a	1	0	0
2005.78	1	82	n/a	n/a	1	0	0
2006.9866	1	10	295.4	295.4	1	52	1
2008.0532	1	10	236.8	236.8	1	52	2
2009.2032	1	10	126.8	126.8	1	52	3
2010.2364	1	10	229.5	229.5	1	52	4
2011.4364	1	10	181.5	181.5	1	52	5
2012.4864	1	10	219.6	219.6	1	52	6
2013.753	1	10	57	57	1	52	7
2015.0196	1	21	246.3	246.3	1	52	0
2016.2528	1	10	101	101	1	52	1
2017.536	1	10	257.7	257.7	1	52	2
2018.8526	1	10	285.1	285.1	1	52	3
2020.0192	1	10	286.5	286.5	1	52	4
2021.2024	1	10	303.3	303.3	1	52	5
2022.3858	1	21	239.9	239.9	1	52	0
2023.5524	1	10	225.3	225.3	1	52	1
2024.6522	1	10	197.3	197.3	1	52	2
2025.8356	1	10	214.1	214.1	1	52	3
2027.0854	1	10	20.1	20.1	1	52	4
2028.2188	1	10	246.9	246.9	1	52	5
2029.352	1	21	-99	-99	1	52	0
2030.2638	1	82	n/a	n/a	1	0	0
2030.3758	1	82	n/a	n/a	1	0	0
2030.6108	1	82	n/a	n/a	1	0	0
2030.7768	1	82	n/a	n/a	1	0	0
2030.8498	1	82	n/a	n/a	1	0	0
2031.2638	1	82	n/a	n/a	1	0	0
2031.3148	1	82	n/a	n/a	1	0	0
2031.6078	1	82	n/a	n/a	1	0	0
2031.7008	1	82	n/a	n/a	1	0	0
2031.8348	1	82	n/a	n/a	1	0	0
2033.3518	1	10	217.7	217.7	1	52	1
2034.5516	1	21	249.8	249.8	1	52	0
2035.7516	1	10	105.7	105.7	1	52	1
2036.9182	1	10	379.1	379.1	1	52	2
2038.0516	1	10	253.8	253.8	1	52	3
2039.368	1	10	266.4	266.4	1	52	4
2040.5514	1	10	282	282	1	52	5
2041.5846	1	10	304.6	304.6	1	52	6
2042.8678	1	10	237.3	237.3	1	52	7
2044.1512	1	21	-99	-99	1	52	0
2045.3844	1	10	232.8	232.8	1	52	1
2046.4844	1	10	220.8	220.8	1	52	2
2047.7342	1	10	202.8	202.8	1	52	3
2048.8008	1	10	240.2	240.2	1	52	4
2050.0842	1	10	284.9	284.9	1	52	5
2051.134	1	10	227	227	1	52	6
2052.4006	1	10	176.4	176.4	1	52	7
2053.6672	1	21	-99	-99	1	52	0
2054.7338	1	10	179.1	179.1	1	52	1
2055.8004	1	21	216.5	216.5	1	52	0
2056.8748	1	82	n/a	n/a	1	0	0
2056.9628	1	82	n/a	n/a	1	0	0
2057.3198	1	82	n/a	n/a	1	0	0
2057.6148	1	82	n/a	n/a	1	0	0
2057.6478	1	82	n/a	n/a	1	0	0
2057.8756	1	82	n/a	n/a	1	0	0
2058.2946	1	82	n/a	n/a	1	0	0
2058.5556	1	82	n/a	n/a	1	0	0
2058.6756	1	82	n/a	n/a	1	0	0
2058.8246	1	82	n/a	n/a	1	0	0
2059.8168	1	10	344	344	1	52	1
2061.0002	1	10	232.6	232.6	1	52	2
2062.1334	1	10	251.4	251.4	1	52	3
2063.2666	1	21	206.1	206.1	1	52	0
2064.35	1	10	162.8	162.8	1	52	1
2065.5498	1	10	194.9	194.9	1	52	2
2066.8164	1	10	224.2	224.2	1	52	3
2068.083	1	21	221.6	221.6	1	52	0
2069.3496	1	10	251	251	1	52	1
2070.5496	1	10	219	219	1	52	2
2071.8162	1	10	24.4	24.4	1	52	3
2073.0828	1	10	245.7	245.7	1	52	4
2074.116	1	10	268.4	268.4	1	52	5
2075.1494	1	10	323.2	323.2	1	52	6
2076.3492	1	10	275.2	275.2	1	52	7
2077.5492	1	21	211.3	211.3	1	52	0
2078.7992	1	10	17.3	17.3	1	52	1
2080.049	1	21	111.3	111.3	1	52	0
2081.149	1	10	99.4	99.4	1	52	1
2082.4488	1	10	-99	-99	1	52	2
2083.1916	1	82	n/a	n/a	1	0	0
2083.5806	1	82	n/a	n/a	1	0	0
2083.6396	1	82	n/a	n/a	1	0	0
2083.8286	1	82	n/a	n/a	1	0	0
2084.1536	1	82	n/a	n/a	1	0	0
2084.1916	1	82	n/a	n/a	1	0	0
2084.2276	1	82	n/a	n/a	1	0	0
2084.6036	1	82	n/a	n/a	1	0	0
2084.7366	1	82	n/a	n/a	1	0	0
2084.9756	1	82	n/a	n/a	1	0	0
2086.1986	1	10	249.5	249.5	1	52	1
2087.432	1	10	296.3	296.3	1	52	2
2088.5986	1	10	281.7	281.7	1	52	3
2089.7652	1	21	251	251	1	52	0
2091.0318	1	10	8.4	8.4	1	52	1
2092.165	1	10	267.1	267.1	1	52	2
2093.3316	1	10	268.5	268.5	1	52	3
2094.4982	1	21	-99	-99	1	52	0
2095.7648	1	10	219.3	219.3	1	52	1
2097.0314	1	21	216.7	216.7	1	52	0
2098.2312	1	10	248.6	248.6	1	52	1
2099.4312	1	21	248.7	248.7	1	52	0
2100.6312	1	10	248.7	248.7	1	52	1
2101.831	1	21	-99	-99	1	52	0
2103.1144	1	10	229.5	229.5	1	52	1
2104.3976	1	21	-99	-99	1	52	0
2105.6976	1	10	222.2	222.2	1	52	1
2106.8808	1	10	335	335	1	52	2
2108.0474	1	10	240.4	240.4	1	52	3
2109.214	1	10	241.8	241.8	1	52	4
