onset	duration	value	response	rt	good	TMS	seq
157.0826	1	82	n/a	n/a	1	0	0
157.3036	1	82	n/a	n/a	1	0	0
157.5606	1	82	n/a	n/a	1	0	0
157.6946	1	82	n/a	n/a	1	0	0
157.7286	1	82	n/a	n/a	1	0	0
158.0826	1	82	n/a	n/a	1	0	0
158.3806	1	82	n/a	n/a	1	0	0
158.7416	1	82	n/a	n/a	1	0	0
158.8826	1	82	n/a	n/a	1	0	0
158.9416	1	82	n/a	n/a	1	0	0
160.1896	1	10	n/a	n/a	1	52	1
161.3728	1	10	n/a	n/a	1	52	2
162.5228	1	10	n/a	n/a	1	52	3
163.6726	1	21	n/a	n/a	1	52	0
164.9392	1	10	n/a	n/a	1	52	1
166.0392	1	10	n/a	n/a	1	52	2
167.1892	1	10	n/a	n/a	1	52	3
168.339	1	21	n/a	n/a	1	52	0
169.6056	1	10	n/a	n/a	1	52	1
170.7556	1	10	n/a	n/a	1	52	2
172.0556	1	10	n/a	n/a	1	52	3
173.3554	1	21	n/a	n/a	1	52	0
174.3888	1	10	n/a	n/a	1	52	1
175.6386	1	10	n/a	n/a	1	52	2
176.7386	1	10	n/a	n/a	1	52	3
177.8886	1	10	n/a	n/a	1	52	4
179.1552	1	10	n/a	n/a	1	52	5
180.4216	1	21	n/a	n/a	1	52	0
181.5216	1	10	n/a	n/a	1	52	1
182.7716	1	10	n/a	n/a	1	52	2
183.694	1	82	n/a	n/a	1	0	0
183.866	1	82	n/a	n/a	1	0	0
184.279	1	82	n/a	n/a	1	0	0
184.592	1	82	n/a	n/a	1	0	0
184.625	1	82	n/a	n/a	1	0	0
184.694	1	82	n/a	n/a	1	0	0
184.972	1	82	n/a	n/a	1	0	0
185.015	1	82	n/a	n/a	1	0	0
185.374	1	82	n/a	n/a	1	0	0
185.394	1	82	n/a	n/a	1	0	0
186.688	1	10	n/a	n/a	1	52	1
187.9546	1	10	n/a	n/a	1	52	2
189.0046	1	10	n/a	n/a	1	52	3
190.2878	1	10	n/a	n/a	1	52	4
191.5876	1	10	n/a	n/a	1	52	5
192.7376	1	10	n/a	n/a	1	52	6
194.0542	1	10	n/a	n/a	1	52	7
195.3708	1	21	n/a	n/a	1	52	0
196.604	1	10	n/a	n/a	1	52	1
197.854	1	10	n/a	n/a	1	52	2
198.904	1	10	n/a	n/a	1	52	3
200.1706	1	10	n/a	n/a	1	52	4
201.2038	1	10	n/a	n/a	1	52	5
202.287	1	10	n/a	n/a	1	52	6
203.387	1	10	n/a	n/a	1	52	7
204.487	1	21	n/a	n/a	1	52	0
205.5536	1	10	n/a	n/a	1	52	1
206.5868	1	10	n/a	n/a	1	52	2
207.8368	1	10	n/a	n/a	1	52	3
209.1534	1	10	n/a	n/a	1	52	4
210.2448	1	82	n/a	n/a	1	0	0
210.2948	1	82	n/a	n/a	1	0	0
210.6038	1	82	n/a	n/a	1	0	0
210.8348	1	82	n/a	n/a	1	0	0
210.9878	1	82	n/a	n/a	1	0	0
211.2448	1	82	n/a	n/a	1	0	0
211.3758	1	82	n/a	n/a	1	0	0
211.6518	1	82	n/a	n/a	1	0	0
211.7518	1	82	n/a	n/a	1	0	0
211.9058	1	82	n/a	n/a	1	0	0
213.2698	1	10	n/a	n/a	1	52	1
214.3364	1	10	n/a	n/a	1	52	2
215.6362	1	10	n/a	n/a	1	52	3
216.9696	1	10	n/a	n/a	1	52	4
218.1694	1	10	n/a	n/a	1	52	5
219.3694	1	21	n/a	n/a	1	52	0
220.586	1	10	n/a	n/a	1	52	1
221.7692	1	10	n/a	n/a	1	52	2
222.8192	1	10	n/a	n/a	1	52	3
224.0358	1	10	n/a	n/a	1	52	4
225.069	1	10	n/a	n/a	1	52	5
226.2024	1	10	n/a	n/a	1	52	6
227.3856	1	10	n/a	n/a	1	52	7
228.5688	1	21	n/a	n/a	1	52	0
229.6522	1	10	n/a	n/a	1	52	1
230.7854	1	10	n/a	n/a	1	52	2
232.052	1	10	n/a	n/a	1	52	3
233.1686	1	10	n/a	n/a	1	52	4
234.4184	1	10	n/a	n/a	1	52	5
235.6684	1	10	n/a	n/a	1	52	6
236.634	1	82	n/a	n/a	1	0	0
237.055	1	82	n/a	n/a	1	0	0
237.151	1	82	n/a	n/a	1	0	0
237.309	1	82	n/a	n/a	1	0	0
237.362	1	82	n/a	n/a	1	0	0
237.634	1	82	n/a	n/a	1	0	0
237.941	1	82	n/a	n/a	1	0	0
238.045	1	82	n/a	n/a	1	0	0
238.474	1	82	n/a	n/a	1	0	0
238.5	1	82	n/a	n/a	1	0	0
239.6516	1	10	n/a	n/a	1	52	1
240.9182	1	10	n/a	n/a	1	52	2
241.9848	1	10	n/a	n/a	1	52	3
243.0514	1	21	n/a	n/a	1	52	0
244.1012	1	10	n/a	n/a	1	52	1
245.1846	1	10	n/a	n/a	1	52	2
246.2344	1	10	n/a	n/a	1	52	3
247.2844	1	21	n/a	n/a	1	52	0
248.4676	1	10	n/a	n/a	1	52	1
249.651	1	21	n/a	n/a	1	52	0
250.8508	1	10	n/a	n/a	1	52	1
252.0008	1	10	n/a	n/a	1	52	2
253.1008	1	10	n/a	n/a	1	52	3
254.284	1	10	n/a	n/a	1	52	4
255.3672	1	10	n/a	n/a	1	52	5
256.5006	1	10	n/a	n/a	1	52	6
257.7838	1	10	n/a	n/a	1	52	7
259.067	1	21	n/a	n/a	1	52	0
260.217	1	10	n/a	n/a	1	52	1
261.3836	1	10	n/a	n/a	1	52	2
262.474	1	82	n/a	n/a	1	0	0
262.567	1	82	n/a	n/a	1	0	0
262.817	1	82	n/a	n/a	1	0	0
263.095	1	82	n/a	n/a	1	0	0
263.225	1	82	n/a	n/a	1	0	0
263.474	1	82	n/a	n/a	1	0	0
263.856	1	82	n/a	n/a	1	0	0
263.897	1	82	n/a	n/a	1	0	0
264.039	1	82	n/a	n/a	1	0	0
264.159	1	82	n/a	n/a	1	0	0
265.4	1	10	n/a	n/a	1	52	1
266.5832	1	10	n/a	n/a	1	52	2
267.6998	1	10	n/a	n/a	1	52	3
268.8164	1	21	n/a	n/a	1	52	0
269.983	1	10	n/a	n/a	1	52	1
271.1496	1	10	n/a	n/a	1	52	2
272.2662	1	10	n/a	n/a	1	52	3
273.3828	1	21	n/a	n/a	1	52	0
274.5994	1	10	n/a	n/a	1	52	1
275.8494	1	10	n/a	n/a	1	52	2
276.8826	1	10	n/a	n/a	1	52	3
278.0492	1	10	n/a	n/a	1	52	4
279.2992	1	10	n/a	n/a	1	52	5
280.3992	1	10	n/a	n/a	1	52	6
281.6658	1	10	n/a	n/a	1	52	7
282.9322	1	21	n/a	n/a	1	52	0
284.2488	1	10	n/a	n/a	1	52	1
285.5654	1	21	n/a	n/a	1	52	0
286.682	1	10	n/a	n/a	1	52	1
287.782	1	10	n/a	n/a	1	52	2
302.0898	1	81	n/a	n/a	1	0	0
302.2898	1	81	n/a	n/a	1	0	0
302.4898	1	81	n/a	n/a	1	0	0
302.6898	1	81	n/a	n/a	1	0	0
302.8898	1	81	n/a	n/a	1	0	0
303.09	1	81	n/a	n/a	1	0	0
303.29	1	81	n/a	n/a	1	0	0
303.49	1	81	n/a	n/a	1	0	0
303.69	1	81	n/a	n/a	1	0	0
303.8898	1	81	n/a	n/a	1	0	0
305.231	1	10	n/a	n/a	1	50	1
306.481	1	21	n/a	n/a	1	50	0
307.6308	1	10	n/a	n/a	1	50	1
308.7974	1	10	n/a	n/a	1	50	2
310.0308	1	10	n/a	n/a	1	50	3
311.264	1	21	n/a	n/a	1	50	0
312.4472	1	10	n/a	n/a	1	50	1
313.6304	1	21	n/a	n/a	1	50	0
314.947	1	10	n/a	n/a	1	50	1
315.9804	1	10	n/a	n/a	1	50	2
317.097	1	10	n/a	n/a	1	50	3
318.2136	1	10	n/a	n/a	1	50	4
319.4468	1	10	n/a	n/a	1	50	5
320.68	1	21	n/a	n/a	1	50	0
321.9134	1	10	n/a	n/a	1	50	1
322.9966	1	10	n/a	n/a	1	50	2
324.1966	1	10	n/a	n/a	1	50	3
325.3964	1	21	n/a	n/a	1	50	0
326.463	1	10	n/a	n/a	1	50	1
327.6464	1	10	n/a	n/a	1	50	2
328.7508	1	81	n/a	n/a	1	0	0
328.9508	1	81	n/a	n/a	1	0	0
329.1508	1	81	n/a	n/a	1	0	0
329.3508	1	81	n/a	n/a	1	0	0
329.5508	1	81	n/a	n/a	1	0	0
329.7508	1	81	n/a	n/a	1	0	0
329.9508	1	81	n/a	n/a	1	0	0
330.1508	1	81	n/a	n/a	1	0	0
330.3508	1	81	n/a	n/a	1	0	0
330.5508	1	81	n/a	n/a	1	0	0
331.896	1	10	n/a	n/a	1	50	1
333.146	1	21	n/a	n/a	1	50	0
334.4126	1	10	n/a	n/a	1	50	1
335.5626	1	10	n/a	n/a	1	50	2
336.7458	1	10	n/a	n/a	1	50	3
338.0624	1	10	n/a	n/a	1	50	4
339.1956	1	10	n/a	n/a	1	50	5
340.3622	1	10	n/a	n/a	1	50	6
341.6122	1	10	n/a	n/a	1	50	7
342.862	1	21	n/a	n/a	1	50	0
343.9286	1	10	n/a	n/a	1	50	1
344.9952	1	21	n/a	n/a	1	50	0
346.3118	1	10	n/a	n/a	1	50	1
347.3452	1	10	n/a	n/a	1	50	2
348.445	1	10	n/a	n/a	1	50	3
349.7616	1	10	n/a	n/a	1	50	4
350.795	1	10	n/a	n/a	1	50	5
351.8282	1	21	n/a	n/a	1	50	0
353.0782	1	10	n/a	n/a	1	50	1
354.2614	1	10	n/a	n/a	1	50	2
355.0328	1	81	n/a	n/a	1	0	0
355.2328	1	81	n/a	n/a	1	0	0
355.4328	1	81	n/a	n/a	1	0	0
355.6328	1	81	n/a	n/a	1	0	0
355.8328	1	81	n/a	n/a	1	0	0
356.0328	1	81	n/a	n/a	1	0	0
356.2328	1	81	n/a	n/a	1	0	0
356.4328	1	81	n/a	n/a	1	0	0
356.6328	1	81	n/a	n/a	1	0	0
356.8328	1	81	n/a	n/a	1	0	0
357.9946	1	10	n/a	n/a	1	50	1
359.1944	1	10	n/a	n/a	1	50	2
360.411	1	10	n/a	n/a	1	50	3
361.611	1	10	n/a	n/a	1	50	4
362.661	1	10	n/a	n/a	1	50	5
363.8276	1	10	n/a	n/a	1	50	6
364.9274	1	10	n/a	n/a	1	50	7
366.0274	1	21	n/a	n/a	1	50	0
367.2774	1	10	n/a	n/a	1	50	1
368.3272	1	10	n/a	n/a	1	50	2
369.5772	1	10	n/a	n/a	1	50	3
370.8772	1	10	n/a	n/a	1	50	4
372.027	1	10	n/a	n/a	1	50	5
373.177	1	21	n/a	n/a	1	50	0
374.227	1	10	n/a	n/a	1	50	1
375.3602	1	10	n/a	n/a	1	50	2
376.5768	1	10	n/a	n/a	1	50	3
377.6934	1	10	n/a	n/a	1	50	4
378.86	1	10	n/a	n/a	1	50	5
380.0266	1	21	n/a	n/a	1	50	0
380.765	1	81	n/a	n/a	1	0	0
380.965	1	81	n/a	n/a	1	0	0
381.165	1	81	n/a	n/a	1	0	0
381.365	1	81	n/a	n/a	1	0	0
381.565	1	81	n/a	n/a	1	0	0
381.765	1	81	n/a	n/a	1	0	0
381.965	1	81	n/a	n/a	1	0	0
382.165	1	81	n/a	n/a	1	0	0
382.365	1	81	n/a	n/a	1	0	0
382.565	1	81	n/a	n/a	1	0	0
383.8264	1	10	n/a	n/a	1	50	1
385.1096	1	10	n/a	n/a	1	50	2
386.2596	1	10	n/a	n/a	1	50	3
387.4094	1	21	n/a	n/a	1	50	0
388.7094	1	10	n/a	n/a	1	50	1
390.0094	1	21	n/a	n/a	1	50	0
391.2592	1	10	n/a	n/a	1	50	1
392.5092	1	21	n/a	n/a	1	50	0
393.6758	1	10	n/a	n/a	1	50	1
394.8424	1	21	n/a	n/a	1	50	0
395.959	1	10	n/a	n/a	1	50	1
397.0756	1	21	n/a	n/a	1	50	0
398.2254	1	10	n/a	n/a	1	50	1
399.3754	1	10	n/a	n/a	1	50	2
400.4754	1	10	n/a	n/a	1	50	3
401.542	1	10	n/a	n/a	1	50	4
402.7086	1	10	n/a	n/a	1	50	5
403.7584	1	10	n/a	n/a	1	50	6
404.8584	1	10	n/a	n/a	1	50	7
405.9584	1	21	n/a	n/a	1	50	0
406.945	1	81	n/a	n/a	1	0	0
407.145	1	81	n/a	n/a	1	0	0
407.345	1	81	n/a	n/a	1	0	0
407.545	1	81	n/a	n/a	1	0	0
407.745	1	81	n/a	n/a	1	0	0
407.945	1	81	n/a	n/a	1	0	0
408.145	1	81	n/a	n/a	1	0	0
408.345	1	81	n/a	n/a	1	0	0
408.545	1	81	n/a	n/a	1	0	0
408.745	1	81	n/a	n/a	1	0	0
410.1082	1	10	n/a	n/a	1	50	1
411.2414	1	10	n/a	n/a	1	50	2
412.558	1	10	n/a	n/a	1	50	3
413.8746	1	10	n/a	n/a	1	50	4
415.1412	1	10	n/a	n/a	1	50	5
416.4078	1	21	n/a	n/a	1	50	0
417.5076	1	10	n/a	n/a	1	50	1
418.541	1	10	n/a	n/a	1	50	2
419.8408	1	10	n/a	n/a	1	50	3
421.0074	1	10	n/a	n/a	1	50	4
422.0908	1	10	n/a	n/a	1	50	5
423.174	1	21	n/a	n/a	1	50	0
424.3906	1	10	n/a	n/a	1	50	1
425.6072	1	10	n/a	n/a	1	50	2
426.8238	1	10	n/a	n/a	1	50	3
427.9904	1	10	n/a	n/a	1	50	4
429.1236	1	10	n/a	n/a	1	50	5
430.257	1	21	n/a	n/a	1	50	0
431.3402	1	10	n/a	n/a	1	50	1
432.5402	1	10	n/a	n/a	1	50	2
466.0834	1	81	n/a	n/a	1	0	0
466.2834	1	81	n/a	n/a	1	0	0
466.4834	1	81	n/a	n/a	1	0	0
466.6834	1	81	n/a	n/a	1	0	0
466.8834	1	81	n/a	n/a	1	0	0
467.0834	1	81	n/a	n/a	1	0	0
467.2834	1	81	n/a	n/a	1	0	0
467.4834	1	81	n/a	n/a	1	0	0
467.6834	1	81	n/a	n/a	1	0	0
467.8834	1	81	n/a	n/a	1	0	0
469.1712	1	10	n/a	n/a	1	51	1
470.3712	1	21	n/a	n/a	1	51	0
471.4046	1	10	n/a	n/a	1	51	1
472.4378	1	21	n/a	n/a	1	51	0
473.5378	1	10	n/a	n/a	1	51	1
474.8376	1	10	n/a	n/a	1	51	2
476.1208	1	10	n/a	n/a	1	51	3
477.1874	1	10	n/a	n/a	1	51	4
478.2374	1	10	n/a	n/a	1	51	5
479.2874	1	21	n/a	n/a	1	51	0
480.5874	1	10	n/a	n/a	1	51	1
481.8872	1	21	n/a	n/a	1	51	0
483.0038	1	10	n/a	n/a	1	51	1
484.037	1	10	n/a	n/a	1	51	2
485.1036	1	10	n/a	n/a	1	51	3
486.137	1	10	n/a	n/a	1	51	4
487.4036	1	10	n/a	n/a	1	51	5
488.6368	1	10	n/a	n/a	1	51	6
489.72	1	10	n/a	n/a	1	51	7
490.8034	1	21	n/a	n/a	1	51	0
491.6328	1	81	n/a	n/a	1	0	0
491.8328	1	81	n/a	n/a	1	0	0
492.0328	1	81	n/a	n/a	1	0	0
492.2328	1	81	n/a	n/a	1	0	0
492.4328	1	81	n/a	n/a	1	0	0
492.6328	1	81	n/a	n/a	1	0	0
492.8328	1	81	n/a	n/a	1	0	0
493.0328	1	81	n/a	n/a	1	0	0
493.2328	1	81	n/a	n/a	1	0	0
493.4328	1	81	n/a	n/a	1	0	0
494.8364	1	10	n/a	n/a	1	51	1
496.153	1	21	n/a	n/a	1	51	0
497.353	1	10	n/a	n/a	1	51	1
498.6196	1	10	n/a	n/a	1	51	2
499.9194	1	10	n/a	n/a	1	51	3
501.2194	1	21	n/a	n/a	1	51	0
502.436	1	10	n/a	n/a	1	51	1
503.686	1	10	n/a	n/a	1	51	2
504.8358	1	10	n/a	n/a	1	51	3
505.9358	1	10	n/a	n/a	1	51	4
507.2024	1	10	n/a	n/a	1	51	5
508.4024	1	10	n/a	n/a	1	51	6
509.6856	1	10	n/a	n/a	1	51	7
510.9688	1	21	n/a	n/a	1	51	0
512.202	1	10	n/a	n/a	1	51	1
513.3686	1	10	n/a	n/a	1	51	2
514.552	1	10	n/a	n/a	1	51	3
515.8018	1	10	n/a	n/a	1	51	4
517.0518	1	10	n/a	n/a	1	51	5
518.3018	1	10	n/a	n/a	1	51	6
519.2962	1	81	n/a	n/a	1	0	0
519.4962	1	81	n/a	n/a	1	0	0
519.6962	1	81	n/a	n/a	1	0	0
519.8962	1	81	n/a	n/a	1	0	0
520.0962	1	81	n/a	n/a	1	0	0
520.2962	1	81	n/a	n/a	1	0	0
520.4962	1	81	n/a	n/a	1	0	0
520.6962	1	81	n/a	n/a	1	0	0
520.8962	1	81	n/a	n/a	1	0	0
521.0962	1	81	n/a	n/a	1	0	0
522.4182	1	10	n/a	n/a	1	51	1
523.5514	1	10	n/a	n/a	1	51	2
524.6346	1	10	n/a	n/a	1	51	3
525.768	1	10	n/a	n/a	1	51	4
526.8678	1	10	n/a	n/a	1	51	5
527.9012	1	10	n/a	n/a	1	51	6
529.1178	1	10	n/a	n/a	1	51	7
530.3344	1	21	n/a	n/a	1	51	0
531.4176	1	10	n/a	n/a	1	51	1
532.6176	1	10	n/a	n/a	1	51	2
533.7508	1	10	n/a	n/a	1	51	3
534.984	1	10	n/a	n/a	1	51	4
536.1674	1	10	n/a	n/a	1	51	5
537.3506	1	21	n/a	n/a	1	51	0
538.5838	1	10	n/a	n/a	1	51	1
539.8672	1	10	n/a	n/a	1	51	2
540.9504	1	10	n/a	n/a	1	51	3
542.0504	1	10	n/a	n/a	1	51	4
543.367	1	10	n/a	n/a	1	51	5
544.6002	1	10	n/a	n/a	1	51	6
545.3956	1	81	n/a	n/a	1	0	0
545.5956	1	81	n/a	n/a	1	0	0
545.7956	1	81	n/a	n/a	1	0	0
545.9956	1	81	n/a	n/a	1	0	0
546.1956	1	81	n/a	n/a	1	0	0
546.3956	1	81	n/a	n/a	1	0	0
546.5956	1	81	n/a	n/a	1	0	0
546.7956	1	81	n/a	n/a	1	0	0
546.9956	1	81	n/a	n/a	1	0	0
547.1956	1	81	n/a	n/a	1	0	0
548.4666	1	10	n/a	n/a	1	51	1
549.4998	1	10	n/a	n/a	1	51	2
550.7164	1	10	n/a	n/a	1	51	3
551.933	1	10	n/a	n/a	1	51	4
553.0996	1	10	n/a	n/a	1	51	5
554.2662	1	21	n/a	n/a	1	51	0
555.4328	1	10	n/a	n/a	1	51	1
556.6162	1	10	n/a	n/a	1	51	2
557.8328	1	10	n/a	n/a	1	51	3
558.966	1	10	n/a	n/a	1	51	4
560.1326	1	10	n/a	n/a	1	51	5
561.2492	1	10	n/a	n/a	1	51	6
562.4824	1	10	n/a	n/a	1	51	7
563.7158	1	21	n/a	n/a	1	51	0
564.799	1	10	n/a	n/a	1	51	1
565.999	1	10	n/a	n/a	1	51	2
567.2656	1	10	n/a	n/a	1	51	3
568.5322	1	10	n/a	n/a	1	51	4
569.7154	1	10	n/a	n/a	1	51	5
570.8986	1	21	n/a	n/a	1	51	0
571.7684	1	81	n/a	n/a	1	0	0
571.9684	1	81	n/a	n/a	1	0	0
572.1684	1	81	n/a	n/a	1	0	0
572.3684	1	81	n/a	n/a	1	0	0
572.5682	1	81	n/a	n/a	1	0	0
572.7684	1	81	n/a	n/a	1	0	0
572.9684	1	81	n/a	n/a	1	0	0
573.1684	1	81	n/a	n/a	1	0	0
573.3684	1	81	n/a	n/a	1	0	0
573.5684	1	81	n/a	n/a	1	0	0
574.8984	1	10	n/a	n/a	1	51	1
576.0816	1	10	n/a	n/a	1	51	2
577.315	1	10	n/a	n/a	1	51	3
578.5982	1	10	n/a	n/a	1	51	4
579.8148	1	10	n/a	n/a	1	51	5
580.9814	1	10	n/a	n/a	1	51	6
582.2146	1	10	n/a	n/a	1	51	7
583.4478	1	21	n/a	n/a	1	51	0
584.6312	1	10	n/a	n/a	1	51	1
585.8144	1	10	n/a	n/a	1	51	2
587.0644	1	10	n/a	n/a	1	51	3
588.3142	1	21	n/a	n/a	1	51	0
589.3808	1	10	n/a	n/a	1	51	1
590.6142	1	10	n/a	n/a	1	51	2
591.664	1	10	n/a	n/a	1	51	3
592.7474	1	10	n/a	n/a	1	51	4
594.0306	1	10	n/a	n/a	1	51	5
595.3138	1	21	n/a	n/a	1	51	0
596.3638	1	10	n/a	n/a	1	51	1
597.4138	1	21	n/a	n/a	1	51	0
705.3674	1	82	n/a	n/a	1	0	0
705.3984	1	82	n/a	n/a	1	0	0
705.7834	1	82	n/a	n/a	1	0	0
706.1904	1	82	n/a	n/a	1	0	0
706.2544	1	82	n/a	n/a	1	0	0
706.3674	1	82	n/a	n/a	1	0	0
706.7474	1	82	n/a	n/a	1	0	0
706.8124	1	82	n/a	n/a	1	0	0
707.0334	1	82	n/a	n/a	1	0	0
707.0654	1	82	n/a	n/a	1	0	0
708.4572	1	10	n/a	n/a	1	52	1
709.7572	1	10	n/a	n/a	1	52	2
710.957	1	10	n/a	n/a	1	52	3
712.0904	1	10	n/a	n/a	1	52	4
713.3902	1	10	n/a	n/a	1	52	5
714.5568	1	10	n/a	n/a	1	52	6
715.6402	1	10	n/a	n/a	1	52	7
716.7234	1	21	n/a	n/a	1	52	0
717.94	1	10	n/a	n/a	1	52	1
719.19	1	10	n/a	n/a	1	52	2
720.2398	1	10	n/a	n/a	1	52	3
721.2898	1	21	n/a	n/a	1	52	0
722.5898	1	10	n/a	n/a	1	52	1
723.9062	1	10	n/a	n/a	1	52	2
725.2228	1	10	n/a	n/a	1	52	3
726.5394	1	21	n/a	n/a	1	52	0
727.5894	1	10	n/a	n/a	1	52	1
728.7726	1	10	n/a	n/a	1	52	2
729.906	1	10	n/a	n/a	1	52	3
731.1558	1	10	n/a	n/a	1	52	4
732.1294	1	82	n/a	n/a	1	0	0
732.1574	1	82	n/a	n/a	1	0	0
732.4934	1	82	n/a	n/a	1	0	0
732.5434	1	82	n/a	n/a	1	0	0
732.7774	1	82	n/a	n/a	1	0	0
733.1294	1	82	n/a	n/a	1	0	0
733.2954	1	82	n/a	n/a	1	0	0
733.3984	1	82	n/a	n/a	1	0	0
733.6234	1	82	n/a	n/a	1	0	0
733.6494	1	82	n/a	n/a	1	0	0
735.0556	1	10	n/a	n/a	1	52	1
736.2722	1	10	n/a	n/a	1	52	2
737.5722	1	10	n/a	n/a	1	52	3
738.6554	1	10	n/a	n/a	1	52	4
739.722	1	10	n/a	n/a	1	52	5
741.0552	1	10	n/a	n/a	1	52	6
742.3052	1	10	n/a	n/a	1	52	7
743.5552	1	21	n/a	n/a	1	52	0
744.7884	1	10	n/a	n/a	1	52	1
746.0384	1	10	n/a	n/a	1	52	2
747.2716	1	10	n/a	n/a	1	52	3
748.5048	1	21	n/a	n/a	1	52	0
749.6214	1	10	n/a	n/a	1	52	1
750.6714	1	10	n/a	n/a	1	52	2
751.838	1	10	n/a	n/a	1	52	3
753.0046	1	10	n/a	n/a	1	52	4
754.1212	1	10	n/a	n/a	1	52	5
755.2378	1	21	n/a	n/a	1	52	0
756.5044	1	10	n/a	n/a	1	52	1
757.771	1	21	n/a	n/a	1	52	0
758.7524	1	82	n/a	n/a	1	0	0
759.1234	1	82	n/a	n/a	1	0	0
759.3694	1	82	n/a	n/a	1	0	0
759.6624	1	82	n/a	n/a	1	0	0
759.6944	1	82	n/a	n/a	1	0	0
759.7526	1	82	n/a	n/a	1	0	0
759.8246	1	82	n/a	n/a	1	0	0
760.0836	1	82	n/a	n/a	1	0	0
760.2374	1	82	n/a	n/a	1	0	0
760.2884	1	82	n/a	n/a	1	0	0
761.8874	1	10	n/a	n/a	1	52	1
763.054	1	10	n/a	n/a	1	52	2
764.2872	1	10	n/a	n/a	1	52	3
765.5206	1	21	n/a	n/a	1	52	0
766.7204	1	10	n/a	n/a	1	52	1
768.037	1	10	n/a	n/a	1	52	2
769.1536	1	10	n/a	n/a	1	52	3
770.187	1	10	n/a	n/a	1	52	4
771.3368	1	10	n/a	n/a	1	52	5
772.57	1	10	n/a	n/a	1	52	6
773.7034	1	10	n/a	n/a	1	52	7
774.8366	1	21	n/a	n/a	1	52	0
776.1532	1	10	n/a	n/a	1	52	1
777.4698	1	21	n/a	n/a	1	52	0
778.603	1	10	n/a	n/a	1	52	1
779.7864	1	10	n/a	n/a	1	52	2
780.853	1	10	n/a	n/a	1	52	3
781.9028	1	10	n/a	n/a	1	52	4
782.9528	1	10	n/a	n/a	1	52	5
784.1528	1	10	n/a	n/a	1	52	6
785.1372	1	82	n/a	n/a	1	0	0
785.5252	1	82	n/a	n/a	1	0	0
785.8022	1	82	n/a	n/a	1	0	0
785.9722	1	82	n/a	n/a	1	0	0
786.0462	1	82	n/a	n/a	1	0	0
786.1372	1	82	n/a	n/a	1	0	0
786.5454	1	82	n/a	n/a	1	0	0
786.6132	1	82	n/a	n/a	1	0	0
786.6382	1	82	n/a	n/a	1	0	0
786.7302	1	82	n/a	n/a	1	0	0
788.2858	1	10	n/a	n/a	1	52	1
789.5358	1	21	n/a	n/a	1	52	0
790.569	1	10	n/a	n/a	1	52	1
791.6024	1	21	n/a	n/a	1	52	0
792.669	1	10	n/a	n/a	1	52	1
793.9188	1	10	n/a	n/a	1	52	2
795.1688	1	10	n/a	n/a	1	52	3
796.4686	1	10	n/a	n/a	1	52	4
797.502	1	10	n/a	n/a	1	52	5
798.5352	1	10	n/a	n/a	1	52	6
799.5852	1	10	n/a	n/a	1	52	7
800.6352	1	21	n/a	n/a	1	52	0
801.9516	1	10	n/a	n/a	1	52	1
803.0682	1	10	n/a	n/a	1	52	2
804.3348	1	10	n/a	n/a	1	52	3
805.6514	1	10	n/a	n/a	1	52	4
806.9014	1	10	n/a	n/a	1	52	5
808.1514	1	21	n/a	n/a	1	52	0
809.418	1	10	n/a	n/a	1	52	1
810.5512	1	10	n/a	n/a	1	52	2
811.6008	1	82	n/a	n/a	1	0	0
811.9378	1	82	n/a	n/a	1	0	0
812.0798	1	82	n/a	n/a	1	0	0
812.1788	1	82	n/a	n/a	1	0	0
812.2028	1	82	n/a	n/a	1	0	0
812.6008	1	82	n/a	n/a	1	0	0
812.9288	1	82	n/a	n/a	1	0	0
812.9738	1	82	n/a	n/a	1	0	0
813.3718	1	82	n/a	n/a	1	0	0
813.5448	1	82	n/a	n/a	1	0	0
814.6842	1	10	n/a	n/a	1	52	1
815.7842	1	10	n/a	n/a	1	52	2
817.0008	1	10	n/a	n/a	1	52	3
818.3174	1	10	n/a	n/a	1	52	4
819.5506	1	10	n/a	n/a	1	52	5
820.784	1	21	n/a	n/a	1	52	0
821.9506	1	10	n/a	n/a	1	52	1
822.9838	1	10	n/a	n/a	1	52	2
824.167	1	10	n/a	n/a	1	52	3
825.3504	1	21	n/a	n/a	1	52	0
826.417	1	10	n/a	n/a	1	52	1
827.4836	1	21	n/a	n/a	1	52	0
828.7668	1	10	n/a	n/a	1	52	1
829.9	1	10	n/a	n/a	1	52	2
831.15	1	10	n/a	n/a	1	52	3
832.3998	1	21	n/a	n/a	1	52	0
833.4998	1	10	n/a	n/a	1	52	1
834.5332	1	10	n/a	n/a	1	52	2
835.733	1	10	n/a	n/a	1	52	3
836.933	1	21	n/a	n/a	1	52	0
846.2128	1	82	n/a	n/a	1	0	0
846.3298	1	82	n/a	n/a	1	0	0
846.6038	1	82	n/a	n/a	1	0	0
846.6848	1	82	n/a	n/a	1	0	0
846.8248	1	82	n/a	n/a	1	0	0
847.2128	1	82	n/a	n/a	1	0	0
847.5318	1	82	n/a	n/a	1	0	0
847.5518	1	82	n/a	n/a	1	0	0
847.7058	1	82	n/a	n/a	1	0	0
847.8158	1	82	n/a	n/a	1	0	0
849.2656	1	10	n/a	n/a	1	50	1
850.4822	1	10	n/a	n/a	1	50	2
851.5654	1	10	n/a	n/a	1	50	3
852.882	1	10	n/a	n/a	1	50	4
853.9486	1	10	n/a	n/a	1	50	5
854.9986	1	10	n/a	n/a	1	50	6
856.2984	1	10	n/a	n/a	1	50	7
857.5984	1	21	n/a	n/a	1	50	0
858.665	1	10	n/a	n/a	1	50	1
859.9316	1	10	n/a	n/a	1	50	2
861.1816	1	10	n/a	n/a	1	50	3
862.4314	1	21	n/a	n/a	1	50	0
863.548	1	10	n/a	n/a	1	50	1
864.8646	1	10	n/a	n/a	1	50	2
866.048	1	10	n/a	n/a	1	50	3
867.0978	1	10	n/a	n/a	1	50	4
868.4144	1	10	n/a	n/a	1	50	5
869.731	1	21	n/a	n/a	1	50	0
870.9476	1	10	n/a	n/a	1	50	1
872.1308	1	10	n/a	n/a	1	50	2
873.1934	1	82	n/a	n/a	1	0	0
873.2524	1	82	n/a	n/a	1	0	0
873.2804	1	82	n/a	n/a	1	0	0
873.4384	1	82	n/a	n/a	1	0	0
873.7424	1	82	n/a	n/a	1	0	0
874.1934	1	82	n/a	n/a	1	0	0
874.2904	1	82	n/a	n/a	1	0	0
874.5184	1	82	n/a	n/a	1	0	0
874.9494	1	82	n/a	n/a	1	0	0
874.9774	1	82	n/a	n/a	1	0	0
876.1474	1	10	n/a	n/a	1	50	1
877.264	1	10	n/a	n/a	1	50	2
878.4472	1	10	n/a	n/a	1	50	3
879.6304	1	21	n/a	n/a	1	50	0
880.797	1	10	n/a	n/a	1	50	1
882.0636	1	10	n/a	n/a	1	50	2
883.3136	1	10	n/a	n/a	1	50	3
884.4468	1	10	n/a	n/a	1	50	4
885.4802	1	10	n/a	n/a	1	50	5
886.7634	1	10	n/a	n/a	1	50	6
888.0466	1	10	n/a	n/a	1	50	7
889.3298	1	21	n/a	n/a	1	50	0
890.4964	1	10	n/a	n/a	1	50	1
891.663	1	21	n/a	n/a	1	50	0
892.6964	1	10	n/a	n/a	1	50	1
893.7296	1	21	n/a	n/a	1	50	0
895.0296	1	10	n/a	n/a	1	50	1
896.3294	1	21	n/a	n/a	1	50	0
897.546	1	10	n/a	n/a	1	50	1
898.7794	1	10	n/a	n/a	1	50	2
899.664	1	82	n/a	n/a	1	0	0
899.763	1	82	n/a	n/a	1	0	0
899.783	1	82	n/a	n/a	1	0	0
900.087	1	82	n/a	n/a	1	0	0
900.242	1	82	n/a	n/a	1	0	0
900.664	1	82	n/a	n/a	1	0	0
901.018	1	82	n/a	n/a	1	0	0
901.287	1	82	n/a	n/a	1	0	0
901.477	1	82	n/a	n/a	1	0	0
901.581	1	82	n/a	n/a	1	0	0
902.6458	1	10	n/a	n/a	1	50	1
903.8124	1	10	n/a	n/a	1	50	2
904.9956	1	10	n/a	n/a	1	50	3
906.2956	1	10	n/a	n/a	1	50	4
907.3288	1	10	n/a	n/a	1	50	5
908.362	1	21	n/a	n/a	1	50	0
909.5786	1	10	n/a	n/a	1	50	1
910.6952	1	10	n/a	n/a	1	50	2
911.8452	1	10	n/a	n/a	1	50	3
912.9952	1	10	n/a	n/a	1	50	4
914.2784	1	10	n/a	n/a	1	50	5
915.5616	1	21	n/a	n/a	1	50	0
916.6282	1	10	n/a	n/a	1	50	1
917.6948	1	21	n/a	n/a	1	50	0
918.9948	1	10	n/a	n/a	1	50	1
920.2948	1	21	n/a	n/a	1	50	0
921.4446	1	10	n/a	n/a	1	50	1
922.7112	1	10	n/a	n/a	1	50	2
923.9778	1	10	n/a	n/a	1	50	3
925.1112	1	10	n/a	n/a	1	50	4
925.978	1	82	n/a	n/a	1	0	0
926.056	1	82	n/a	n/a	1	0	0
926.312	1	82	n/a	n/a	1	0	0
926.35	1	82	n/a	n/a	1	0	0
926.449	1	82	n/a	n/a	1	0	0
926.978	1	82	n/a	n/a	1	0	0
927.344	1	82	n/a	n/a	1	0	0
927.671	1	82	n/a	n/a	1	0	0
927.763	1	82	n/a	n/a	1	0	0
927.914	1	82	n/a	n/a	1	0	0
929.0942	1	10	n/a	n/a	1	50	1
930.2108	1	10	n/a	n/a	1	50	2
931.5274	1	10	n/a	n/a	1	50	3
932.844	1	21	n/a	n/a	1	50	0
934.0272	1	10	n/a	n/a	1	50	1
935.2106	1	10	n/a	n/a	1	50	2
936.3772	1	10	n/a	n/a	1	50	3
937.477	1	10	n/a	n/a	1	50	4
938.5436	1	10	n/a	n/a	1	50	5
939.627	1	10	n/a	n/a	1	50	6
940.8436	1	10	n/a	n/a	1	50	7
942.0602	1	21	n/a	n/a	1	50	0
943.1768	1	10	n/a	n/a	1	50	1
944.2766	1	10	n/a	n/a	1	50	2
945.46	1	10	n/a	n/a	1	50	3
946.5432	1	10	n/a	n/a	1	50	4
947.7932	1	10	n/a	n/a	1	50	5
948.8764	1	10	n/a	n/a	1	50	6
950.0264	1	10	n/a	n/a	1	50	7
951.1762	1	21	n/a	n/a	1	50	0
951.9916	1	82	n/a	n/a	1	0	0
952.0766	1	82	n/a	n/a	1	0	0
952.4346	1	82	n/a	n/a	1	0	0
952.7506	1	82	n/a	n/a	1	0	0
952.9036	1	82	n/a	n/a	1	0	0
952.9916	1	82	n/a	n/a	1	0	0
953.0876	1	82	n/a	n/a	1	0	0
953.1436	1	82	n/a	n/a	1	0	0
953.3376	1	82	n/a	n/a	1	0	0
953.5826	1	82	n/a	n/a	1	0	0
954.9426	1	10	n/a	n/a	1	50	1
956.2426	1	10	n/a	n/a	1	50	2
957.2758	1	10	n/a	n/a	1	50	3
958.3092	1	21	n/a	n/a	1	50	0
959.4924	1	10	n/a	n/a	1	50	1
960.759	1	10	n/a	n/a	1	50	2
961.8256	1	10	n/a	n/a	1	50	3
962.9256	1	10	n/a	n/a	1	50	4
964.0088	1	10	n/a	n/a	1	50	5
965.3088	1	10	n/a	n/a	1	50	6
966.6254	1	10	n/a	n/a	1	50	7
967.942	1	21	n/a	n/a	1	50	0
969.2586	1	10	n/a	n/a	1	50	1
970.575	1	21	n/a	n/a	1	50	0
971.6084	1	10	n/a	n/a	1	50	1
972.6584	1	10	n/a	n/a	1	50	2
973.9082	1	10	n/a	n/a	1	50	3
975.1582	1	21	n/a	n/a	1	50	0
976.358	1	10	n/a	n/a	1	50	1
977.4246	1	10	n/a	n/a	1	50	2
997.3576	1	81	n/a	n/a	1	0	0
997.5576	1	81	n/a	n/a	1	0	0
997.7576	1	81	n/a	n/a	1	0	0
997.9576	1	81	n/a	n/a	1	0	0
998.1576	1	81	n/a	n/a	1	0	0
998.3576	1	81	n/a	n/a	1	0	0
998.5576	1	81	n/a	n/a	1	0	0
998.7576	1	81	n/a	n/a	1	0	0
998.9576	1	81	n/a	n/a	1	0	0
999.1576	1	81	n/a	n/a	1	0	0
1000.5566	1	10	n/a	n/a	1	51	1
1001.7566	1	10	n/a	n/a	1	51	2
1002.8398	1	10	n/a	n/a	1	51	3
1004.1398	1	10	n/a	n/a	1	51	4
1005.3398	1	10	n/a	n/a	1	51	5
1006.5396	1	21	n/a	n/a	1	51	0
1007.7896	1	10	n/a	n/a	1	51	1
1008.8728	1	10	n/a	n/a	1	51	2
1010.0228	1	10	n/a	n/a	1	51	3
1011.1728	1	21	n/a	n/a	1	51	0
1012.2726	1	10	n/a	n/a	1	51	1
1013.5726	1	10	n/a	n/a	1	51	2
1014.6558	1	10	n/a	n/a	1	51	3
1015.739	1	21	n/a	n/a	1	51	0
1016.7724	1	10	n/a	n/a	1	51	1
1018.0056	1	10	n/a	n/a	1	51	2
1019.2888	1	10	n/a	n/a	1	51	3
1020.3556	1	10	n/a	n/a	1	51	4
1021.6388	1	10	n/a	n/a	1	51	5
1022.8054	1	10	n/a	n/a	1	51	6
1023.5498	1	81	n/a	n/a	1	0	0
1023.7498	1	81	n/a	n/a	1	0	0
1023.9498	1	81	n/a	n/a	1	0	0
1024.1498	1	81	n/a	n/a	1	0	0
1024.3498	1	81	n/a	n/a	1	0	0
1024.5498	1	81	n/a	n/a	1	0	0
1024.7498	1	81	n/a	n/a	1	0	0
1024.9498	1	81	n/a	n/a	1	0	0
1025.1498	1	81	n/a	n/a	1	0	0
1025.3498	1	81	n/a	n/a	1	0	0
1026.6218	1	10	n/a	n/a	1	51	1
1027.705	1	10	n/a	n/a	1	51	2
1028.9716	1	10	n/a	n/a	1	51	3
1030.0882	1	10	n/a	n/a	1	51	4
1031.2548	1	10	n/a	n/a	1	51	5
1032.4714	1	10	n/a	n/a	1	51	6
1033.5714	1	10	n/a	n/a	1	51	7
1034.6714	1	21	n/a	n/a	1	51	0
1035.988	1	10	n/a	n/a	1	51	1
1037.0878	1	10	n/a	n/a	1	51	2
1038.3378	1	10	n/a	n/a	1	51	3
1039.571	1	10	n/a	n/a	1	51	4
1040.821	1	10	n/a	n/a	1	51	5
1042.0708	1	21	n/a	n/a	1	51	0
1043.2874	1	10	n/a	n/a	1	51	1
1044.5374	1	10	n/a	n/a	1	51	2
1045.7206	1	10	n/a	n/a	1	51	3
1046.904	1	21	n/a	n/a	1	51	0
1047.9538	1	10	n/a	n/a	1	51	1
1049.2704	1	10	n/a	n/a	1	51	2
1050.3228	1	81	n/a	n/a	1	0	0
1050.5228	1	81	n/a	n/a	1	0	0
1050.7228	1	81	n/a	n/a	1	0	0
1050.9228	1	81	n/a	n/a	1	0	0
1051.1228	1	81	n/a	n/a	1	0	0
1051.3228	1	81	n/a	n/a	1	0	0
1051.5228	1	81	n/a	n/a	1	0	0
1051.7228	1	81	n/a	n/a	1	0	0
1051.9228	1	81	n/a	n/a	1	0	0
1052.1228	1	81	n/a	n/a	1	0	0
1053.3702	1	10	n/a	n/a	1	51	1
1054.4368	1	10	n/a	n/a	1	51	2
1055.6534	1	10	n/a	n/a	1	51	3
1056.97	1	10	n/a	n/a	1	51	4
1058.1034	1	10	n/a	n/a	1	51	5
1059.2366	1	21	n/a	n/a	1	51	0
1060.4532	1	10	n/a	n/a	1	51	1
1061.6698	1	10	n/a	n/a	1	51	2
1062.9196	1	10	n/a	n/a	1	51	3
1063.9696	1	10	n/a	n/a	1	51	4
1065.0196	1	10	n/a	n/a	1	51	5
1066.0694	1	10	n/a	n/a	1	51	6
1067.3194	1	10	n/a	n/a	1	51	7
1068.5694	1	21	n/a	n/a	1	51	0
1069.8526	1	10	n/a	n/a	1	51	1
1071.1358	1	10	n/a	n/a	1	51	2
1072.2024	1	10	n/a	n/a	1	51	3
1073.2358	1	10	n/a	n/a	1	51	4
1074.4024	1	10	n/a	n/a	1	51	5
1075.569	1	21	n/a	n/a	1	51	0
1076.5034	1	81	n/a	n/a	1	0	0
1076.7034	1	81	n/a	n/a	1	0	0
1076.9034	1	81	n/a	n/a	1	0	0
1077.1034	1	81	n/a	n/a	1	0	0
1077.3034	1	81	n/a	n/a	1	0	0
1077.5034	1	81	n/a	n/a	1	0	0
1077.7034	1	81	n/a	n/a	1	0	0
1077.9034	1	81	n/a	n/a	1	0	0
1078.1034	1	81	n/a	n/a	1	0	0
1078.3034	1	81	n/a	n/a	1	0	0
1079.602	1	10	n/a	n/a	1	51	1
1080.902	1	10	n/a	n/a	1	51	2
1082.2186	1	10	n/a	n/a	1	51	3
1083.5352	1	21	n/a	n/a	1	51	0
1084.6184	1	10	n/a	n/a	1	51	1
1085.7016	1	21	n/a	n/a	1	51	0
1087.0016	1	10	n/a	n/a	1	51	1
1088.3016	1	21	n/a	n/a	1	51	0
1089.6014	1	10	n/a	n/a	1	51	1
1090.9014	1	21	n/a	n/a	1	51	0
1092.2346	1	10	n/a	n/a	1	51	1
1093.3846	1	10	n/a	n/a	1	51	2
1094.5512	1	10	n/a	n/a	1	51	3
1095.651	1	10	n/a	n/a	1	51	4
1096.7844	1	10	n/a	n/a	1	51	5
1097.9176	1	21	n/a	n/a	1	51	0
1098.9508	1	10	n/a	n/a	1	51	1
1099.9842	1	21	n/a	n/a	1	51	0
1101.3008	1	10	n/a	n/a	1	51	1
1102.384	1	10	n/a	n/a	1	51	2
1103.2344	1	81	n/a	n/a	1	0	0
1103.4344	1	81	n/a	n/a	1	0	0
1103.6344	1	81	n/a	n/a	1	0	0
1103.8344	1	81	n/a	n/a	1	0	0
1104.0344	1	81	n/a	n/a	1	0	0
1104.2344	1	81	n/a	n/a	1	0	0
1104.4344	1	81	n/a	n/a	1	0	0
1104.6344	1	81	n/a	n/a	1	0	0
1104.8344	1	81	n/a	n/a	1	0	0
1105.0344	1	81	n/a	n/a	1	0	0
1106.3838	1	10	n/a	n/a	1	51	1
1107.4338	1	10	n/a	n/a	1	51	2
1108.517	1	10	n/a	n/a	1	51	3
1109.6002	1	21	n/a	n/a	1	51	0
1110.9168	1	10	n/a	n/a	1	51	1
1112.1334	1	10	n/a	n/a	1	51	2
1113.2666	1	10	n/a	n/a	1	51	3
1114.4	1	21	n/a	n/a	1	51	0
1115.4998	1	10	n/a	n/a	1	51	1
1116.6332	1	10	n/a	n/a	1	51	2
1117.7664	1	10	n/a	n/a	1	51	3
1118.9498	1	10	n/a	n/a	1	51	4
1120.1996	1	10	n/a	n/a	1	51	5
1121.483	1	10	n/a	n/a	1	51	6
1122.5828	1	10	n/a	n/a	1	51	7
1123.6828	1	21	n/a	n/a	1	51	0
1124.816	1	10	n/a	n/a	1	51	1
1125.9492	1	21	n/a	n/a	1	51	0
1127.0158	1	10	n/a	n/a	1	51	1
1128.0824	1	21	n/a	n/a	1	51	0
1188.0784	1	82	n/a	n/a	1	0	0
1188.3024	1	82	n/a	n/a	1	0	0
1188.6064	1	82	n/a	n/a	1	0	0
1188.6284	1	82	n/a	n/a	1	0	0
1188.7964	1	82	n/a	n/a	1	0	0
1189.0784	1	82	n/a	n/a	1	0	0
1189.1964	1	82	n/a	n/a	1	0	0
1189.2264	1	82	n/a	n/a	1	0	0
1189.4494	1	82	n/a	n/a	1	0	0
1189.8274	1	82	n/a	n/a	1	0	0
1191.0454	1	10	n/a	n/a	1	52	1
1192.3454	1	10	n/a	n/a	1	52	2
1193.562	1	10	n/a	n/a	1	52	3
1194.7286	1	10	n/a	n/a	1	52	4
1195.9118	1	10	n/a	n/a	1	52	5
1196.9452	1	10	n/a	n/a	1	52	6
1197.995	1	10	n/a	n/a	1	52	7
1199.045	1	21	n/a	n/a	1	52	0
1200.3616	1	10	n/a	n/a	1	52	1
1201.5282	1	10	n/a	n/a	1	52	2
1202.8114	1	10	n/a	n/a	1	52	3
1204.0946	1	10	n/a	n/a	1	52	4
1205.2446	1	10	n/a	n/a	1	52	5
1206.3946	1	21	n/a	n/a	1	52	0
1207.5778	1	10	n/a	n/a	1	52	1
1208.7278	1	10	n/a	n/a	1	52	2
1209.7776	1	10	n/a	n/a	1	52	3
1210.8276	1	21	n/a	n/a	1	52	0
1212.1442	1	10	n/a	n/a	1	52	1
1213.4608	1	21	n/a	n/a	1	52	0
1214.5186	1	82	n/a	n/a	1	0	0
1214.5476	1	82	n/a	n/a	1	0	0
1214.6896	1	82	n/a	n/a	1	0	0
1214.9326	1	82	n/a	n/a	1	0	0
1215.3076	1	82	n/a	n/a	1	0	0
1215.5192	1	82	n/a	n/a	1	0	0
1215.7732	1	82	n/a	n/a	1	0	0
1215.9962	1	82	n/a	n/a	1	0	0
1216.3282	1	82	n/a	n/a	1	0	0
1216.4192	1	82	n/a	n/a	1	0	0
1217.5938	1	10	n/a	n/a	1	52	1
1218.7772	1	10	n/a	n/a	1	52	2
1220.0438	1	10	n/a	n/a	1	52	3
1221.1604	1	10	n/a	n/a	1	52	4
1222.327	1	10	n/a	n/a	1	52	5
1223.4936	1	10	n/a	n/a	1	52	6
1224.6102	1	10	n/a	n/a	1	52	7
1225.7268	1	21	n/a	n/a	1	52	0
1226.86	1	10	n/a	n/a	1	52	1
1227.9932	1	21	n/a	n/a	1	52	0
1229.1098	1	10	n/a	n/a	1	52	1
1230.2264	1	21	n/a	n/a	1	52	0
1231.3098	1	10	n/a	n/a	1	52	1
1232.393	1	21	n/a	n/a	1	52	0
1233.693	1	10	n/a	n/a	1	52	1
1234.9928	1	21	n/a	n/a	1	52	0
1236.2262	1	10	n/a	n/a	1	52	1
1237.3594	1	10	n/a	n/a	1	52	2
1238.676	1	10	n/a	n/a	1	52	3
1239.9926	1	21	n/a	n/a	1	52	0
1240.7392	1	82	n/a	n/a	1	0	0
1240.8842	1	82	n/a	n/a	1	0	0
1240.9872	1	82	n/a	n/a	1	0	0
1241.0682	1	82	n/a	n/a	1	0	0
1241.3772	1	82	n/a	n/a	1	0	0
1241.7392	1	82	n/a	n/a	1	0	0
1241.8052	1	82	n/a	n/a	1	0	0
1241.8342	1	82	n/a	n/a	1	0	0
1242.1872	1	82	n/a	n/a	1	0	0
1242.4282	1	82	n/a	n/a	1	0	0
1243.9256	1	10	n/a	n/a	1	52	1
1245.2256	1	21	n/a	n/a	1	52	0
1246.4256	1	10	n/a	n/a	1	52	1
1247.6088	1	10	n/a	n/a	1	52	2
1248.7754	1	10	n/a	n/a	1	52	3
1249.942	1	21	n/a	n/a	1	52	0
1250.9752	1	10	n/a	n/a	1	52	1
1252.1918	1	10	n/a	n/a	1	52	2
1253.2252	1	10	n/a	n/a	1	52	3
1254.3918	1	10	n/a	n/a	1	52	4
1255.4916	1	10	n/a	n/a	1	52	5
1256.5916	1	21	n/a	n/a	1	52	0
1257.6582	1	10	n/a	n/a	1	52	1
1258.7582	1	10	n/a	n/a	1	52	2
1259.8748	1	10	n/a	n/a	1	52	3
1261.1914	1	10	n/a	n/a	1	52	4
1262.4246	1	10	n/a	n/a	1	52	5
1263.6412	1	10	n/a	n/a	1	52	6
1264.9078	1	10	n/a	n/a	1	52	7
1266.1744	1	21	n/a	n/a	1	52	0
1266.992	1	82	n/a	n/a	1	0	0
1267.065	1	82	n/a	n/a	1	0	0
1267.189	1	82	n/a	n/a	1	0	0
1267.404	1	82	n/a	n/a	1	0	0
1267.74	1	82	n/a	n/a	1	0	0
1267.992	1	82	n/a	n/a	1	0	0
1268.141	1	82	n/a	n/a	1	0	0
1268.4	1	82	n/a	n/a	1	0	0
1268.682	1	82	n/a	n/a	1	0	0
1268.713	1	82	n/a	n/a	1	0	0
1270.0074	1	10	n/a	n/a	1	52	1
1271.174	1	10	n/a	n/a	1	52	2
1272.274	1	10	n/a	n/a	1	52	3
1273.374	1	21	n/a	n/a	1	52	0
1274.6072	1	10	n/a	n/a	1	52	1
1275.8404	1	21	n/a	n/a	1	52	0
1277.1404	1	10	n/a	n/a	1	52	1
1278.357	1	10	n/a	n/a	1	52	2
1279.4736	1	10	n/a	n/a	1	52	3
1280.7068	1	10	n/a	n/a	1	52	4
1282.0234	1	10	n/a	n/a	1	52	5
1283.2734	1	10	n/a	n/a	1	52	6
1284.34	1	10	n/a	n/a	1	52	7
1285.4066	1	21	n/a	n/a	1	52	0
1286.6898	1	10	n/a	n/a	1	52	1
1287.7898	1	10	n/a	n/a	1	52	2
1288.9564	1	10	n/a	n/a	1	52	3
1290.173	1	10	n/a	n/a	1	52	4
1291.2562	1	10	n/a	n/a	1	52	5
1292.3394	1	21	n/a	n/a	1	52	0
1293.19	1	82	n/a	n/a	1	0	0
1293.281	1	82	n/a	n/a	1	0	0
1293.66	1	82	n/a	n/a	1	0	0
1293.804	1	82	n/a	n/a	1	0	0
1294.103	1	82	n/a	n/a	1	0	0
1294.19	1	82	n/a	n/a	1	0	0
1294.422	1	82	n/a	n/a	1	0	0
1294.548	1	82	n/a	n/a	1	0	0
1294.831	1	82	n/a	n/a	1	0	0
1294.912	1	82	n/a	n/a	1	0	0
1296.2726	1	10	n/a	n/a	1	52	1
1297.4558	1	21	n/a	n/a	1	52	0
1298.7058	1	10	n/a	n/a	1	52	1
1299.9558	1	21	n/a	n/a	1	52	0
1301.0056	1	10	n/a	n/a	1	52	1
1302.039	1	10	n/a	n/a	1	52	2
1303.3388	1	10	n/a	n/a	1	52	3
1304.3722	1	10	n/a	n/a	1	52	4
1305.6888	1	10	n/a	n/a	1	52	5
1306.722	1	10	n/a	n/a	1	52	6
1307.7552	1	10	n/a	n/a	1	52	7
1308.7886	1	21	n/a	n/a	1	52	0
1309.9052	1	10	n/a	n/a	1	52	1
1311.1384	1	10	n/a	n/a	1	52	2
1312.405	1	10	n/a	n/a	1	52	3
1313.6716	1	21	n/a	n/a	1	52	0
1314.9214	1	10	n/a	n/a	1	52	1
1316.2214	1	10	n/a	n/a	1	52	2
1317.438	1	10	n/a	n/a	1	52	3
1318.6546	1	21	n/a	n/a	1	52	0
1328.7348	1	82	n/a	n/a	1	0	0
1328.7678	1	82	n/a	n/a	1	0	0
1328.9148	1	82	n/a	n/a	1	0	0
1329.0908	1	82	n/a	n/a	1	0	0
1329.4008	1	82	n/a	n/a	1	0	0
1329.7348	1	82	n/a	n/a	1	0	0
1330.0138	1	82	n/a	n/a	1	0	0
1330.4118	1	82	n/a	n/a	1	0	0
1330.6278	1	82	n/a	n/a	1	0	0
1330.6908	1	82	n/a	n/a	1	0	0
1331.7206	1	10	n/a	n/a	1	50	1
1332.9704	1	10	n/a	n/a	1	50	2
1334.2538	1	10	n/a	n/a	1	50	3
1335.287	1	10	n/a	n/a	1	50	4
1336.5868	1	10	n/a	n/a	1	50	5
1337.7202	1	10	n/a	n/a	1	50	6
1339.0368	1	10	n/a	n/a	1	50	7
1340.3534	1	21	n/a	n/a	1	50	0
1341.5532	1	10	n/a	n/a	1	50	1
1342.8532	1	10	n/a	n/a	1	50	2
1344.0698	1	10	n/a	n/a	1	50	3
1345.2698	1	10	n/a	n/a	1	50	4
1346.4196	1	10	n/a	n/a	1	50	5
1347.5696	1	21	n/a	n/a	1	50	0
1348.8862	1	10	n/a	n/a	1	50	1
1350.0694	1	10	n/a	n/a	1	50	2
1351.2026	1	10	n/a	n/a	1	50	3
1352.3026	1	10	n/a	n/a	1	50	4
1353.3526	1	10	n/a	n/a	1	50	5
1354.4692	1	10	n/a	n/a	1	50	6
1355.3326	1	82	n/a	n/a	1	0	0
1355.4466	1	82	n/a	n/a	1	0	0
1355.7886	1	82	n/a	n/a	1	0	0
1355.8526	1	82	n/a	n/a	1	0	0
1355.8836	1	82	n/a	n/a	1	0	0
1356.3326	1	82	n/a	n/a	1	0	0
1356.7576	1	82	n/a	n/a	1	0	0
1356.9106	1	82	n/a	n/a	1	0	0
1357.2076	1	82	n/a	n/a	1	0	0
1357.2346	1	82	n/a	n/a	1	0	0
1358.4856	1	10	n/a	n/a	1	50	1
1359.7522	1	21	n/a	n/a	1	50	0
1360.8188	1	10	n/a	n/a	1	50	1
1362.0688	1	10	n/a	n/a	1	50	2
1363.352	1	10	n/a	n/a	1	50	3
1364.6686	1	10	n/a	n/a	1	50	4
1365.9852	1	10	n/a	n/a	1	50	5
1367.3018	1	21	n/a	n/a	1	50	0
1368.335	1	10	n/a	n/a	1	50	1
1369.6516	1	10	n/a	n/a	1	50	2
1370.8682	1	10	n/a	n/a	1	50	3
1372.0848	1	21	n/a	n/a	1	50	0
1373.2348	1	10	n/a	n/a	1	50	1
1374.3346	1	10	n/a	n/a	1	50	2
1375.418	1	10	n/a	n/a	1	50	3
1376.6512	1	10	n/a	n/a	1	50	4
1377.8012	1	10	n/a	n/a	1	50	5
1378.951	1	21	n/a	n/a	1	50	0
1380.101	1	10	n/a	n/a	1	50	1
1381.3176	1	10	n/a	n/a	1	50	2
1382.416	1	82	n/a	n/a	1	0	0
1382.445	1	82	n/a	n/a	1	0	0
1382.711	1	82	n/a	n/a	1	0	0
1382.882	1	82	n/a	n/a	1	0	0
1383.12	1	82	n/a	n/a	1	0	0
1383.4162	1	82	n/a	n/a	1	0	0
1383.6932	1	82	n/a	n/a	1	0	0
1383.7892	1	82	n/a	n/a	1	0	0
1384.0402	1	82	n/a	n/a	1	0	0
1384.1702	1	82	n/a	n/a	1	0	0
1385.4006	1	10	n/a	n/a	1	50	1
1386.4506	1	10	n/a	n/a	1	50	2
1387.5172	1	10	n/a	n/a	1	50	3
1388.6838	1	10	n/a	n/a	1	50	4
1389.767	1	10	n/a	n/a	1	50	5
1390.8836	1	10	n/a	n/a	1	50	6
1392.1502	1	10	n/a	n/a	1	50	7
1393.4168	1	21	n/a	n/a	1	50	0
1394.7168	1	10	n/a	n/a	1	50	1
1395.7668	1	10	n/a	n/a	1	50	2
1397.0666	1	10	n/a	n/a	1	50	3
1398.3666	1	21	n/a	n/a	1	50	0
1399.5998	1	10	n/a	n/a	1	50	1
1400.8832	1	10	n/a	n/a	1	50	2
1401.9664	1	10	n/a	n/a	1	50	3
1403.0496	1	21	n/a	n/a	1	50	0
1404.283	1	10	n/a	n/a	1	50	1
1405.4328	1	10	n/a	n/a	1	50	2
1406.5162	1	10	n/a	n/a	1	50	3
1407.7826	1	10	n/a	n/a	1	50	4
1408.6332	1	82	n/a	n/a	1	0	0
1408.9502	1	82	n/a	n/a	1	0	0
1409.2382	1	82	n/a	n/a	1	0	0
1409.4042	1	82	n/a	n/a	1	0	0
1409.5132	1	82	n/a	n/a	1	0	0
1409.6332	1	82	n/a	n/a	1	0	0
1409.6542	1	82	n/a	n/a	1	0	0
1409.9822	1	82	n/a	n/a	1	0	0
1410.1482	1	82	n/a	n/a	1	0	0
1410.4052	1	82	n/a	n/a	1	0	0
1411.7658	1	10	n/a	n/a	1	50	1
1412.8658	1	10	n/a	n/a	1	50	2
1414.1324	1	10	n/a	n/a	1	50	3
1415.399	1	21	n/a	n/a	1	50	0
1416.7156	1	10	n/a	n/a	1	50	1
1417.9988	1	10	n/a	n/a	1	50	2
1419.1488	1	10	n/a	n/a	1	50	3
1420.2986	1	21	n/a	n/a	1	50	0
1421.4486	1	10	n/a	n/a	1	50	1
1422.6652	1	10	n/a	n/a	1	50	2
1423.965	1	10	n/a	n/a	1	50	3
1425.1316	1	10	n/a	n/a	1	50	4
1426.4316	1	10	n/a	n/a	1	50	5
1427.7316	1	21	n/a	n/a	1	50	0
1428.7982	1	10	n/a	n/a	1	50	1
1429.8648	1	21	n/a	n/a	1	50	0
1431.0646	1	10	n/a	n/a	1	50	1
1432.1812	1	10	n/a	n/a	1	50	2
1433.2146	1	10	n/a	n/a	1	50	3
1434.2478	1	21	n/a	n/a	1	50	0
1435.2376	1	82	n/a	n/a	1	0	0
1435.5706	1	82	n/a	n/a	1	0	0
1435.7376	1	82	n/a	n/a	1	0	0
1435.7986	1	82	n/a	n/a	1	0	0
1435.8366	1	82	n/a	n/a	1	0	0
1436.2376	1	82	n/a	n/a	1	0	0
1436.6106	1	82	n/a	n/a	1	0	0
1436.7186	1	82	n/a	n/a	1	0	0
1436.7626	1	82	n/a	n/a	1	0	0
1436.8456	1	82	n/a	n/a	1	0	0
1438.2476	1	10	n/a	n/a	1	50	1
1439.3642	1	21	n/a	n/a	1	50	0
1440.3974	1	10	n/a	n/a	1	50	1
1441.4308	1	21	n/a	n/a	1	50	0
1442.714	1	10	n/a	n/a	1	50	1
1443.8306	1	10	n/a	n/a	1	50	2
1444.9306	1	10	n/a	n/a	1	50	3
1446.0304	1	21	n/a	n/a	1	50	0
1447.3138	1	10	n/a	n/a	1	50	1
1448.4136	1	10	n/a	n/a	1	50	2
1449.497	1	10	n/a	n/a	1	50	3
1450.6136	1	10	n/a	n/a	1	50	4
1451.8968	1	10	n/a	n/a	1	50	5
1453.18	1	21	n/a	n/a	1	50	0
1454.3466	1	10	n/a	n/a	1	50	1
1455.5132	1	21	n/a	n/a	1	50	0
1456.7132	1	10	n/a	n/a	1	50	1
1458.013	1	10	n/a	n/a	1	50	2
1459.1964	1	10	n/a	n/a	1	50	3
1460.363	1	10	n/a	n/a	1	50	4
1487.9346	1	81	n/a	n/a	1	0	0
1488.1346	1	81	n/a	n/a	1	0	0
1488.3346	1	81	n/a	n/a	1	0	0
1488.5346	1	81	n/a	n/a	1	0	0
1488.7346	1	81	n/a	n/a	1	0	0
1488.9348	1	81	n/a	n/a	1	0	0
1489.1348	1	81	n/a	n/a	1	0	0
1489.3348	1	81	n/a	n/a	1	0	0
1489.5348	1	81	n/a	n/a	1	0	0
1489.7348	1	81	n/a	n/a	1	0	0
1490.9278	1	10	n/a	n/a	1	51	1
1492.111	1	10	n/a	n/a	1	51	2
1493.3776	1	10	n/a	n/a	1	51	3
1494.6442	1	21	n/a	n/a	1	51	0
1495.8442	1	10	n/a	n/a	1	51	1
1497.0608	1	10	n/a	n/a	1	51	2
1498.1108	1	10	n/a	n/a	1	51	3
1499.1606	1	10	n/a	n/a	1	51	4
1500.3772	1	10	n/a	n/a	1	51	5
1501.5938	1	21	n/a	n/a	1	51	0
1502.6938	1	10	n/a	n/a	1	51	1
1503.7938	1	21	n/a	n/a	1	51	0
1505.027	1	10	n/a	n/a	1	51	1
1506.277	1	10	n/a	n/a	1	51	2
1507.5102	1	10	n/a	n/a	1	51	3
1508.71	1	10	n/a	n/a	1	51	4
1509.8934	1	10	n/a	n/a	1	51	5
1511.1432	1	10	n/a	n/a	1	51	6
1512.1932	1	10	n/a	n/a	1	51	7
1513.2432	1	21	n/a	n/a	1	51	0
1514.2768	1	81	n/a	n/a	1	0	0
1514.4768	1	81	n/a	n/a	1	0	0
1514.6768	1	81	n/a	n/a	1	0	0
1514.8768	1	81	n/a	n/a	1	0	0
1515.0768	1	81	n/a	n/a	1	0	0
1515.2776	1	81	n/a	n/a	1	0	0
1515.4776	1	81	n/a	n/a	1	0	0
1515.6776	1	81	n/a	n/a	1	0	0
1515.8776	1	81	n/a	n/a	1	0	0
1516.0776	1	81	n/a	n/a	1	0	0
1517.2596	1	10	n/a	n/a	1	51	1
1518.4928	1	10	n/a	n/a	1	51	2
1519.7594	1	10	n/a	n/a	1	51	3
1521.026	1	21	n/a	n/a	1	51	0
1522.226	1	10	n/a	n/a	1	51	1
1523.426	1	10	n/a	n/a	1	51	2
1524.4758	1	10	n/a	n/a	1	51	3
1525.7424	1	10	n/a	n/a	1	51	4
1527.0256	1	10	n/a	n/a	1	51	5
1528.309	1	10	n/a	n/a	1	51	6
1529.5256	1	10	n/a	n/a	1	51	7
1530.7422	1	21	n/a	n/a	1	51	0
1531.8088	1	10	n/a	n/a	1	51	1
1532.9086	1	10	n/a	n/a	1	51	2
1534.0586	1	10	n/a	n/a	1	51	3
1535.2086	1	21	n/a	n/a	1	51	0
1536.4418	1	10	n/a	n/a	1	51	1
1537.675	1	21	n/a	n/a	1	51	0
1538.775	1	10	n/a	n/a	1	51	1
1539.975	1	10	n/a	n/a	1	51	2
1541.0704	1	81	n/a	n/a	1	0	0
1541.2704	1	81	n/a	n/a	1	0	0
1541.4704	1	81	n/a	n/a	1	0	0
1541.6704	1	81	n/a	n/a	1	0	0
1541.8704	1	81	n/a	n/a	1	0	0
1542.0704	1	81	n/a	n/a	1	0	0
1542.2704	1	81	n/a	n/a	1	0	0
1542.4704	1	81	n/a	n/a	1	0	0
1542.6704	1	81	n/a	n/a	1	0	0
1542.8704	1	81	n/a	n/a	1	0	0
1544.158	1	10	n/a	n/a	1	51	1
1545.2912	1	10	n/a	n/a	1	51	2
1546.3746	1	10	n/a	n/a	1	51	3
1547.5578	1	10	n/a	n/a	1	51	4
1548.6578	1	10	n/a	n/a	1	51	5
1549.7576	1	21	n/a	n/a	1	51	0
1551.0576	1	10	n/a	n/a	1	51	1
1552.3576	1	10	n/a	n/a	1	51	2
1553.3908	1	10	n/a	n/a	1	51	3
1554.6408	1	10	n/a	n/a	1	51	4
1555.7906	1	10	n/a	n/a	1	51	5
1556.9406	1	21	n/a	n/a	1	51	0
1558.0738	1	10	n/a	n/a	1	51	1
1559.1738	1	10	n/a	n/a	1	51	2
1560.307	1	10	n/a	n/a	1	51	3
1561.4404	1	21	n/a	n/a	1	51	0
1562.607	1	10	n/a	n/a	1	51	1
1563.7068	1	10	n/a	n/a	1	51	2
1564.8568	1	10	n/a	n/a	1	51	3
1566.1568	1	10	n/a	n/a	1	51	4
1567.2592	1	81	n/a	n/a	1	0	0
1567.4592	1	81	n/a	n/a	1	0	0
1567.6592	1	81	n/a	n/a	1	0	0
1567.8592	1	81	n/a	n/a	1	0	0
1568.0592	1	81	n/a	n/a	1	0	0
1568.2592	1	81	n/a	n/a	1	0	0
1568.4592	1	81	n/a	n/a	1	0	0
1568.6592	1	81	n/a	n/a	1	0	0
1568.8592	1	81	n/a	n/a	1	0	0
1569.0592	1	81	n/a	n/a	1	0	0
1570.4064	1	10	n/a	n/a	1	51	1
1571.4898	1	10	n/a	n/a	1	51	2
1572.6896	1	10	n/a	n/a	1	51	3
1573.873	1	10	n/a	n/a	1	51	4
1575.0396	1	10	n/a	n/a	1	51	5
1576.1562	1	10	n/a	n/a	1	51	6
1577.3394	1	10	n/a	n/a	1	51	7
1578.5226	1	21	n/a	n/a	1	51	0
1579.5892	1	10	n/a	n/a	1	51	1
1580.6558	1	21	n/a	n/a	1	51	0
1581.6892	1	10	n/a	n/a	1	51	1
1582.8224	1	10	n/a	n/a	1	51	2
1584.139	1	10	n/a	n/a	1	51	3
1585.389	1	10	n/a	n/a	1	51	4
1586.4888	1	10	n/a	n/a	1	51	5
1587.5888	1	21	n/a	n/a	1	51	0
1588.8388	1	10	n/a	n/a	1	51	1
1590.172	1	10	n/a	n/a	1	51	2
1591.222	1	10	n/a	n/a	1	51	3
1592.4386	1	10	n/a	n/a	1	51	4
1593.341	1	81	n/a	n/a	1	0	0
1593.541	1	81	n/a	n/a	1	0	0
1593.741	1	81	n/a	n/a	1	0	0
1593.941	1	81	n/a	n/a	1	0	0
1594.141	1	81	n/a	n/a	1	0	0
1594.341	1	81	n/a	n/a	1	0	0
1594.541	1	81	n/a	n/a	1	0	0
1594.741	1	81	n/a	n/a	1	0	0
1594.941	1	81	n/a	n/a	1	0	0
1595.141	1	81	n/a	n/a	1	0	0
1596.2716	1	10	n/a	n/a	1	51	1
1597.4548	1	10	n/a	n/a	1	51	2
1598.6882	1	10	n/a	n/a	1	51	3
1599.8548	1	10	n/a	n/a	1	51	4
1601.1546	1	10	n/a	n/a	1	51	5
1602.388	1	10	n/a	n/a	1	51	6
1603.7046	1	10	n/a	n/a	1	51	7
1605.0212	1	21	n/a	n/a	1	51	0
1606.3376	1	10	n/a	n/a	1	51	1
1607.6542	1	21	n/a	n/a	1	51	0
1608.9042	1	10	n/a	n/a	1	51	1
1610.0042	1	10	n/a	n/a	1	51	2
1611.2208	1	10	n/a	n/a	1	51	3
1612.4374	1	21	n/a	n/a	1	51	0
1613.554	1	10	n/a	n/a	1	51	1
1614.6706	1	21	n/a	n/a	1	51	0
1615.7204	1	10	n/a	n/a	1	51	1
1616.837	1	10	n/a	n/a	1	51	2
1617.8704	1	10	n/a	n/a	1	51	3
1619.0536	1	10	n/a	n/a	1	51	4
1698.399	1	81	n/a	n/a	1	0	0
1698.599	1	81	n/a	n/a	1	0	0
1698.799	1	81	n/a	n/a	1	0	0
1698.999	1	81	n/a	n/a	1	0	0
1699.199	1	81	n/a	n/a	1	0	0
1699.399	1	81	n/a	n/a	1	0	0
1699.599	1	81	n/a	n/a	1	0	0
1699.799	1	81	n/a	n/a	1	0	0
1699.999	1	81	n/a	n/a	1	0	0
1700.199	1	81	n/a	n/a	1	0	0
1701.3488	1	10	n/a	n/a	1	51	1
1702.4988	1	10	n/a	n/a	1	51	2
1703.5986	1	10	n/a	n/a	1	51	3
1704.7486	1	10	n/a	n/a	1	51	4
1706.0652	1	10	n/a	n/a	1	51	5
1707.265	1	10	n/a	n/a	1	51	6
1708.565	1	10	n/a	n/a	1	51	7
1709.865	1	21	n/a	n/a	1	51	0
1710.9316	1	10	n/a	n/a	1	51	1
1712.1148	1	10	n/a	n/a	1	51	2
1713.3314	1	10	n/a	n/a	1	51	3
1714.548	1	21	n/a	n/a	1	51	0
1715.7812	1	10	n/a	n/a	1	51	1
1717.0146	1	21	n/a	n/a	1	51	0
1718.0978	1	10	n/a	n/a	1	51	1
1719.1644	1	10	n/a	n/a	1	51	2
1720.2144	1	10	n/a	n/a	1	51	3
1721.3476	1	10	n/a	n/a	1	51	4
1722.5476	1	10	n/a	n/a	1	51	5
1723.7474	1	21	n/a	n/a	1	51	0
1724.4702	1	81	n/a	n/a	1	0	0
1724.6702	1	81	n/a	n/a	1	0	0
1724.8702	1	81	n/a	n/a	1	0	0
1725.0702	1	81	n/a	n/a	1	0	0
1725.2702	1	81	n/a	n/a	1	0	0
1725.4702	1	81	n/a	n/a	1	0	0
1725.6702	1	81	n/a	n/a	1	0	0
1725.8702	1	81	n/a	n/a	1	0	0
1726.0702	1	81	n/a	n/a	1	0	0
1726.2702	1	81	n/a	n/a	1	0	0
1727.464	1	10	n/a	n/a	1	51	1
1728.5638	1	21	n/a	n/a	1	51	0
1729.7304	1	10	n/a	n/a	1	51	1
1730.7638	1	10	n/a	n/a	1	51	2
1731.8636	1	10	n/a	n/a	1	51	3
1733.0302	1	10	n/a	n/a	1	51	4
1734.2636	1	10	n/a	n/a	1	51	5
1735.3302	1	10	n/a	n/a	1	51	6
1736.6466	1	10	n/a	n/a	1	51	7
1737.9632	1	21	n/a	n/a	1	51	0
1739.1966	1	10	n/a	n/a	1	51	1
1740.3298	1	10	n/a	n/a	1	51	2
1741.4964	1	10	n/a	n/a	1	51	3
1742.663	1	21	n/a	n/a	1	51	0
1743.8796	1	10	n/a	n/a	1	51	1
1745.1962	1	10	n/a	n/a	1	51	2
1746.2794	1	10	n/a	n/a	1	51	3
1747.3794	1	10	n/a	n/a	1	51	4
1748.446	1	10	n/a	n/a	1	51	5
1749.5292	1	10	n/a	n/a	1	51	6
1750.4166	1	81	n/a	n/a	1	0	0
1750.6166	1	81	n/a	n/a	1	0	0
1750.8166	1	81	n/a	n/a	1	0	0
1751.0166	1	81	n/a	n/a	1	0	0
1751.2166	1	81	n/a	n/a	1	0	0
1751.4166	1	81	n/a	n/a	1	0	0
1751.6166	1	81	n/a	n/a	1	0	0
1751.8166	1	81	n/a	n/a	1	0	0
1752.0166	1	81	n/a	n/a	1	0	0
1752.2166	1	81	n/a	n/a	1	0	0
1753.5624	1	10	n/a	n/a	1	51	1
1754.879	1	10	n/a	n/a	1	51	2
1755.9956	1	10	n/a	n/a	1	51	3
1757.1788	1	10	n/a	n/a	1	51	4
1758.3288	1	10	n/a	n/a	1	51	5
1759.4786	1	21	n/a	n/a	1	51	0
1760.5952	1	10	n/a	n/a	1	51	1
1761.7452	1	10	n/a	n/a	1	51	2
1762.9784	1	10	n/a	n/a	1	51	3
1764.2118	1	10	n/a	n/a	1	51	4
1765.3784	1	10	n/a	n/a	1	51	5
1766.595	1	10	n/a	n/a	1	51	6
1767.6616	1	10	n/a	n/a	1	51	7
1768.7282	1	21	n/a	n/a	1	51	0
1769.7948	1	10	n/a	n/a	1	51	1
1770.828	1	10	n/a	n/a	1	51	2
1771.9446	1	10	n/a	n/a	1	51	3
1773.2112	1	10	n/a	n/a	1	51	4
1774.4778	1	10	n/a	n/a	1	51	5
1775.7444	1	21	n/a	n/a	1	51	0
1776.734	1	81	n/a	n/a	1	0	0
1776.934	1	81	n/a	n/a	1	0	0
1777.134	1	81	n/a	n/a	1	0	0
1777.334	1	81	n/a	n/a	1	0	0
1777.534	1	81	n/a	n/a	1	0	0
1777.734	1	81	n/a	n/a	1	0	0
1777.934	1	81	n/a	n/a	1	0	0
1778.134	1	81	n/a	n/a	1	0	0
1778.334	1	81	n/a	n/a	1	0	0
1778.534	1	81	n/a	n/a	1	0	0
1779.9442	1	10	n/a	n/a	1	51	1
1781.094	1	10	n/a	n/a	1	51	2
1782.3274	1	10	n/a	n/a	1	51	3
1783.5606	1	21	n/a	n/a	1	51	0
1784.7272	1	10	n/a	n/a	1	51	1
1785.8938	1	21	n/a	n/a	1	51	0
1787.1104	1	10	n/a	n/a	1	51	1
1788.327	1	21	n/a	n/a	1	51	0
1789.5936	1	10	n/a	n/a	1	51	1
1790.6602	1	10	n/a	n/a	1	51	2
1791.9434	1	10	n/a	n/a	1	51	3
1793.2268	1	21	n/a	n/a	1	51	0
1794.3766	1	10	n/a	n/a	1	51	1
1795.5266	1	21	n/a	n/a	1	51	0
1796.6766	1	10	n/a	n/a	1	51	1
1797.9764	1	10	n/a	n/a	1	51	2
1799.193	1	10	n/a	n/a	1	51	3
1800.4762	1	10	n/a	n/a	1	51	4
1801.6928	1	10	n/a	n/a	1	51	5
1802.9094	1	21	n/a	n/a	1	51	0
1803.642	1	81	n/a	n/a	1	0	0
1803.842	1	81	n/a	n/a	1	0	0
1804.042	1	81	n/a	n/a	1	0	0
1804.242	1	81	n/a	n/a	1	0	0
1804.442	1	81	n/a	n/a	1	0	0
1804.642	1	81	n/a	n/a	1	0	0
1804.842	1	81	n/a	n/a	1	0	0
1805.042	1	81	n/a	n/a	1	0	0
1805.242	1	81	n/a	n/a	1	0	0
1805.442	1	81	n/a	n/a	1	0	0
1806.8592	1	10	n/a	n/a	1	51	1
1808.0758	1	10	n/a	n/a	1	51	2
1809.1592	1	10	n/a	n/a	1	51	3
1810.3756	1	10	n/a	n/a	1	51	4
1811.5256	1	10	n/a	n/a	1	51	5
1812.5756	1	10	n/a	n/a	1	51	6
1813.6256	1	10	n/a	n/a	1	51	7
1814.6754	1	21	n/a	n/a	1	51	0
1815.8088	1	10	n/a	n/a	1	51	1
1816.892	1	10	n/a	n/a	1	51	2
1818.042	1	10	n/a	n/a	1	51	3
1819.1418	1	10	n/a	n/a	1	51	4
1820.4584	1	10	n/a	n/a	1	51	5
1821.5084	1	10	n/a	n/a	1	51	6
1822.825	1	10	n/a	n/a	1	51	7
1824.1416	1	21	n/a	n/a	1	51	0
1825.1914	1	10	n/a	n/a	1	51	1
1826.4914	1	10	n/a	n/a	1	51	2
1827.6914	1	10	n/a	n/a	1	51	3
1828.8912	1	21	n/a	n/a	1	51	0
1834.9104	1	81	n/a	n/a	1	0	0
1835.1102	1	81	n/a	n/a	1	0	0
1835.3102	1	81	n/a	n/a	1	0	0
1835.5102	1	81	n/a	n/a	1	0	0
1835.7102	1	81	n/a	n/a	1	0	0
1835.9104	1	81	n/a	n/a	1	0	0
1836.1104	1	81	n/a	n/a	1	0	0
1836.3104	1	81	n/a	n/a	1	0	0
1836.5104	1	81	n/a	n/a	1	0	0
1836.7104	1	81	n/a	n/a	1	0	0
1837.924	1	10	n/a	n/a	1	50	1
1839.074	1	10	n/a	n/a	1	50	2
1840.224	1	10	n/a	n/a	1	50	3
1841.3738	1	21	n/a	n/a	1	50	0
1842.6572	1	10	n/a	n/a	1	50	1
1843.7904	1	10	n/a	n/a	1	50	2
1844.9404	1	10	n/a	n/a	1	50	3
1846.107	1	10	n/a	n/a	1	50	4
1847.2236	1	10	n/a	n/a	1	50	5
1848.3402	1	21	n/a	n/a	1	50	0
1849.6568	1	10	n/a	n/a	1	50	1
1850.9734	1	10	n/a	n/a	1	50	2
1852.14	1	10	n/a	n/a	1	50	3
1853.3066	1	21	n/a	n/a	1	50	0
1854.5064	1	10	n/a	n/a	1	50	1
1855.723	1	21	n/a	n/a	1	50	0
1856.7564	1	10	n/a	n/a	1	50	1
1858.0562	1	10	n/a	n/a	1	50	2
1859.3394	1	10	n/a	n/a	1	50	3
1860.5228	1	10	n/a	n/a	1	50	4
1861.5772	1	81	n/a	n/a	1	0	0
1861.7772	1	81	n/a	n/a	1	0	0
1861.9772	1	81	n/a	n/a	1	0	0
1862.1772	1	81	n/a	n/a	1	0	0
1862.3772	1	81	n/a	n/a	1	0	0
1862.5772	1	81	n/a	n/a	1	0	0
1862.7772	1	81	n/a	n/a	1	0	0
1862.9772	1	81	n/a	n/a	1	0	0
1863.1772	1	81	n/a	n/a	1	0	0
1863.3772	1	81	n/a	n/a	1	0	0
1864.5726	1	10	n/a	n/a	1	50	1
1865.8058	1	10	n/a	n/a	1	50	2
1866.839	1	10	n/a	n/a	1	50	3
1867.8724	1	21	n/a	n/a	1	50	0
1868.989	1	10	n/a	n/a	1	50	1
1870.1056	1	21	n/a	n/a	1	50	0
1871.4222	1	10	n/a	n/a	1	50	1
1872.4554	1	10	n/a	n/a	1	50	2
1873.6054	1	10	n/a	n/a	1	50	3
1874.9052	1	10	n/a	n/a	1	50	4
1875.9386	1	10	n/a	n/a	1	50	5
1877.1884	1	10	n/a	n/a	1	50	6
1878.405	1	10	n/a	n/a	1	50	7
1879.6216	1	21	n/a	n/a	1	50	0
1880.8548	1	10	n/a	n/a	1	50	1
1882.0882	1	10	n/a	n/a	1	50	2
1883.338	1	10	n/a	n/a	1	50	3
1884.588	1	21	n/a	n/a	1	50	0
1885.7712	1	10	n/a	n/a	1	50	1
1886.8046	1	10	n/a	n/a	1	50	2
1887.849	1	81	n/a	n/a	1	0	0
1888.049	1	81	n/a	n/a	1	0	0
1888.249	1	81	n/a	n/a	1	0	0
1888.449	1	81	n/a	n/a	1	0	0
1888.649	1	81	n/a	n/a	1	0	0
1888.849	1	81	n/a	n/a	1	0	0
1889.049	1	81	n/a	n/a	1	0	0
1889.249	1	81	n/a	n/a	1	0	0
1889.449	1	81	n/a	n/a	1	0	0
1889.649	1	81	n/a	n/a	1	0	0
1890.9876	1	10	n/a	n/a	1	50	1
1892.2376	1	21	n/a	n/a	1	50	0
1893.3708	1	10	n/a	n/a	1	50	1
1894.604	1	10	n/a	n/a	1	50	2
1895.9206	1	10	n/a	n/a	1	50	3
1896.9706	1	10	n/a	n/a	1	50	4
1898.2372	1	10	n/a	n/a	1	50	5
1899.5038	1	21	n/a	n/a	1	50	0
1900.637	1	10	n/a	n/a	1	50	1
1901.7036	1	10	n/a	n/a	1	50	2
1902.9202	1	10	n/a	n/a	1	50	3
1904.0202	1	10	n/a	n/a	1	50	4
1905.2868	1	10	n/a	n/a	1	50	5
1906.42	1	10	n/a	n/a	1	50	6
1907.57	1	10	n/a	n/a	1	50	7
1908.72	1	21	n/a	n/a	1	50	0
1909.8198	1	10	n/a	n/a	1	50	1
1910.9532	1	10	n/a	n/a	1	50	2
1911.9864	1	10	n/a	n/a	1	50	3
1913.0196	1	21	n/a	n/a	1	50	0
1914.0444	1	81	n/a	n/a	1	0	0
1914.2444	1	81	n/a	n/a	1	0	0
1914.4444	1	81	n/a	n/a	1	0	0
1914.6444	1	81	n/a	n/a	1	0	0
1914.8444	1	81	n/a	n/a	1	0	0
1915.0444	1	81	n/a	n/a	1	0	0
1915.2444	1	81	n/a	n/a	1	0	0
1915.4444	1	81	n/a	n/a	1	0	0
1915.6444	1	81	n/a	n/a	1	0	0
1915.8444	1	81	n/a	n/a	1	0	0
1916.9694	1	10	n/a	n/a	1	50	1
1918.1026	1	10	n/a	n/a	1	50	2
1919.3526	1	10	n/a	n/a	1	50	3
1920.6026	1	10	n/a	n/a	1	50	4
1921.8192	1	10	n/a	n/a	1	50	5
1922.8858	1	10	n/a	n/a	1	50	6
1923.9524	1	10	n/a	n/a	1	50	7
1925.019	1	21	n/a	n/a	1	50	0
1926.1688	1	10	n/a	n/a	1	50	1
1927.2688	1	10	n/a	n/a	1	50	2
1928.4854	1	10	n/a	n/a	1	50	3
1929.702	1	21	n/a	n/a	1	50	0
1930.952	1	10	n/a	n/a	1	50	1
1932.2018	1	21	n/a	n/a	1	50	0
1933.3852	1	10	n/a	n/a	1	50	1
1934.5518	1	10	n/a	n/a	1	50	2
1935.8016	1	10	n/a	n/a	1	50	3
1936.835	1	10	n/a	n/a	1	50	4
1938.0348	1	10	n/a	n/a	1	50	5
1939.2348	1	21	n/a	n/a	1	50	0
1940.3464	1	81	n/a	n/a	1	0	0
1940.5464	1	81	n/a	n/a	1	0	0
1940.7464	1	81	n/a	n/a	1	0	0
1940.9464	1	81	n/a	n/a	1	0	0
1941.1464	1	81	n/a	n/a	1	0	0
1941.3464	1	81	n/a	n/a	1	0	0
1941.5464	1	81	n/a	n/a	1	0	0
1941.7464	1	81	n/a	n/a	1	0	0
1941.9464	1	81	n/a	n/a	1	0	0
1942.1464	1	81	n/a	n/a	1	0	0
1943.4512	1	10	n/a	n/a	1	50	1
1944.6344	1	10	n/a	n/a	1	50	2
1945.701	1	10	n/a	n/a	1	50	3
1946.8344	1	10	n/a	n/a	1	50	4
1947.9342	1	10	n/a	n/a	1	50	5
1949.0342	1	21	n/a	n/a	1	50	0
1950.1508	1	10	n/a	n/a	1	50	1
1951.2174	1	10	n/a	n/a	1	50	2
1952.2506	1	10	n/a	n/a	1	50	3
1953.534	1	10	n/a	n/a	1	50	4
1954.8172	1	10	n/a	n/a	1	50	5
1956.0338	1	10	n/a	n/a	1	50	6
1957.3504	1	10	n/a	n/a	1	50	7
1958.667	1	21	n/a	n/a	1	50	0
1959.8336	1	10	n/a	n/a	1	50	1
1961.0002	1	21	n/a	n/a	1	50	0
1962.1668	1	10	n/a	n/a	1	50	1
1963.3334	1	21	n/a	n/a	1	50	0
1964.4334	1	10	n/a	n/a	1	50	1
1965.6832	1	10	n/a	n/a	1	50	2
1996.1996	1	82	n/a	n/a	1	0	0
1996.3206	1	82	n/a	n/a	1	0	0
1996.7526	1	82	n/a	n/a	1	0	0
1996.9916	1	82	n/a	n/a	1	0	0
1997.1526	1	82	n/a	n/a	1	0	0
1997.1996	1	82	n/a	n/a	1	0	0
1997.5786	1	82	n/a	n/a	1	0	0
1997.6486	1	82	n/a	n/a	1	0	0
1997.6896	1	82	n/a	n/a	1	0	0
1997.8666	1	82	n/a	n/a	1	0	0
1999.148	1	10	n/a	n/a	1	52	1
2000.3312	1	10	n/a	n/a	1	52	2
2001.5644	1	10	n/a	n/a	1	52	3
2002.6144	1	10	n/a	n/a	1	52	4
2003.781	1	10	n/a	n/a	1	52	5
2004.9476	1	21	n/a	n/a	1	52	0
2006.0976	1	10	n/a	n/a	1	52	1
2007.4142	1	10	n/a	n/a	1	52	2
2008.6974	1	10	n/a	n/a	1	52	3
2009.8306	1	10	n/a	n/a	1	52	4
2011.064	1	10	n/a	n/a	1	52	5
2012.2972	1	21	n/a	n/a	1	52	0
2013.3804	1	10	n/a	n/a	1	52	1
2014.4638	1	21	n/a	n/a	1	52	0
2015.5304	1	10	n/a	n/a	1	52	1
2016.5636	1	10	n/a	n/a	1	52	2
2017.6802	1	10	n/a	n/a	1	52	3
2018.8634	1	10	n/a	n/a	1	52	4
2019.98	1	10	n/a	n/a	1	52	5
2021.0966	1	21	n/a	n/a	1	52	0
2021.9014	1	82	n/a	n/a	1	0	0
2022.1294	1	82	n/a	n/a	1	0	0
2022.2834	1	82	n/a	n/a	1	0	0
2022.4694	1	82	n/a	n/a	1	0	0
2022.8294	1	82	n/a	n/a	1	0	0
2022.9014	1	82	n/a	n/a	1	0	0
2023.0694	1	82	n/a	n/a	1	0	0
2023.2904	1	82	n/a	n/a	1	0	0
2023.6014	1	82	n/a	n/a	1	0	0
2023.6594	1	82	n/a	n/a	1	0	0
2025.0298	1	10	n/a	n/a	1	52	1
2026.263	1	21	n/a	n/a	1	52	0
2027.4962	1	10	n/a	n/a	1	52	1
2028.7296	1	10	n/a	n/a	1	52	2
2029.8628	1	10	n/a	n/a	1	52	3
2030.896	1	10	n/a	n/a	1	52	4
2032.0126	1	10	n/a	n/a	1	52	5
2033.0626	1	10	n/a	n/a	1	52	6
2034.1292	1	10	n/a	n/a	1	52	7
2035.1958	1	21	n/a	n/a	1	52	0
2036.3958	1	10	n/a	n/a	1	52	1
2037.6624	1	10	n/a	n/a	1	52	2
2038.879	1	10	n/a	n/a	1	52	3
2040.0956	1	21	n/a	n/a	1	52	0
2041.1954	1	10	n/a	n/a	1	52	1
2042.2954	1	21	n/a	n/a	1	52	0
2043.3954	1	10	n/a	n/a	1	52	1
2044.6286	1	10	n/a	n/a	1	52	2
2045.8618	1	10	n/a	n/a	1	52	3
2047.0952	1	21	n/a	n/a	1	52	0
2048.1906	1	82	n/a	n/a	1	0	0
2048.3096	1	82	n/a	n/a	1	0	0
2048.4596	1	82	n/a	n/a	1	0	0
2048.5306	1	82	n/a	n/a	1	0	0
2048.9356	1	82	n/a	n/a	1	0	0
2049.1906	1	82	n/a	n/a	1	0	0
2049.4576	1	82	n/a	n/a	1	0	0
2049.7906	1	82	n/a	n/a	1	0	0
2049.9056	1	82	n/a	n/a	1	0	0
2050.0606	1	82	n/a	n/a	1	0	0
2051.2948	1	10	n/a	n/a	1	52	1
2052.5948	1	10	n/a	n/a	1	52	2
2053.628	1	10	n/a	n/a	1	52	3
2054.8114	1	10	n/a	n/a	1	52	4
2056.0612	1	10	n/a	n/a	1	52	5
2057.1112	1	10	n/a	n/a	1	52	6
2058.1612	1	10	n/a	n/a	1	52	7
2059.211	1	21	n/a	n/a	1	52	0
2060.5276	1	10	n/a	n/a	1	52	1
2061.7776	1	10	n/a	n/a	1	52	2
2063.0776	1	10	n/a	n/a	1	52	3
2064.3774	1	21	n/a	n/a	1	52	0
2065.644	1	10	n/a	n/a	1	52	1
2066.8272	1	10	n/a	n/a	1	52	2
2068.0272	1	10	n/a	n/a	1	52	3
2069.2272	1	21	n/a	n/a	1	52	0
2070.3104	1	10	n/a	n/a	1	52	1
2071.3604	1	10	n/a	n/a	1	52	2
2072.627	1	10	n/a	n/a	1	52	3
2073.8936	1	21	n/a	n/a	1	52	0
2074.6342	1	82	n/a	n/a	1	0	0
2075.0252	1	82	n/a	n/a	1	0	0
2075.1112	1	82	n/a	n/a	1	0	0
2075.1732	1	82	n/a	n/a	1	0	0
2075.3012	1	82	n/a	n/a	1	0	0
2075.6342	1	82	n/a	n/a	1	0	0
2075.7902	1	82	n/a	n/a	1	0	0
2076.1012	1	82	n/a	n/a	1	0	0
2076.3672	1	82	n/a	n/a	1	0	0
2076.4302	1	82	n/a	n/a	1	0	0
2077.6266	1	10	n/a	n/a	1	52	1
2078.8266	1	10	n/a	n/a	1	52	2
2079.9932	1	10	n/a	n/a	1	52	3
2081.3098	1	10	n/a	n/a	1	52	4
2082.4264	1	10	n/a	n/a	1	52	5
2083.5764	1	10	n/a	n/a	1	52	6
2084.6762	1	10	n/a	n/a	1	52	7
2085.7762	1	21	n/a	n/a	1	52	0
2087.0928	1	10	n/a	n/a	1	52	1
2088.276	1	10	n/a	n/a	1	52	2
2089.326	1	10	n/a	n/a	1	52	3
2090.376	1	21	n/a	n/a	1	52	0
2091.6426	1	10	n/a	n/a	1	52	1
2092.9092	1	21	n/a	n/a	1	52	0
2094.0924	1	10	n/a	n/a	1	52	1
2095.1922	1	10	n/a	n/a	1	52	2
2096.4088	1	10	n/a	n/a	1	52	3
2097.5422	1	10	n/a	n/a	1	52	4
2098.7588	1	10	n/a	n/a	1	52	5
2099.9754	1	21	n/a	n/a	1	52	0
2101.0738	1	82	n/a	n/a	1	0	0
2101.1988	1	82	n/a	n/a	1	0	0
2101.4638	1	82	n/a	n/a	1	0	0
2101.6208	1	82	n/a	n/a	1	0	0
2102.0328	1	82	n/a	n/a	1	0	0
2102.0738	1	82	n/a	n/a	1	0	0
2102.1448	1	82	n/a	n/a	1	0	0
2102.1738	1	82	n/a	n/a	1	0	0
2102.3578	1	82	n/a	n/a	1	0	0
2102.7568	1	82	n/a	n/a	1	0	0
2104.1752	1	10	n/a	n/a	1	52	1
2105.2584	1	10	n/a	n/a	1	52	2
2106.3916	1	10	n/a	n/a	1	52	3
2107.6582	1	10	n/a	n/a	1	52	4
2108.8082	1	10	n/a	n/a	1	52	5
2109.9248	1	10	n/a	n/a	1	52	6
2111.0914	1	10	n/a	n/a	1	52	7
2112.258	1	21	n/a	n/a	1	52	0
2113.5578	1	10	n/a	n/a	1	52	1
2114.7412	1	10	n/a	n/a	1	52	2
2115.991	1	10	n/a	n/a	1	52	3
2117.241	1	21	n/a	n/a	1	52	0
2118.5076	1	10	n/a	n/a	1	52	1
2119.6408	1	10	n/a	n/a	1	52	2
2120.6908	1	10	n/a	n/a	1	52	3
2121.9908	1	10	n/a	n/a	1	52	4
2123.274	1	10	n/a	n/a	1	52	5
2124.4072	1	10	n/a	n/a	1	52	6
2125.4738	1	10	n/a	n/a	1	52	7
2126.5404	1	21	n/a	n/a	1	52	0
