onset	duration	value	response	rt	good	TMS	seq
146.5172	1	81	n/a	n/a	1	0	0
146.7172	1	81	n/a	n/a	1	0	0
146.9172	1	81	n/a	n/a	1	0	0
147.1172	1	81	n/a	n/a	1	0	0
147.3172	1	81	n/a	n/a	1	0	0
147.5172	1	81	n/a	n/a	1	0	0
147.7172	1	81	n/a	n/a	1	0	0
147.9172	1	81	n/a	n/a	1	0	0
148.1172	1	81	n/a	n/a	1	0	0
148.3172	1	81	n/a	n/a	1	0	0
149.4878	1	10	n/a	n/a	1	51	1
150.571	1	21	n/a	n/a	1	51	0
151.621	1	10	n/a	n/a	1	51	1
152.7876	1	10	n/a	n/a	1	51	2
153.9042	1	10	n/a	n/a	1	51	3
155.0208	1	21	n/a	n/a	1	51	0
156.054	1	10	n/a	n/a	1	51	1
157.304	1	10	n/a	n/a	1	51	2
158.4372	1	10	n/a	n/a	1	51	3
159.6204	1	10	n/a	n/a	1	51	4
160.7704	1	10	n/a	n/a	1	51	5
161.9204	1	21	n/a	n/a	1	51	0
163.2202	1	10	n/a	n/a	1	51	1
164.4034	1	10	n/a	n/a	1	51	2
165.5534	1	10	n/a	n/a	1	51	3
166.8534	1	10	n/a	n/a	1	51	4
168.02	1	10	n/a	n/a	1	51	5
169.1866	1	21	n/a	n/a	1	51	0
170.2864	1	10	n/a	n/a	1	51	1
171.3364	1	10	n/a	n/a	1	51	2
172.1948	1	81	n/a	n/a	1	0	0
172.3948	1	81	n/a	n/a	1	0	0
172.5948	1	81	n/a	n/a	1	0	0
172.7948	1	81	n/a	n/a	1	0	0
172.9948	1	81	n/a	n/a	1	0	0
173.1948	1	81	n/a	n/a	1	0	0
173.3948	1	81	n/a	n/a	1	0	0
173.5948	1	81	n/a	n/a	1	0	0
173.7948	1	81	n/a	n/a	1	0	0
173.9948	1	81	n/a	n/a	1	0	0
175.2028	1	10	n/a	n/a	1	51	1
176.4528	1	10	n/a	n/a	1	51	2
177.5528	1	10	n/a	n/a	1	51	3
178.7026	1	10	n/a	n/a	1	51	4
179.936	1	10	n/a	n/a	1	51	5
181.0526	1	10	n/a	n/a	1	51	6
182.2024	1	10	n/a	n/a	1	51	7
183.3524	1	21	n/a	n/a	1	51	0
184.569	1	10	n/a	n/a	1	51	1
185.8522	1	10	n/a	n/a	1	51	2
187.1522	1	10	n/a	n/a	1	51	3
188.4354	1	10	n/a	n/a	1	51	4
189.752	1	10	n/a	n/a	1	51	5
191.002	1	10	n/a	n/a	1	51	6
192.2852	1	10	n/a	n/a	1	51	7
193.5684	1	21	n/a	n/a	1	51	0
194.8518	1	10	n/a	n/a	1	51	1
196.135	1	21	n/a	n/a	1	51	0
197.3516	1	10	n/a	n/a	1	51	1
198.5682	1	21	n/a	n/a	1	51	0
199.4828	1	81	n/a	n/a	1	0	0
199.6828	1	81	n/a	n/a	1	0	0
199.8828	1	81	n/a	n/a	1	0	0
200.0828	1	81	n/a	n/a	1	0	0
200.2828	1	81	n/a	n/a	1	0	0
200.4828	1	81	n/a	n/a	1	0	0
200.6828	1	81	n/a	n/a	1	0	0
200.8828	1	81	n/a	n/a	1	0	0
201.0828	1	81	n/a	n/a	1	0	0
201.2828	1	81	n/a	n/a	1	0	0
202.518	1	10	n/a	n/a	1	51	1
203.6678	1	10	n/a	n/a	1	51	2
204.8512	1	10	n/a	n/a	1	51	3
206.101	1	10	n/a	n/a	1	51	4
207.251	1	10	n/a	n/a	1	51	5
208.4008	1	21	n/a	n/a	1	51	0
209.6008	1	10	n/a	n/a	1	51	1
210.7674	1	10	n/a	n/a	1	51	2
211.9674	1	10	n/a	n/a	1	51	3
213.184	1	10	n/a	n/a	1	51	4
214.4506	1	10	n/a	n/a	1	51	5
215.6172	1	10	n/a	n/a	1	51	6
216.8504	1	10	n/a	n/a	1	51	7
218.0836	1	21	n/a	n/a	1	51	0
219.117	1	10	n/a	n/a	1	51	1
220.1502	1	21	n/a	n/a	1	51	0
221.3502	1	10	n/a	n/a	1	51	1
222.6	1	10	n/a	n/a	1	51	2
223.7834	1	10	n/a	n/a	1	51	3
224.9666	1	21	n/a	n/a	1	51	0
225.9342	1	81	n/a	n/a	1	0	0
226.1342	1	81	n/a	n/a	1	0	0
226.3342	1	81	n/a	n/a	1	0	0
226.5342	1	81	n/a	n/a	1	0	0
226.7342	1	81	n/a	n/a	1	0	0
226.9342	1	81	n/a	n/a	1	0	0
227.1342	1	81	n/a	n/a	1	0	0
227.3342	1	81	n/a	n/a	1	0	0
227.5342	1	81	n/a	n/a	1	0	0
227.7342	1	81	n/a	n/a	1	0	0
228.883	1	10	n/a	n/a	1	51	1
230.1996	1	10	n/a	n/a	1	51	2
231.3162	1	10	n/a	n/a	1	51	3
232.4328	1	21	n/a	n/a	1	51	0
233.5828	1	10	n/a	n/a	1	51	1
234.616	1	10	n/a	n/a	1	51	2
235.7992	1	10	n/a	n/a	1	51	3
236.9158	1	10	n/a	n/a	1	51	4
238.0324	1	10	n/a	n/a	1	51	5
239.149	1	21	n/a	n/a	1	51	0
240.349	1	10	n/a	n/a	1	51	1
241.4822	1	10	n/a	n/a	1	51	2
242.7488	1	10	n/a	n/a	1	51	3
243.9322	1	10	n/a	n/a	1	51	4
245.132	1	10	n/a	n/a	1	51	5
246.332	1	21	n/a	n/a	1	51	0
247.4486	1	10	n/a	n/a	1	51	1
248.7652	1	10	n/a	n/a	1	51	2
249.9484	1	10	n/a	n/a	1	51	3
251.1984	1	10	n/a	n/a	1	51	4
252.1078	1	81	n/a	n/a	1	0	0
252.3078	1	81	n/a	n/a	1	0	0
252.5078	1	81	n/a	n/a	1	0	0
252.7078	1	81	n/a	n/a	1	0	0
252.9078	1	81	n/a	n/a	1	0	0
253.1078	1	81	n/a	n/a	1	0	0
253.3078	1	81	n/a	n/a	1	0	0
253.5078	1	81	n/a	n/a	1	0	0
253.7078	1	81	n/a	n/a	1	0	0
253.9078	1	81	n/a	n/a	1	0	0
255.1982	1	10	n/a	n/a	1	51	1
256.398	1	10	n/a	n/a	1	51	2
257.4314	1	10	n/a	n/a	1	51	3
258.4812	1	10	n/a	n/a	1	51	4
259.5978	1	10	n/a	n/a	1	51	5
260.6978	1	10	n/a	n/a	1	51	6
261.831	1	10	n/a	n/a	1	51	7
262.9644	1	21	n/a	n/a	1	51	0
264.1476	1	10	n/a	n/a	1	51	1
265.2308	1	10	n/a	n/a	1	51	2
266.2974	1	10	n/a	n/a	1	51	3
267.364	1	21	n/a	n/a	1	51	0
268.5806	1	10	n/a	n/a	1	51	1
269.7972	1	21	n/a	n/a	1	51	0
270.8638	1	10	n/a	n/a	1	51	1
272.0304	1	10	n/a	n/a	1	51	2
273.147	1	10	n/a	n/a	1	51	3
274.1804	1	10	n/a	n/a	1	51	4
275.2636	1	10	n/a	n/a	1	51	5
276.3468	1	21	n/a	n/a	1	51	0
287.1986	1	81	n/a	n/a	1	0	0
287.3986	1	81	n/a	n/a	1	0	0
287.5986	1	81	n/a	n/a	1	0	0
287.7986	1	81	n/a	n/a	1	0	0
287.9986	1	81	n/a	n/a	1	0	0
288.1986	1	81	n/a	n/a	1	0	0
288.3986	1	81	n/a	n/a	1	0	0
288.5986	1	81	n/a	n/a	1	0	0
288.7986	1	81	n/a	n/a	1	0	0
288.9986	1	81	n/a	n/a	1	0	0
290.296	1	10	n/a	n/a	1	50	1
291.3626	1	10	n/a	n/a	1	50	2
292.546	1	10	n/a	n/a	1	50	3
293.6792	1	10	n/a	n/a	1	50	4
294.9624	1	10	n/a	n/a	1	50	5
296.0624	1	10	n/a	n/a	1	50	6
297.129	1	10	n/a	n/a	1	50	7
298.1956	1	21	n/a	n/a	1	50	0
299.2622	1	10	n/a	n/a	1	50	1
300.3288	1	21	n/a	n/a	1	50	0
301.6288	1	10	n/a	n/a	1	50	1
302.9286	1	10	n/a	n/a	1	50	2
304.0286	1	10	n/a	n/a	1	50	3
305.1786	1	10	n/a	n/a	1	50	4
306.2284	1	10	n/a	n/a	1	50	5
307.295	1	10	n/a	n/a	1	50	6
308.4616	1	10	n/a	n/a	1	50	7
309.6282	1	21	n/a	n/a	1	50	0
310.9116	1	10	n/a	n/a	1	50	1
312.1114	1	10	n/a	n/a	1	50	2
312.873	1	81	n/a	n/a	1	0	0
313.073	1	81	n/a	n/a	1	0	0
313.273	1	81	n/a	n/a	1	0	0
313.473	1	81	n/a	n/a	1	0	0
313.673	1	81	n/a	n/a	1	0	0
313.873	1	81	n/a	n/a	1	0	0
314.073	1	81	n/a	n/a	1	0	0
314.273	1	81	n/a	n/a	1	0	0
314.473	1	81	n/a	n/a	1	0	0
314.673	1	81	n/a	n/a	1	0	0
315.8946	1	10	n/a	n/a	1	50	1
317.0112	1	10	n/a	n/a	1	50	2
318.1444	1	10	n/a	n/a	1	50	3
319.2778	1	21	n/a	n/a	1	50	0
320.3776	1	10	n/a	n/a	1	50	1
321.4776	1	21	n/a	n/a	1	50	0
322.6274	1	10	n/a	n/a	1	50	1
323.7608	1	10	n/a	n/a	1	50	2
324.844	1	10	n/a	n/a	1	50	3
325.9274	1	21	n/a	n/a	1	50	0
326.9772	1	10	n/a	n/a	1	50	1
328.2106	1	10	n/a	n/a	1	50	2
329.3772	1	10	n/a	n/a	1	50	3
330.6104	1	10	n/a	n/a	1	50	4
331.727	1	10	n/a	n/a	1	50	5
332.8436	1	21	n/a	n/a	1	50	0
334.0268	1	10	n/a	n/a	1	50	1
335.11	1	10	n/a	n/a	1	50	2
336.4266	1	10	n/a	n/a	1	50	3
337.51	1	10	n/a	n/a	1	50	4
338.5534	1	81	n/a	n/a	1	0	0
338.7534	1	81	n/a	n/a	1	0	0
338.9534	1	81	n/a	n/a	1	0	0
339.1534	1	81	n/a	n/a	1	0	0
339.3534	1	81	n/a	n/a	1	0	0
339.5534	1	81	n/a	n/a	1	0	0
339.7534	1	81	n/a	n/a	1	0	0
339.9534	1	81	n/a	n/a	1	0	0
340.1534	1	81	n/a	n/a	1	0	0
340.3534	1	81	n/a	n/a	1	0	0
341.6598	1	10	n/a	n/a	1	50	1
342.9596	1	10	n/a	n/a	1	50	2
344.2262	1	10	n/a	n/a	1	50	3
345.4928	1	21	n/a	n/a	1	50	0
346.7594	1	10	n/a	n/a	1	50	1
348.0594	1	10	n/a	n/a	1	50	2
349.3092	1	10	n/a	n/a	1	50	3
350.4758	1	10	n/a	n/a	1	50	4
351.5424	1	10	n/a	n/a	1	50	5
352.609	1	21	n/a	n/a	1	50	0
353.759	1	10	n/a	n/a	1	50	1
355.0422	1	10	n/a	n/a	1	50	2
356.1588	1	10	n/a	n/a	1	50	3
357.2754	1	10	n/a	n/a	1	50	4
358.4088	1	10	n/a	n/a	1	50	5
359.542	1	21	n/a	n/a	1	50	0
360.6586	1	10	n/a	n/a	1	50	1
361.7252	1	10	n/a	n/a	1	50	2
362.9418	1	10	n/a	n/a	1	50	3
364.1584	1	21	n/a	n/a	1	50	0
365.074	1	81	n/a	n/a	1	0	0
365.274	1	81	n/a	n/a	1	0	0
365.474	1	81	n/a	n/a	1	0	0
365.674	1	81	n/a	n/a	1	0	0
365.874	1	81	n/a	n/a	1	0	0
366.074	1	81	n/a	n/a	1	0	0
366.274	1	81	n/a	n/a	1	0	0
366.474	1	81	n/a	n/a	1	0	0
366.674	1	81	n/a	n/a	1	0	0
366.874	1	81	n/a	n/a	1	0	0
368.0748	1	10	n/a	n/a	1	50	1
369.2248	1	10	n/a	n/a	1	50	2
370.4414	1	10	n/a	n/a	1	50	3
371.6912	1	10	n/a	n/a	1	50	4
372.7746	1	10	n/a	n/a	1	50	5
373.8578	1	21	n/a	n/a	1	50	0
374.9744	1	10	n/a	n/a	1	50	1
376.1244	1	10	n/a	n/a	1	50	2
377.4076	1	10	n/a	n/a	1	50	3
378.6908	1	21	n/a	n/a	1	50	0
379.8574	1	10	n/a	n/a	1	50	1
381.0074	1	10	n/a	n/a	1	50	2
382.0906	1	10	n/a	n/a	1	50	3
383.2572	1	10	n/a	n/a	1	50	4
384.4406	1	10	n/a	n/a	1	50	5
385.6238	1	21	n/a	n/a	1	50	0
386.6738	1	10	n/a	n/a	1	50	1
387.8736	1	10	n/a	n/a	1	50	2
388.9402	1	10	n/a	n/a	1	50	3
390.0068	1	21	n/a	n/a	1	50	0
390.9548	1	81	n/a	n/a	1	0	0
391.1548	1	81	n/a	n/a	1	0	0
391.3548	1	81	n/a	n/a	1	0	0
391.5548	1	81	n/a	n/a	1	0	0
391.7548	1	81	n/a	n/a	1	0	0
391.9548	1	81	n/a	n/a	1	0	0
392.1548	1	81	n/a	n/a	1	0	0
392.3548	1	81	n/a	n/a	1	0	0
392.5548	1	81	n/a	n/a	1	0	0
392.7548	1	81	n/a	n/a	1	0	0
394.0232	1	10	n/a	n/a	1	50	1
395.1232	1	10	n/a	n/a	1	50	2
396.3898	1	10	n/a	n/a	1	50	3
397.6898	1	10	n/a	n/a	1	50	4
398.923	1	10	n/a	n/a	1	50	5
400.023	1	10	n/a	n/a	1	50	6
401.0728	1	10	n/a	n/a	1	50	7
402.1228	1	21	n/a	n/a	1	50	0
403.356	1	10	n/a	n/a	1	50	1
404.4726	1	10	n/a	n/a	1	50	2
405.656	1	10	n/a	n/a	1	50	3
406.8392	1	21	n/a	n/a	1	50	0
408.1224	1	10	n/a	n/a	1	50	1
409.1724	1	10	n/a	n/a	1	50	2
410.4724	1	10	n/a	n/a	1	50	3
411.7722	1	21	n/a	n/a	1	50	0
412.9222	1	10	n/a	n/a	1	50	1
414.1888	1	10	n/a	n/a	1	50	2
415.3554	1	10	n/a	n/a	1	50	3
416.3886	1	10	n/a	n/a	1	50	4
442.9772	1	82	n/a	n/a	1	0	0
443.2472	1	82	n/a	n/a	1	0	0
443.6822	1	82	n/a	n/a	1	0	0
443.8202	1	82	n/a	n/a	1	0	0
443.8582	1	82	n/a	n/a	1	0	0
443.9772	1	82	n/a	n/a	1	0	0
444.0562	1	82	n/a	n/a	1	0	0
444.2022	1	82	n/a	n/a	1	0	0
444.4322	1	82	n/a	n/a	1	0	0
444.6972	1	82	n/a	n/a	1	0	0
445.9202	1	10	n/a	n/a	1	52	1
447.1536	1	10	n/a	n/a	1	52	2
448.3702	1	10	n/a	n/a	1	52	3
449.5868	1	21	n/a	n/a	1	52	0
450.6866	1	10	n/a	n/a	1	52	1
451.7866	1	21	n/a	n/a	1	52	0
452.9198	1	10	n/a	n/a	1	52	1
454.203	1	10	n/a	n/a	1	52	2
455.503	1	10	n/a	n/a	1	52	3
456.5696	1	10	n/a	n/a	1	52	4
457.7696	1	10	n/a	n/a	1	52	5
458.9694	1	21	n/a	n/a	1	52	0
460.0694	1	10	n/a	n/a	1	52	1
461.1694	1	21	n/a	n/a	1	52	0
462.4692	1	10	n/a	n/a	1	52	1
463.7026	1	10	n/a	n/a	1	52	2
464.7858	1	10	n/a	n/a	1	52	3
465.9858	1	10	n/a	n/a	1	52	4
467.1024	1	10	n/a	n/a	1	52	5
468.219	1	21	n/a	n/a	1	52	0
469.0394	1	82	n/a	n/a	1	0	0
469.0894	1	82	n/a	n/a	1	0	0
469.2584	1	82	n/a	n/a	1	0	0
469.2844	1	82	n/a	n/a	1	0	0
469.6134	1	82	n/a	n/a	1	0	0
470.0394	1	82	n/a	n/a	1	0	0
470.1274	1	82	n/a	n/a	1	0	0
470.5234	1	82	n/a	n/a	1	0	0
470.9614	1	82	n/a	n/a	1	0	0
470.9974	1	82	n/a	n/a	1	0	0
472.052	1	10	n/a	n/a	1	52	1
473.1686	1	21	n/a	n/a	1	52	0
474.4352	1	10	n/a	n/a	1	52	1
475.6186	1	10	n/a	n/a	1	52	2
476.7852	1	10	n/a	n/a	1	52	3
477.9184	1	10	n/a	n/a	1	52	4
479.235	1	10	n/a	n/a	1	52	5
480.5516	1	21	n/a	n/a	1	52	0
481.8682	1	10	n/a	n/a	1	52	1
483.1514	1	10	n/a	n/a	1	52	2
484.2514	1	10	n/a	n/a	1	52	3
485.418	1	10	n/a	n/a	1	52	4
486.7012	1	10	n/a	n/a	1	52	5
487.8012	1	10	n/a	n/a	1	52	6
488.9678	1	10	n/a	n/a	1	52	7
490.1344	1	21	n/a	n/a	1	52	0
491.3842	1	10	n/a	n/a	1	52	1
492.5008	1	10	n/a	n/a	1	52	2
493.8008	1	10	n/a	n/a	1	52	3
495.134	1	10	n/a	n/a	1	52	4
495.9864	1	82	n/a	n/a	1	0	0
496.0914	1	82	n/a	n/a	1	0	0
496.2544	1	82	n/a	n/a	1	0	0
496.5854	1	82	n/a	n/a	1	0	0
496.6294	1	82	n/a	n/a	1	0	0
496.9864	1	82	n/a	n/a	1	0	0
497.0524	1	82	n/a	n/a	1	0	0
497.4114	1	82	n/a	n/a	1	0	0
497.5204	1	82	n/a	n/a	1	0	0
497.7654	1	82	n/a	n/a	1	0	0
499.1004	1	10	n/a	n/a	1	52	1
500.317	1	21	n/a	n/a	1	52	0
501.6336	1	10	n/a	n/a	1	52	1
502.8836	1	10	n/a	n/a	1	52	2
504.1502	1	10	n/a	n/a	1	52	3
505.3168	1	10	n/a	n/a	1	52	4
506.35	1	10	n/a	n/a	1	52	5
507.3834	1	21	n/a	n/a	1	52	0
508.6666	1	10	n/a	n/a	1	52	1
509.7832	1	10	n/a	n/a	1	52	2
510.8832	1	10	n/a	n/a	1	52	3
512.183	1	10	n/a	n/a	1	52	4
513.4496	1	10	n/a	n/a	1	52	5
514.7162	1	21	n/a	n/a	1	52	0
515.8662	1	10	n/a	n/a	1	52	1
517.1328	1	10	n/a	n/a	1	52	2
518.2994	1	10	n/a	n/a	1	52	3
519.5326	1	10	n/a	n/a	1	52	4
520.8158	1	10	n/a	n/a	1	52	5
521.9324	1	10	n/a	n/a	1	52	6
522.972	1	82	n/a	n/a	1	0	0
523.096	1	82	n/a	n/a	1	0	0
523.525	1	82	n/a	n/a	1	0	0
523.771	1	82	n/a	n/a	1	0	0
523.924	1	82	n/a	n/a	1	0	0
523.972	1	82	n/a	n/a	1	0	0
524.093	1	82	n/a	n/a	1	0	0
524.127	1	82	n/a	n/a	1	0	0
524.528	1	82	n/a	n/a	1	0	0
524.802	1	82	n/a	n/a	1	0	0
526.0322	1	10	n/a	n/a	1	52	1
527.1988	1	21	n/a	n/a	1	52	0
528.482	1	10	n/a	n/a	1	52	1
529.7654	1	21	n/a	n/a	1	52	0
531.032	1	10	n/a	n/a	1	52	1
532.2818	1	10	n/a	n/a	1	52	2
533.5152	1	10	n/a	n/a	1	52	3
534.7484	1	21	n/a	n/a	1	52	0
535.7984	1	10	n/a	n/a	1	52	1
536.8482	1	21	n/a	n/a	1	52	0
537.9148	1	10	n/a	n/a	1	52	1
539.1148	1	10	n/a	n/a	1	52	2
540.398	1	10	n/a	n/a	1	52	3
541.6812	1	21	n/a	n/a	1	52	0
542.7312	1	10	n/a	n/a	1	52	1
544.0144	1	10	n/a	n/a	1	52	2
545.0478	1	10	n/a	n/a	1	52	3
546.1644	1	10	n/a	n/a	1	52	4
547.381	1	10	n/a	n/a	1	52	5
548.6142	1	10	n/a	n/a	1	52	6
549.6106	1	82	n/a	n/a	1	0	0
549.8916	1	82	n/a	n/a	1	0	0
550.2946	1	82	n/a	n/a	1	0	0
550.3196	1	82	n/a	n/a	1	0	0
550.4466	1	82	n/a	n/a	1	0	0
550.6108	1	82	n/a	n/a	1	0	0
551.0116	1	82	n/a	n/a	1	0	0
551.0996	1	82	n/a	n/a	1	0	0
551.3326	1	82	n/a	n/a	1	0	0
551.3536	1	82	n/a	n/a	1	0	0
552.7474	1	10	n/a	n/a	1	52	1
553.9972	1	21	n/a	n/a	1	52	0
555.1472	1	10	n/a	n/a	1	52	1
556.3972	1	10	n/a	n/a	1	52	2
557.4304	1	10	n/a	n/a	1	52	3
558.6802	1	10	n/a	n/a	1	52	4
559.747	1	10	n/a	n/a	1	52	5
560.8136	1	21	n/a	n/a	1	52	0
562.13	1	10	n/a	n/a	1	52	1
563.18	1	10	n/a	n/a	1	52	2
564.43	1	10	n/a	n/a	1	52	3
565.6798	1	21	n/a	n/a	1	52	0
566.8798	1	10	n/a	n/a	1	52	1
568.163	1	10	n/a	n/a	1	52	2
569.4796	1	10	n/a	n/a	1	52	3
570.7962	1	21	n/a	n/a	1	52	0
572.0296	1	10	n/a	n/a	1	52	1
573.1128	1	10	n/a	n/a	1	52	2
574.3628	1	10	n/a	n/a	1	52	3
575.6126	1	21	n/a	n/a	1	52	0
707.257	1	81	n/a	n/a	1	0	0
707.457	1	81	n/a	n/a	1	0	0
707.657	1	81	n/a	n/a	1	0	0
707.857	1	81	n/a	n/a	1	0	0
708.057	1	81	n/a	n/a	1	0	0
708.257	1	81	n/a	n/a	1	0	0
708.457	1	81	n/a	n/a	1	0	0
708.657	1	81	n/a	n/a	1	0	0
708.857	1	81	n/a	n/a	1	0	0
709.057	1	81	n/a	n/a	1	0	0
710.438	1	10	n/a	n/a	1	51	1
711.738	1	10	n/a	n/a	1	51	2
712.9546	1	10	n/a	n/a	1	51	3
714.2046	1	10	n/a	n/a	1	51	4
715.3544	1	10	n/a	n/a	1	51	5
716.4044	1	10	n/a	n/a	1	51	6
717.621	1	10	n/a	n/a	1	51	7
718.8376	1	21	n/a	n/a	1	51	0
720.1542	1	10	n/a	n/a	1	51	1
721.3374	1	10	n/a	n/a	1	51	2
722.6206	1	10	n/a	n/a	1	51	3
723.904	1	21	n/a	n/a	1	51	0
725.0538	1	10	n/a	n/a	1	51	1
726.2038	1	21	n/a	n/a	1	51	0
727.2704	1	10	n/a	n/a	1	51	1
728.337	1	21	n/a	n/a	1	51	0
729.487	1	10	n/a	n/a	1	51	1
730.7202	1	10	n/a	n/a	1	51	2
731.9368	1	10	n/a	n/a	1	51	3
733.17	1	10	n/a	n/a	1	51	4
733.9624	1	81	n/a	n/a	1	0	0
734.1624	1	81	n/a	n/a	1	0	0
734.3624	1	81	n/a	n/a	1	0	0
734.5624	1	81	n/a	n/a	1	0	0
734.7624	1	81	n/a	n/a	1	0	0
734.9624	1	81	n/a	n/a	1	0	0
735.1624	1	81	n/a	n/a	1	0	0
735.3624	1	81	n/a	n/a	1	0	0
735.5624	1	81	n/a	n/a	1	0	0
735.7624	1	81	n/a	n/a	1	0	0
737.0032	1	10	n/a	n/a	1	51	1
738.1532	1	21	n/a	n/a	1	51	0
739.2698	1	10	n/a	n/a	1	51	1
740.3864	1	21	n/a	n/a	1	51	0
741.5196	1	10	n/a	n/a	1	51	1
742.6528	1	21	n/a	n/a	1	51	0
743.9862	1	10	n/a	n/a	1	51	1
745.3194	1	21	n/a	n/a	1	51	0
746.436	1	10	n/a	n/a	1	51	1
747.6026	1	10	n/a	n/a	1	51	2
748.6858	1	10	n/a	n/a	1	51	3
749.9358	1	10	n/a	n/a	1	51	4
751.1356	1	10	n/a	n/a	1	51	5
752.4522	1	10	n/a	n/a	1	51	6
753.7688	1	10	n/a	n/a	1	51	7
755.0854	1	21	n/a	n/a	1	51	0
756.302	1	10	n/a	n/a	1	51	1
757.452	1	10	n/a	n/a	1	51	2
758.752	1	10	n/a	n/a	1	51	3
759.8352	1	10	n/a	n/a	1	51	4
760.6656	1	81	n/a	n/a	1	0	0
760.8656	1	81	n/a	n/a	1	0	0
761.0656	1	81	n/a	n/a	1	0	0
761.2656	1	81	n/a	n/a	1	0	0
761.4656	1	81	n/a	n/a	1	0	0
761.6656	1	81	n/a	n/a	1	0	0
761.8656	1	81	n/a	n/a	1	0	0
762.0656	1	81	n/a	n/a	1	0	0
762.2656	1	81	n/a	n/a	1	0	0
762.4656	1	81	n/a	n/a	1	0	0
763.6516	1	10	n/a	n/a	1	51	1
764.9016	1	10	n/a	n/a	1	51	2
766.0682	1	10	n/a	n/a	1	51	3
767.218	1	10	n/a	n/a	1	51	4
768.4514	1	10	n/a	n/a	1	51	5
769.518	1	10	n/a	n/a	1	51	6
770.7178	1	10	n/a	n/a	1	51	7
771.9178	1	21	n/a	n/a	1	51	0
773.0344	1	10	n/a	n/a	1	51	1
774.2676	1	10	n/a	n/a	1	51	2
775.5176	1	10	n/a	n/a	1	51	3
776.7676	1	21	n/a	n/a	1	51	0
778.0008	1	10	n/a	n/a	1	51	1
779.334	1	10	n/a	n/a	1	51	2
780.4174	1	10	n/a	n/a	1	51	3
781.584	1	10	n/a	n/a	1	51	4
782.7338	1	10	n/a	n/a	1	51	5
783.867	1	10	n/a	n/a	1	51	6
784.917	1	10	n/a	n/a	1	51	7
785.967	1	21	n/a	n/a	1	51	0
786.8114	1	81	n/a	n/a	1	0	0
787.0114	1	81	n/a	n/a	1	0	0
787.2114	1	81	n/a	n/a	1	0	0
787.4114	1	81	n/a	n/a	1	0	0
787.6114	1	81	n/a	n/a	1	0	0
787.8114	1	81	n/a	n/a	1	0	0
788.0114	1	81	n/a	n/a	1	0	0
788.2114	1	81	n/a	n/a	1	0	0
788.4114	1	81	n/a	n/a	1	0	0
788.6114	1	81	n/a	n/a	1	0	0
789.7834	1	10	n/a	n/a	1	51	1
790.85	1	10	n/a	n/a	1	51	2
791.9332	1	10	n/a	n/a	1	51	3
793.0498	1	10	n/a	n/a	1	51	4
794.2998	1	10	n/a	n/a	1	51	5
795.5498	1	21	n/a	n/a	1	51	0
796.7164	1	10	n/a	n/a	1	51	1
797.983	1	10	n/a	n/a	1	51	2
799.2996	1	10	n/a	n/a	1	51	3
800.5328	1	10	n/a	n/a	1	51	4
801.7328	1	10	n/a	n/a	1	51	5
802.866	1	10	n/a	n/a	1	51	6
803.9326	1	10	n/a	n/a	1	51	7
804.9992	1	21	n/a	n/a	1	51	0
806.0992	1	10	n/a	n/a	1	51	1
807.3658	1	10	n/a	n/a	1	51	2
808.5156	1	10	n/a	n/a	1	51	3
809.799	1	10	n/a	n/a	1	51	4
811.0988	1	10	n/a	n/a	1	51	5
812.3988	1	21	n/a	n/a	1	51	0
813.1944	1	81	n/a	n/a	1	0	0
813.3944	1	81	n/a	n/a	1	0	0
813.5944	1	81	n/a	n/a	1	0	0
813.7944	1	81	n/a	n/a	1	0	0
813.9944	1	81	n/a	n/a	1	0	0
814.1944	1	81	n/a	n/a	1	0	0
814.3944	1	81	n/a	n/a	1	0	0
814.5944	1	81	n/a	n/a	1	0	0
814.7944	1	81	n/a	n/a	1	0	0
814.9944	1	81	n/a	n/a	1	0	0
816.1152	1	10	n/a	n/a	1	51	1
817.1484	1	21	n/a	n/a	1	51	0
818.2818	1	10	n/a	n/a	1	51	1
819.415	1	21	n/a	n/a	1	51	0
820.5982	1	10	n/a	n/a	1	51	1
821.6816	1	10	n/a	n/a	1	51	2
822.9148	1	10	n/a	n/a	1	51	3
823.9648	1	10	n/a	n/a	1	51	4
825.0814	1	10	n/a	n/a	1	51	5
826.298	1	10	n/a	n/a	1	51	6
827.6312	1	10	n/a	n/a	1	51	7
828.9312	1	21	n/a	n/a	1	51	0
830.1644	1	10	n/a	n/a	1	51	1
831.4644	1	10	n/a	n/a	1	51	2
832.7142	1	10	n/a	n/a	1	51	3
833.9642	1	21	n/a	n/a	1	51	0
835.1974	1	10	n/a	n/a	1	51	1
836.514	1	10	n/a	n/a	1	51	2
837.8306	1	10	n/a	n/a	1	51	3
838.9138	1	10	n/a	n/a	1	51	4
847.9104	1	82	n/a	n/a	1	0	0
848.0434	1	82	n/a	n/a	1	0	0
848.4684	1	82	n/a	n/a	1	0	0
848.5564	1	82	n/a	n/a	1	0	0
848.8504	1	82	n/a	n/a	1	0	0
848.9104	1	82	n/a	n/a	1	0	0
848.9914	1	82	n/a	n/a	1	0	0
849.1304	1	82	n/a	n/a	1	0	0
849.4614	1	82	n/a	n/a	1	0	0
849.7184	1	82	n/a	n/a	1	0	0
850.8632	1	10	n/a	n/a	1	50	1
852.0632	1	10	n/a	n/a	1	50	2
853.1298	1	10	n/a	n/a	1	50	3
854.3796	1	10	n/a	n/a	1	50	4
855.5628	1	10	n/a	n/a	1	50	5
856.7462	1	21	n/a	n/a	1	50	0
857.8794	1	10	n/a	n/a	1	50	1
858.9626	1	10	n/a	n/a	1	50	2
860.1792	1	10	n/a	n/a	1	50	3
861.4792	1	10	n/a	n/a	1	50	4
862.7458	1	10	n/a	n/a	1	50	5
864.0458	1	10	n/a	n/a	1	50	6
865.179	1	10	n/a	n/a	1	50	7
866.3122	1	21	n/a	n/a	1	50	0
867.3456	1	10	n/a	n/a	1	50	1
868.6288	1	10	n/a	n/a	1	50	2
869.862	1	10	n/a	n/a	1	50	3
871.1454	1	10	n/a	n/a	1	50	4
872.1786	1	10	n/a	n/a	1	50	5
873.4786	1	10	n/a	n/a	1	50	6
874.402	1	82	n/a	n/a	1	0	0
874.762	1	82	n/a	n/a	1	0	0
874.905	1	82	n/a	n/a	1	0	0
875.182	1	82	n/a	n/a	1	0	0
875.215	1	82	n/a	n/a	1	0	0
875.402	1	82	n/a	n/a	1	0	0
875.487	1	82	n/a	n/a	1	0	0
875.611	1	82	n/a	n/a	1	0	0
875.82	1	82	n/a	n/a	1	0	0
876.148	1	82	n/a	n/a	1	0	0
877.6116	1	10	n/a	n/a	1	50	1
878.7616	1	10	n/a	n/a	1	50	2
879.8282	1	10	n/a	n/a	1	50	3
880.9114	1	10	n/a	n/a	1	50	4
881.9946	1	10	n/a	n/a	1	50	5
883.2612	1	10	n/a	n/a	1	50	6
884.5612	1	10	n/a	n/a	1	50	7
885.8612	1	21	n/a	n/a	1	50	0
887.0944	1	10	n/a	n/a	1	50	1
888.3944	1	10	n/a	n/a	1	50	2
889.561	1	10	n/a	n/a	1	50	3
890.5942	1	10	n/a	n/a	1	50	4
891.894	1	10	n/a	n/a	1	50	5
893.194	1	21	n/a	n/a	1	50	0
894.4106	1	10	n/a	n/a	1	50	1
895.5606	1	10	n/a	n/a	1	50	2
896.6938	1	10	n/a	n/a	1	50	3
897.8604	1	10	n/a	n/a	1	50	4
898.9104	1	10	n/a	n/a	1	50	5
900.227	1	10	n/a	n/a	1	50	6
900.9474	1	82	n/a	n/a	1	0	0
901.3474	1	82	n/a	n/a	1	0	0
901.4014	1	82	n/a	n/a	1	0	0
901.5854	1	82	n/a	n/a	1	0	0
901.9084	1	82	n/a	n/a	1	0	0
901.9474	1	82	n/a	n/a	1	0	0
901.9994	1	82	n/a	n/a	1	0	0
902.1054	1	82	n/a	n/a	1	0	0
902.3664	1	82	n/a	n/a	1	0	0
902.3974	1	82	n/a	n/a	1	0	0
903.9768	1	10	n/a	n/a	1	50	1
905.11	1	21	n/a	n/a	1	50	0
906.1766	1	10	n/a	n/a	1	50	1
907.3766	1	10	n/a	n/a	1	50	2
908.4432	1	10	n/a	n/a	1	50	3
909.6598	1	10	n/a	n/a	1	50	4
910.9096	1	10	n/a	n/a	1	50	5
912.1596	1	21	n/a	n/a	1	50	0
913.3428	1	10	n/a	n/a	1	50	1
914.3762	1	10	n/a	n/a	1	50	2
915.526	1	10	n/a	n/a	1	50	3
916.676	1	21	n/a	n/a	1	50	0
917.826	1	10	n/a	n/a	1	50	1
918.8758	1	10	n/a	n/a	1	50	2
920.0924	1	10	n/a	n/a	1	50	3
921.1424	1	10	n/a	n/a	1	50	4
922.409	1	10	n/a	n/a	1	50	5
923.6756	1	21	n/a	n/a	1	50	0
924.8422	1	10	n/a	n/a	1	50	1
925.9588	1	10	n/a	n/a	1	50	2
926.9292	1	82	n/a	n/a	1	0	0
927.0662	1	82	n/a	n/a	1	0	0
927.3482	1	82	n/a	n/a	1	0	0
927.4132	1	82	n/a	n/a	1	0	0
927.6712	1	82	n/a	n/a	1	0	0
927.9292	1	82	n/a	n/a	1	0	0
927.9852	1	82	n/a	n/a	1	0	0
928.0802	1	82	n/a	n/a	1	0	0
928.4642	1	82	n/a	n/a	1	0	0
928.8232	1	82	n/a	n/a	1	0	0
930.1586	1	10	n/a	n/a	1	50	1
931.3418	1	10	n/a	n/a	1	50	2
932.375	1	10	n/a	n/a	1	50	3
933.525	1	10	n/a	n/a	1	50	4
934.6916	1	10	n/a	n/a	1	50	5
935.8582	1	21	n/a	n/a	1	50	0
936.9582	1	10	n/a	n/a	1	50	1
938.258	1	10	n/a	n/a	1	50	2
939.308	1	10	n/a	n/a	1	50	3
940.608	1	10	n/a	n/a	1	50	4
941.6412	1	10	n/a	n/a	1	50	5
942.8578	1	10	n/a	n/a	1	50	6
944.0578	1	10	n/a	n/a	1	50	7
945.2576	1	21	n/a	n/a	1	50	0
946.3742	1	10	n/a	n/a	1	50	1
947.6242	1	10	n/a	n/a	1	50	2
948.7074	1	10	n/a	n/a	1	50	3
949.7906	1	21	n/a	n/a	1	50	0
951.0906	1	10	n/a	n/a	1	50	1
952.3406	1	10	n/a	n/a	1	50	2
953.413	1	82	n/a	n/a	1	0	0
953.727	1	82	n/a	n/a	1	0	0
953.817	1	82	n/a	n/a	1	0	0
954.088	1	82	n/a	n/a	1	0	0
954.216	1	82	n/a	n/a	1	0	0
954.413	1	82	n/a	n/a	1	0	0
954.657	1	82	n/a	n/a	1	0	0
954.935	1	82	n/a	n/a	1	0	0
955.063	1	82	n/a	n/a	1	0	0
955.231	1	82	n/a	n/a	1	0	0
956.3904	1	10	n/a	n/a	1	50	1
957.4902	1	21	n/a	n/a	1	50	0
958.5236	1	10	n/a	n/a	1	50	1
959.5568	1	21	n/a	n/a	1	50	0
960.7068	1	10	n/a	n/a	1	50	1
961.9066	1	10	n/a	n/a	1	50	2
962.99	1	10	n/a	n/a	1	50	3
964.0732	1	21	n/a	n/a	1	50	0
965.3564	1	10	n/a	n/a	1	50	1
966.523	1	10	n/a	n/a	1	50	2
967.6396	1	10	n/a	n/a	1	50	3
968.723	1	10	n/a	n/a	1	50	4
969.8896	1	10	n/a	n/a	1	50	5
971.1228	1	10	n/a	n/a	1	50	6
972.456	1	10	n/a	n/a	1	50	7
973.7892	1	21	n/a	n/a	1	50	0
974.9726	1	10	n/a	n/a	1	50	1
976.2558	1	10	n/a	n/a	1	50	2
977.539	1	10	n/a	n/a	1	50	3
978.8556	1	10	n/a	n/a	1	50	4
1007.4564	1	82	n/a	n/a	1	0	0
1007.8084	1	82	n/a	n/a	1	0	0
1007.9164	1	82	n/a	n/a	1	0	0
1008.1754	1	82	n/a	n/a	1	0	0
1008.3444	1	82	n/a	n/a	1	0	0
1008.4564	1	82	n/a	n/a	1	0	0
1008.8584	1	82	n/a	n/a	1	0	0
1008.8874	1	82	n/a	n/a	1	0	0
1009.0814	1	82	n/a	n/a	1	0	0
1009.3784	1	82	n/a	n/a	1	0	0
1010.5704	1	10	n/a	n/a	1	52	1
1011.637	1	10	n/a	n/a	1	52	2
1012.737	1	10	n/a	n/a	1	52	3
1013.837	1	21	n/a	n/a	1	52	0
1015.1202	1	10	n/a	n/a	1	52	1
1016.3534	1	10	n/a	n/a	1	52	2
1017.47	1	10	n/a	n/a	1	52	3
1018.5034	1	10	n/a	n/a	1	52	4
1019.6366	1	10	n/a	n/a	1	52	5
1020.6866	1	10	n/a	n/a	1	52	6
1021.8198	1	10	n/a	n/a	1	52	7
1022.953	1	21	n/a	n/a	1	52	0
1024.0364	1	10	n/a	n/a	1	52	1
1025.1196	1	21	n/a	n/a	1	52	0
1026.2696	1	10	n/a	n/a	1	52	1
1027.4528	1	10	n/a	n/a	1	52	2
1028.5694	1	10	n/a	n/a	1	52	3
1029.6194	1	10	n/a	n/a	1	52	4
1030.8192	1	10	n/a	n/a	1	52	5
1032.0192	1	10	n/a	n/a	1	52	6
1032.7986	1	82	n/a	n/a	1	0	0
1032.8356	1	82	n/a	n/a	1	0	0
1032.9066	1	82	n/a	n/a	1	0	0
1033.2286	1	82	n/a	n/a	1	0	0
1033.5776	1	82	n/a	n/a	1	0	0
1033.7986	1	82	n/a	n/a	1	0	0
1033.8266	1	82	n/a	n/a	1	0	0
1034.2226	1	82	n/a	n/a	1	0	0
1034.4386	1	82	n/a	n/a	1	0	0
1034.7226	1	82	n/a	n/a	1	0	0
1035.7524	1	10	n/a	n/a	1	52	1
1036.9356	1	10	n/a	n/a	1	52	2
1038.1522	1	10	n/a	n/a	1	52	3
1039.3688	1	21	n/a	n/a	1	52	0
1040.4188	1	10	n/a	n/a	1	52	1
1041.7352	1	10	n/a	n/a	1	52	2
1042.7852	1	10	n/a	n/a	1	52	3
1043.8352	1	21	n/a	n/a	1	52	0
1044.9184	1	10	n/a	n/a	1	52	1
1045.9518	1	10	n/a	n/a	1	52	2
1047.2184	1	10	n/a	n/a	1	52	3
1048.3016	1	10	n/a	n/a	1	52	4
1049.4016	1	10	n/a	n/a	1	52	5
1050.5014	1	21	n/a	n/a	1	52	0
1051.818	1	10	n/a	n/a	1	52	1
1052.9846	1	10	n/a	n/a	1	52	2
1054.018	1	10	n/a	n/a	1	52	3
1055.2512	1	10	n/a	n/a	1	52	4
1056.3012	1	10	n/a	n/a	1	52	5
1057.351	1	21	n/a	n/a	1	52	0
1058.1666	1	82	n/a	n/a	1	0	0
1058.1976	1	82	n/a	n/a	1	0	0
1058.6166	1	82	n/a	n/a	1	0	0
1058.8816	1	82	n/a	n/a	1	0	0
1059.1046	1	82	n/a	n/a	1	0	0
1059.1666	1	82	n/a	n/a	1	0	0
1059.3346	1	82	n/a	n/a	1	0	0
1059.6126	1	82	n/a	n/a	1	0	0
1059.6586	1	82	n/a	n/a	1	0	0
1059.7456	1	82	n/a	n/a	1	0	0
1061.3842	1	10	n/a	n/a	1	52	1
1062.684	1	10	n/a	n/a	1	52	2
1063.834	1	10	n/a	n/a	1	52	3
1065.084	1	10	n/a	n/a	1	52	4
1066.3006	1	10	n/a	n/a	1	52	5
1067.4504	1	10	n/a	n/a	1	52	6
1068.667	1	10	n/a	n/a	1	52	7
1069.8836	1	21	n/a	n/a	1	52	0
1071.1502	1	10	n/a	n/a	1	52	1
1072.3002	1	10	n/a	n/a	1	52	2
1073.3334	1	10	n/a	n/a	1	52	3
1074.5166	1	10	n/a	n/a	1	52	4
1075.65	1	10	n/a	n/a	1	52	5
1076.7832	1	21	n/a	n/a	1	52	0
1077.9164	1	10	n/a	n/a	1	52	1
1079.0498	1	21	n/a	n/a	1	52	0
1080.283	1	10	n/a	n/a	1	52	1
1081.583	1	10	n/a	n/a	1	52	2
1082.6328	1	10	n/a	n/a	1	52	3
1083.6994	1	10	n/a	n/a	1	52	4
1084.572	1	82	n/a	n/a	1	0	0
1084.908	1	82	n/a	n/a	1	0	0
1084.995	1	82	n/a	n/a	1	0	0
1085.174	1	82	n/a	n/a	1	0	0
1085.4368	1	82	n/a	n/a	1	0	0
1085.572	1	82	n/a	n/a	1	0	0
1086	1	82	n/a	n/a	1	0	0
1086.163	1	82	n/a	n/a	1	0	0
1086.262	1	82	n/a	n/a	1	0	0
1086.53	1	82	n/a	n/a	1	0	0
1087.6992	1	10	n/a	n/a	1	52	1
1088.9658	1	10	n/a	n/a	1	52	2
1090.1158	1	10	n/a	n/a	1	52	3
1091.1824	1	10	n/a	n/a	1	52	4
1092.2324	1	10	n/a	n/a	1	52	5
1093.2822	1	21	n/a	n/a	1	52	0
1094.5822	1	10	n/a	n/a	1	52	1
1095.8654	1	10	n/a	n/a	1	52	2
1096.8988	1	10	n/a	n/a	1	52	3
1097.9654	1	10	n/a	n/a	1	52	4
1099.232	1	10	n/a	n/a	1	52	5
1100.4986	1	21	n/a	n/a	1	52	0
1101.6818	1	10	n/a	n/a	1	52	1
1102.865	1	21	n/a	n/a	1	52	0
1103.8984	1	10	n/a	n/a	1	52	1
1104.9648	1	10	n/a	n/a	1	52	2
1106.0316	1	10	n/a	n/a	1	52	3
1107.0982	1	21	n/a	n/a	1	52	0
1108.2148	1	10	n/a	n/a	1	52	1
1109.4314	1	10	n/a	n/a	1	52	2
1110.4198	1	82	n/a	n/a	1	0	0
1110.4988	1	82	n/a	n/a	1	0	0
1110.5448	1	82	n/a	n/a	1	0	0
1110.8348	1	82	n/a	n/a	1	0	0
1111.2578	1	82	n/a	n/a	1	0	0
1111.4198	1	82	n/a	n/a	1	0	0
1111.5348	1	82	n/a	n/a	1	0	0
1111.9088	1	82	n/a	n/a	1	0	0
1112.1838	1	82	n/a	n/a	1	0	0
1112.3308	1	82	n/a	n/a	1	0	0
1113.4644	1	10	n/a	n/a	1	52	1
1114.4976	1	10	n/a	n/a	1	52	2
1115.8142	1	10	n/a	n/a	1	52	3
1116.8476	1	10	n/a	n/a	1	52	4
1118.1642	1	10	n/a	n/a	1	52	5
1119.3474	1	10	n/a	n/a	1	52	6
1120.5474	1	10	n/a	n/a	1	52	7
1121.7472	1	21	n/a	n/a	1	52	0
1122.7972	1	10	n/a	n/a	1	52	1
1123.8472	1	21	n/a	n/a	1	52	0
1125.0138	1	10	n/a	n/a	1	52	1
1126.1804	1	21	n/a	n/a	1	52	0
1127.4636	1	10	n/a	n/a	1	52	1
1128.7802	1	10	n/a	n/a	1	52	2
1129.8468	1	10	n/a	n/a	1	52	3
1130.93	1	10	n/a	n/a	1	52	4
1132.18	1	10	n/a	n/a	1	52	5
1133.4298	1	21	n/a	n/a	1	52	0
1134.6798	1	10	n/a	n/a	1	52	1
1135.9464	1	10	n/a	n/a	1	52	2
1244.7698	1	81	n/a	n/a	1	0	0
1244.9698	1	81	n/a	n/a	1	0	0
1245.1698	1	81	n/a	n/a	1	0	0
1245.3698	1	81	n/a	n/a	1	0	0
1245.5698	1	81	n/a	n/a	1	0	0
1245.7698	1	81	n/a	n/a	1	0	0
1245.9698	1	81	n/a	n/a	1	0	0
1246.1698	1	81	n/a	n/a	1	0	0
1246.3698	1	81	n/a	n/a	1	0	0
1246.5698	1	81	n/a	n/a	1	0	0
1247.7898	1	10	n/a	n/a	1	51	1
1249.123	1	10	n/a	n/a	1	51	2
1250.3396	1	10	n/a	n/a	1	51	3
1251.5562	1	21	n/a	n/a	1	51	0
1252.6228	1	10	n/a	n/a	1	51	1
1253.6562	1	10	n/a	n/a	1	51	2
1254.756	1	10	n/a	n/a	1	51	3
1255.856	1	21	n/a	n/a	1	51	0
1257.1226	1	10	n/a	n/a	1	51	1
1258.2226	1	10	n/a	n/a	1	51	2
1259.3224	1	10	n/a	n/a	1	51	3
1260.4224	1	21	n/a	n/a	1	51	0
1261.589	1	10	n/a	n/a	1	51	1
1262.739	1	10	n/a	n/a	1	51	2
1263.7888	1	10	n/a	n/a	1	51	3
1265.1054	1	10	n/a	n/a	1	51	4
1266.2888	1	10	n/a	n/a	1	51	5
1267.472	1	21	n/a	n/a	1	51	0
1268.7886	1	10	n/a	n/a	1	51	1
1270.0718	1	10	n/a	n/a	1	51	2
1270.9852	1	81	n/a	n/a	1	0	0
1271.1852	1	81	n/a	n/a	1	0	0
1271.3852	1	81	n/a	n/a	1	0	0
1271.5852	1	81	n/a	n/a	1	0	0
1271.7852	1	81	n/a	n/a	1	0	0
1271.9852	1	81	n/a	n/a	1	0	0
1272.1852	1	81	n/a	n/a	1	0	0
1272.3852	1	81	n/a	n/a	1	0	0
1272.5852	1	81	n/a	n/a	1	0	0
1272.7852	1	81	n/a	n/a	1	0	0
1274.0882	1	10	n/a	n/a	1	51	1
1275.2216	1	10	n/a	n/a	1	51	2
1276.2714	1	10	n/a	n/a	1	51	3
1277.3548	1	10	n/a	n/a	1	51	4
1278.6714	1	10	n/a	n/a	1	51	5
1279.988	1	21	n/a	n/a	1	51	0
1281.3046	1	10	n/a	n/a	1	51	1
1282.3878	1	10	n/a	n/a	1	51	2
1283.421	1	10	n/a	n/a	1	51	3
1284.5876	1	10	n/a	n/a	1	51	4
1285.7876	1	10	n/a	n/a	1	51	5
1286.9876	1	21	n/a	n/a	1	51	0
1288.0874	1	10	n/a	n/a	1	51	1
1289.1708	1	10	n/a	n/a	1	51	2
1290.4706	1	10	n/a	n/a	1	51	3
1291.6872	1	10	n/a	n/a	1	51	4
1292.8372	1	10	n/a	n/a	1	51	5
1294.0538	1	10	n/a	n/a	1	51	6
1295.1204	1	10	n/a	n/a	1	51	7
1296.187	1	21	n/a	n/a	1	51	0
1296.9266	1	81	n/a	n/a	1	0	0
1297.1266	1	81	n/a	n/a	1	0	0
1297.3266	1	81	n/a	n/a	1	0	0
1297.5266	1	81	n/a	n/a	1	0	0
1297.7266	1	81	n/a	n/a	1	0	0
1297.9266	1	81	n/a	n/a	1	0	0
1298.1266	1	81	n/a	n/a	1	0	0
1298.3266	1	81	n/a	n/a	1	0	0
1298.5266	1	81	n/a	n/a	1	0	0
1298.7266	1	81	n/a	n/a	1	0	0
1299.9034	1	10	n/a	n/a	1	51	1
1301.12	1	10	n/a	n/a	1	51	2
1302.42	1	10	n/a	n/a	1	51	3
1303.7198	1	21	n/a	n/a	1	51	0
1305.0198	1	10	n/a	n/a	1	51	1
1306.3364	1	21	n/a	n/a	1	51	0
1307.4696	1	10	n/a	n/a	1	51	1
1308.6862	1	10	n/a	n/a	1	51	2
1309.7528	1	10	n/a	n/a	1	51	3
1311.0694	1	10	n/a	n/a	1	51	4
1312.236	1	10	n/a	n/a	1	51	5
1313.4026	1	21	n/a	n/a	1	51	0
1314.4858	1	10	n/a	n/a	1	51	1
1315.6524	1	10	n/a	n/a	1	51	2
1316.8024	1	10	n/a	n/a	1	51	3
1318.069	1	10	n/a	n/a	1	51	4
1319.2022	1	10	n/a	n/a	1	51	5
1320.2356	1	10	n/a	n/a	1	51	6
1321.4854	1	10	n/a	n/a	1	51	7
1322.7354	1	21	n/a	n/a	1	51	0
1323.4668	1	81	n/a	n/a	1	0	0
1323.6668	1	81	n/a	n/a	1	0	0
1323.8668	1	81	n/a	n/a	1	0	0
1324.0668	1	81	n/a	n/a	1	0	0
1324.2668	1	81	n/a	n/a	1	0	0
1324.4668	1	81	n/a	n/a	1	0	0
1324.6668	1	81	n/a	n/a	1	0	0
1324.8668	1	81	n/a	n/a	1	0	0
1325.0668	1	81	n/a	n/a	1	0	0
1325.2668	1	81	n/a	n/a	1	0	0
1326.6018	1	10	n/a	n/a	1	51	1
1327.8684	1	10	n/a	n/a	1	51	2
1329.035	1	10	n/a	n/a	1	51	3
1330.0684	1	10	n/a	n/a	1	51	4
1331.385	1	10	n/a	n/a	1	51	5
1332.4848	1	10	n/a	n/a	1	51	6
1333.5514	1	10	n/a	n/a	1	51	7
1334.618	1	21	n/a	n/a	1	51	0
1335.9346	1	10	n/a	n/a	1	51	1
1337.2178	1	10	n/a	n/a	1	51	2
1338.4844	1	10	n/a	n/a	1	51	3
1339.7678	1	10	n/a	n/a	1	51	4
1341.0844	1	10	n/a	n/a	1	51	5
1342.151	1	10	n/a	n/a	1	51	6
1343.2508	1	10	n/a	n/a	1	51	7
1344.3508	1	21	n/a	n/a	1	51	0
1345.6508	1	10	n/a	n/a	1	51	1
1346.7006	1	10	n/a	n/a	1	51	2
1347.734	1	10	n/a	n/a	1	51	3
1349.0006	1	10	n/a	n/a	1	51	4
1349.797	1	81	n/a	n/a	1	0	0
1349.997	1	81	n/a	n/a	1	0	0
1350.197	1	81	n/a	n/a	1	0	0
1350.397	1	81	n/a	n/a	1	0	0
1350.597	1	81	n/a	n/a	1	0	0
1350.797	1	81	n/a	n/a	1	0	0
1350.997	1	81	n/a	n/a	1	0	0
1351.197	1	81	n/a	n/a	1	0	0
1351.397	1	81	n/a	n/a	1	0	0
1351.597	1	81	n/a	n/a	1	0	0
1352.8504	1	10	n/a	n/a	1	51	1
1354.1168	1	10	n/a	n/a	1	51	2
1355.3002	1	10	n/a	n/a	1	51	3
1356.4	1	10	n/a	n/a	1	51	4
1357.6166	1	10	n/a	n/a	1	51	5
1358.9166	1	10	n/a	n/a	1	51	6
1360.0498	1	10	n/a	n/a	1	51	7
1361.1832	1	21	n/a	n/a	1	51	0
1362.4664	1	10	n/a	n/a	1	51	1
1363.6164	1	10	n/a	n/a	1	51	2
1364.7162	1	10	n/a	n/a	1	51	3
1365.8162	1	21	n/a	n/a	1	51	0
1366.9162	1	10	n/a	n/a	1	51	1
1368.016	1	10	n/a	n/a	1	51	2
1369.066	1	10	n/a	n/a	1	51	3
1370.116	1	21	n/a	n/a	1	51	0
1371.1658	1	10	n/a	n/a	1	51	1
1372.2992	1	10	n/a	n/a	1	51	2
1373.5658	1	10	n/a	n/a	1	51	3
1374.8324	1	21	n/a	n/a	1	51	0
1382.2826	1	81	n/a	n/a	1	0	0
1382.4826	1	81	n/a	n/a	1	0	0
1382.6826	1	81	n/a	n/a	1	0	0
1382.8826	1	81	n/a	n/a	1	0	0
1383.0826	1	81	n/a	n/a	1	0	0
1383.2826	1	81	n/a	n/a	1	0	0
1383.4826	1	81	n/a	n/a	1	0	0
1383.6826	1	81	n/a	n/a	1	0	0
1383.8826	1	81	n/a	n/a	1	0	0
1384.0826	1	81	n/a	n/a	1	0	0
1385.465	1	10	n/a	n/a	1	50	1
1386.5984	1	10	n/a	n/a	1	50	2
1387.7316	1	10	n/a	n/a	1	50	3
1388.7982	1	10	n/a	n/a	1	50	4
1389.8314	1	10	n/a	n/a	1	50	5
1390.998	1	10	n/a	n/a	1	50	6
1392.2646	1	10	n/a	n/a	1	50	7
1393.5312	1	21	n/a	n/a	1	50	0
1394.6312	1	10	n/a	n/a	1	50	1
1395.7312	1	21	n/a	n/a	1	50	0
1396.9644	1	10	n/a	n/a	1	50	1
1398.2642	1	10	n/a	n/a	1	50	2
1399.4308	1	10	n/a	n/a	1	50	3
1400.5974	1	21	n/a	n/a	1	50	0
1401.664	1	10	n/a	n/a	1	50	1
1402.9806	1	10	n/a	n/a	1	50	2
1404.164	1	10	n/a	n/a	1	50	3
1405.4638	1	10	n/a	n/a	1	50	4
1406.6138	1	10	n/a	n/a	1	50	5
1407.7638	1	21	n/a	n/a	1	50	0
1408.6554	1	81	n/a	n/a	1	0	0
1408.8554	1	81	n/a	n/a	1	0	0
1409.0554	1	81	n/a	n/a	1	0	0
1409.2554	1	81	n/a	n/a	1	0	0
1409.4554	1	81	n/a	n/a	1	0	0
1409.6554	1	81	n/a	n/a	1	0	0
1409.8554	1	81	n/a	n/a	1	0	0
1410.0554	1	81	n/a	n/a	1	0	0
1410.2554	1	81	n/a	n/a	1	0	0
1410.4554	1	81	n/a	n/a	1	0	0
1411.6136	1	10	n/a	n/a	1	50	1
1412.7302	1	10	n/a	n/a	1	50	2
1413.8134	1	10	n/a	n/a	1	50	3
1415.0466	1	10	n/a	n/a	1	50	4
1416.13	1	10	n/a	n/a	1	50	5
1417.2132	1	21	n/a	n/a	1	50	0
1418.3132	1	10	n/a	n/a	1	50	1
1419.3964	1	10	n/a	n/a	1	50	2
1420.6964	1	10	n/a	n/a	1	50	3
1421.9962	1	21	n/a	n/a	1	50	0
1423.0794	1	10	n/a	n/a	1	50	1
1424.2294	1	10	n/a	n/a	1	50	2
1425.5294	1	10	n/a	n/a	1	50	3
1426.846	1	10	n/a	n/a	1	50	4
1427.9126	1	10	n/a	n/a	1	50	5
1429.0292	1	10	n/a	n/a	1	50	6
1430.129	1	10	n/a	n/a	1	50	7
1431.229	1	21	n/a	n/a	1	50	0
1432.3122	1	10	n/a	n/a	1	50	1
1433.6122	1	10	n/a	n/a	1	50	2
1434.4036	1	81	n/a	n/a	1	0	0
1434.6036	1	81	n/a	n/a	1	0	0
1434.8036	1	81	n/a	n/a	1	0	0
1435.0036	1	81	n/a	n/a	1	0	0
1435.2036	1	81	n/a	n/a	1	0	0
1435.4036	1	81	n/a	n/a	1	0	0
1435.6036	1	81	n/a	n/a	1	0	0
1435.8036	1	81	n/a	n/a	1	0	0
1436.0036	1	81	n/a	n/a	1	0	0
1436.2036	1	81	n/a	n/a	1	0	0
1437.412	1	10	n/a	n/a	1	50	1
1438.4786	1	10	n/a	n/a	1	50	2
1439.6952	1	10	n/a	n/a	1	50	3
1440.7452	1	10	n/a	n/a	1	50	4
1441.9784	1	10	n/a	n/a	1	50	5
1443.2284	1	10	n/a	n/a	1	50	6
1444.4616	1	10	n/a	n/a	1	50	7
1445.6948	1	21	n/a	n/a	1	50	0
1446.8948	1	10	n/a	n/a	1	50	1
1447.928	1	10	n/a	n/a	1	50	2
1449.1612	1	10	n/a	n/a	1	50	3
1450.3778	1	10	n/a	n/a	1	50	4
1451.6778	1	10	n/a	n/a	1	50	5
1452.7778	1	10	n/a	n/a	1	50	6
1453.811	1	10	n/a	n/a	1	50	7
1454.8442	1	21	n/a	n/a	1	50	0
1455.9942	1	10	n/a	n/a	1	50	1
1457.1274	1	10	n/a	n/a	1	50	2
1458.2774	1	10	n/a	n/a	1	50	3
1459.3274	1	10	n/a	n/a	1	50	4
1460.1698	1	81	n/a	n/a	1	0	0
1460.3698	1	81	n/a	n/a	1	0	0
1460.5698	1	81	n/a	n/a	1	0	0
1460.7698	1	81	n/a	n/a	1	0	0
1460.9698	1	81	n/a	n/a	1	0	0
1461.1698	1	81	n/a	n/a	1	0	0
1461.3698	1	81	n/a	n/a	1	0	0
1461.5698	1	81	n/a	n/a	1	0	0
1461.7698	1	81	n/a	n/a	1	0	0
1461.9698	1	81	n/a	n/a	1	0	0
1463.1272	1	10	n/a	n/a	1	50	1
1464.1938	1	21	n/a	n/a	1	50	0
1465.5104	1	10	n/a	n/a	1	50	1
1466.727	1	10	n/a	n/a	1	50	2
1467.9602	1	10	n/a	n/a	1	50	3
1469.0768	1	10	n/a	n/a	1	50	4
1470.31	1	10	n/a	n/a	1	50	5
1471.3766	1	10	n/a	n/a	1	50	6
1472.4266	1	10	n/a	n/a	1	50	7
1473.4766	1	21	n/a	n/a	1	50	0
1474.6764	1	10	n/a	n/a	1	50	1
1475.8764	1	10	n/a	n/a	1	50	2
1477.0764	1	10	n/a	n/a	1	50	3
1478.2762	1	21	n/a	n/a	1	50	0
1479.3428	1	10	n/a	n/a	1	50	1
1480.4594	1	10	n/a	n/a	1	50	2
1481.626	1	10	n/a	n/a	1	50	3
1482.726	1	10	n/a	n/a	1	50	4
1483.876	1	10	n/a	n/a	1	50	5
1485.0258	1	21	n/a	n/a	1	50	0
1485.8966	1	81	n/a	n/a	1	0	0
1486.0966	1	81	n/a	n/a	1	0	0
1486.2966	1	81	n/a	n/a	1	0	0
1486.4966	1	81	n/a	n/a	1	0	0
1486.6966	1	81	n/a	n/a	1	0	0
1486.8966	1	81	n/a	n/a	1	0	0
1487.0966	1	81	n/a	n/a	1	0	0
1487.2966	1	81	n/a	n/a	1	0	0
1487.4966	1	81	n/a	n/a	1	0	0
1487.6966	1	81	n/a	n/a	1	0	0
1488.9256	1	10	n/a	n/a	1	50	1
1490.0256	1	10	n/a	n/a	1	50	2
1491.1922	1	10	n/a	n/a	1	50	3
1492.3588	1	21	n/a	n/a	1	50	0
1493.692	1	10	n/a	n/a	1	50	1
1494.8752	1	10	n/a	n/a	1	50	2
1495.9918	1	10	n/a	n/a	1	50	3
1497.0918	1	10	n/a	n/a	1	50	4
1498.3418	1	10	n/a	n/a	1	50	5
1499.5916	1	10	n/a	n/a	1	50	6
1500.6582	1	10	n/a	n/a	1	50	7
1501.7248	1	21	n/a	n/a	1	50	0
1503.0248	1	10	n/a	n/a	1	50	1
1504.308	1	10	n/a	n/a	1	50	2
1505.5746	1	10	n/a	n/a	1	50	3
1506.858	1	10	n/a	n/a	1	50	4
1507.9246	1	10	n/a	n/a	1	50	5
1508.9912	1	21	n/a	n/a	1	50	0
1510.2078	1	10	n/a	n/a	1	50	1
1511.2576	1	10	n/a	n/a	1	50	2
1536.1436	1	82	n/a	n/a	1	0	0
1536.4086	1	82	n/a	n/a	1	0	0
1536.4726	1	82	n/a	n/a	1	0	0
1536.6146	1	82	n/a	n/a	1	0	0
1536.7326	1	82	n/a	n/a	1	0	0
1537.1436	1	82	n/a	n/a	1	0	0
1537.4416	1	82	n/a	n/a	1	0	0
1537.4806	1	82	n/a	n/a	1	0	0
1537.8606	1	82	n/a	n/a	1	0	0
1537.9856	1	82	n/a	n/a	1	0	0
1539.156	1	10	n/a	n/a	1	52	1
1540.256	1	10	n/a	n/a	1	52	2
1541.4558	1	10	n/a	n/a	1	52	3
1542.7558	1	10	n/a	n/a	1	52	4
1544.0558	1	10	n/a	n/a	1	52	5
1545.3556	1	21	n/a	n/a	1	52	0
1546.5888	1	10	n/a	n/a	1	52	1
1547.8222	1	21	n/a	n/a	1	52	0
1548.9888	1	10	n/a	n/a	1	52	1
1550.2054	1	10	n/a	n/a	1	52	2
1551.422	1	10	n/a	n/a	1	52	3
1552.7052	1	10	n/a	n/a	1	52	4
1553.8052	1	10	n/a	n/a	1	52	5
1554.905	1	21	n/a	n/a	1	52	0
1555.9384	1	10	n/a	n/a	1	52	1
1557.0716	1	10	n/a	n/a	1	52	2
1558.1716	1	10	n/a	n/a	1	52	3
1559.2714	1	21	n/a	n/a	1	52	0
1560.5714	1	10	n/a	n/a	1	52	1
1561.8714	1	21	n/a	n/a	1	52	0
1562.797	1	82	n/a	n/a	1	0	0
1562.833	1	82	n/a	n/a	1	0	0
1562.986	1	82	n/a	n/a	1	0	0
1563.051	1	82	n/a	n/a	1	0	0
1563.399	1	82	n/a	n/a	1	0	0
1563.797	1	82	n/a	n/a	1	0	0
1563.873	1	82	n/a	n/a	1	0	0
1564.018	1	82	n/a	n/a	1	0	0
1564.435	1	82	n/a	n/a	1	0	0
1564.685	1	82	n/a	n/a	1	0	0
1565.7878	1	10	n/a	n/a	1	52	1
1566.8876	1	21	n/a	n/a	1	52	0
1567.971	1	10	n/a	n/a	1	52	1
1569.1876	1	10	n/a	n/a	1	52	2
1570.2542	1	10	n/a	n/a	1	52	3
1571.3208	1	21	n/a	n/a	1	52	0
1572.5374	1	10	n/a	n/a	1	52	1
1573.6872	1	10	n/a	n/a	1	52	2
1574.7372	1	10	n/a	n/a	1	52	3
1576.0204	1	10	n/a	n/a	1	52	4
1577.1538	1	10	n/a	n/a	1	52	5
1578.287	1	21	n/a	n/a	1	52	0
1579.4702	1	10	n/a	n/a	1	52	1
1580.6536	1	21	n/a	n/a	1	52	0
1581.9202	1	10	n/a	n/a	1	52	1
1583.0034	1	10	n/a	n/a	1	52	2
1584.32	1	10	n/a	n/a	1	52	3
1585.5032	1	10	n/a	n/a	1	52	4
1586.5698	1	10	n/a	n/a	1	52	5
1587.6364	1	21	n/a	n/a	1	52	0
1588.3732	1	82	n/a	n/a	1	0	0
1588.4862	1	82	n/a	n/a	1	0	0
1588.9152	1	82	n/a	n/a	1	0	0
1589.2172	1	82	n/a	n/a	1	0	0
1589.2462	1	82	n/a	n/a	1	0	0
1589.3732	1	82	n/a	n/a	1	0	0
1589.7692	1	82	n/a	n/a	1	0	0
1589.9382	1	82	n/a	n/a	1	0	0
1589.9912	1	82	n/a	n/a	1	0	0
1590.2562	1	82	n/a	n/a	1	0	0
1591.353	1	10	n/a	n/a	1	52	1
1592.4362	1	21	n/a	n/a	1	52	0
1593.6528	1	10	n/a	n/a	1	52	1
1594.786	1	10	n/a	n/a	1	52	2
1596.0194	1	10	n/a	n/a	1	52	3
1597.2526	1	21	n/a	n/a	1	52	0
1598.5692	1	10	n/a	n/a	1	52	1
1599.8858	1	21	n/a	n/a	1	52	0
1601.0024	1	10	n/a	n/a	1	52	1
1602.119	1	21	n/a	n/a	1	52	0
1603.3688	1	10	n/a	n/a	1	52	1
1604.6854	1	10	n/a	n/a	1	52	2
1605.7688	1	10	n/a	n/a	1	52	3
1607.0854	1	10	n/a	n/a	1	52	4
1608.3686	1	10	n/a	n/a	1	52	5
1609.6518	1	21	n/a	n/a	1	52	0
1610.9352	1	10	n/a	n/a	1	52	1
1612.085	1	10	n/a	n/a	1	52	2
1613.335	1	10	n/a	n/a	1	52	3
1614.5848	1	21	n/a	n/a	1	52	0
1615.5616	1	82	n/a	n/a	1	0	0
1615.8256	1	82	n/a	n/a	1	0	0
1615.9586	1	82	n/a	n/a	1	0	0
1616.0066	1	82	n/a	n/a	1	0	0
1616.3106	1	82	n/a	n/a	1	0	0
1616.5616	1	82	n/a	n/a	1	0	0
1616.7246	1	82	n/a	n/a	1	0	0
1616.8526	1	82	n/a	n/a	1	0	0
1617.2276	1	82	n/a	n/a	1	0	0
1617.4506	1	82	n/a	n/a	1	0	0
1618.6014	1	10	n/a	n/a	1	52	1
1619.8346	1	10	n/a	n/a	1	52	2
1620.9846	1	10	n/a	n/a	1	52	3
1622.1344	1	21	n/a	n/a	1	52	0
1623.401	1	10	n/a	n/a	1	52	1
1624.4842	1	10	n/a	n/a	1	52	2
1625.6342	1	10	n/a	n/a	1	52	3
1626.7842	1	21	n/a	n/a	1	52	0
1627.8842	1	10	n/a	n/a	1	52	1
1628.984	1	21	n/a	n/a	1	52	0
1630.3172	1	10	n/a	n/a	1	52	1
1631.6506	1	21	n/a	n/a	1	52	0
1632.6838	1	10	n/a	n/a	1	52	1
1633.7338	1	10	n/a	n/a	1	52	2
1634.7836	1	10	n/a	n/a	1	52	3
1635.8336	1	21	n/a	n/a	1	52	0
1636.9002	1	10	n/a	n/a	1	52	1
1638.2002	1	10	n/a	n/a	1	52	2
1639.2668	1	10	n/a	n/a	1	52	3
1640.3668	1	10	n/a	n/a	1	52	4
1641.1032	1	82	n/a	n/a	1	0	0
1641.1912	1	82	n/a	n/a	1	0	0
1641.6172	1	82	n/a	n/a	1	0	0
1641.7552	1	82	n/a	n/a	1	0	0
1641.9242	1	82	n/a	n/a	1	0	0
1642.1032	1	82	n/a	n/a	1	0	0
1642.3862	1	82	n/a	n/a	1	0	0
1642.5032	1	82	n/a	n/a	1	0	0
1642.5812	1	82	n/a	n/a	1	0	0
1642.7582	1	82	n/a	n/a	1	0	0
1644.2498	1	10	n/a	n/a	1	52	1
1645.433	1	10	n/a	n/a	1	52	2
1646.5664	1	10	n/a	n/a	1	52	3
1647.733	1	10	n/a	n/a	1	52	4
1648.9662	1	10	n/a	n/a	1	52	5
1650.1994	1	21	n/a	n/a	1	52	0
1651.316	1	10	n/a	n/a	1	52	1
1652.4494	1	10	n/a	n/a	1	52	2
1653.5326	1	10	n/a	n/a	1	52	3
1654.7826	1	10	n/a	n/a	1	52	4
1655.8492	1	10	n/a	n/a	1	52	5
1656.8824	1	10	n/a	n/a	1	52	6
1658.1824	1	10	n/a	n/a	1	52	7
1659.4822	1	21	n/a	n/a	1	52	0
1660.6822	1	10	n/a	n/a	1	52	1
1661.7988	1	10	n/a	n/a	1	52	2
1663.0486	1	10	n/a	n/a	1	52	3
1664.1154	1	10	n/a	n/a	1	52	4
1665.1486	1	10	n/a	n/a	1	52	5
1666.1818	1	21	n/a	n/a	1	52	0
1792.821	1	81	n/a	n/a	1	0	0
1793.021	1	81	n/a	n/a	1	0	0
1793.221	1	81	n/a	n/a	1	0	0
1793.421	1	81	n/a	n/a	1	0	0
1793.621	1	81	n/a	n/a	1	0	0
1793.8212	1	81	n/a	n/a	1	0	0
1794.0212	1	81	n/a	n/a	1	0	0
1794.2212	1	81	n/a	n/a	1	0	0
1794.4212	1	81	n/a	n/a	1	0	0
1794.6212	1	81	n/a	n/a	1	0	0
1795.8408	1	10	n/a	n/a	1	51	1
1797.0074	1	10	n/a	n/a	1	51	2
1798.0408	1	10	n/a	n/a	1	51	3
1799.074	1	21	n/a	n/a	1	51	0
1800.2406	1	10	n/a	n/a	1	51	1
1801.4072	1	21	n/a	n/a	1	51	0
1802.7238	1	10	n/a	n/a	1	51	1
1804.0238	1	10	n/a	n/a	1	51	2
1805.1736	1	10	n/a	n/a	1	51	3
1806.3236	1	21	n/a	n/a	1	51	0
1807.4568	1	10	n/a	n/a	1	51	1
1808.6734	1	10	n/a	n/a	1	51	2
1809.9066	1	10	n/a	n/a	1	51	3
1811.14	1	21	n/a	n/a	1	51	0
1812.2398	1	10	n/a	n/a	1	51	1
1813.5398	1	10	n/a	n/a	1	51	2
1814.7564	1	10	n/a	n/a	1	51	3
1815.9064	1	10	n/a	n/a	1	51	4
1817.123	1	10	n/a	n/a	1	51	5
1818.3396	1	21	n/a	n/a	1	51	0
1819.345	1	81	n/a	n/a	1	0	0
1819.545	1	81	n/a	n/a	1	0	0
1819.745	1	81	n/a	n/a	1	0	0
1819.945	1	81	n/a	n/a	1	0	0
1820.145	1	81	n/a	n/a	1	0	0
1820.345	1	81	n/a	n/a	1	0	0
1820.545	1	81	n/a	n/a	1	0	0
1820.745	1	81	n/a	n/a	1	0	0
1820.945	1	81	n/a	n/a	1	0	0
1821.145	1	81	n/a	n/a	1	0	0
1822.3726	1	10	n/a	n/a	1	51	1
1823.6392	1	10	n/a	n/a	1	51	2
1824.7392	1	10	n/a	n/a	1	51	3
1825.839	1	21	n/a	n/a	1	51	0
1826.9056	1	10	n/a	n/a	1	51	1
1828.0722	1	10	n/a	n/a	1	51	2
1829.3888	1	10	n/a	n/a	1	51	3
1830.4222	1	10	n/a	n/a	1	51	4
1831.5388	1	10	n/a	n/a	1	51	5
1832.6554	1	21	n/a	n/a	1	51	0
1833.8386	1	10	n/a	n/a	1	51	1
1835.0218	1	21	n/a	n/a	1	51	0
1836.1384	1	10	n/a	n/a	1	51	1
1837.255	1	10	n/a	n/a	1	51	2
1838.3384	1	10	n/a	n/a	1	51	3
1839.4216	1	10	n/a	n/a	1	51	4
1840.6548	1	10	n/a	n/a	1	51	5
1841.8214	1	10	n/a	n/a	1	51	6
1843.0214	1	10	n/a	n/a	1	51	7
1844.2214	1	21	n/a	n/a	1	51	0
1845.189	1	81	n/a	n/a	1	0	0
1845.389	1	81	n/a	n/a	1	0	0
1845.589	1	81	n/a	n/a	1	0	0
1845.789	1	81	n/a	n/a	1	0	0
1845.989	1	81	n/a	n/a	1	0	0
1846.189	1	81	n/a	n/a	1	0	0
1846.389	1	81	n/a	n/a	1	0	0
1846.589	1	81	n/a	n/a	1	0	0
1846.789	1	81	n/a	n/a	1	0	0
1846.989	1	81	n/a	n/a	1	0	0
1848.1544	1	10	n/a	n/a	1	51	1
1849.221	1	10	n/a	n/a	1	51	2
1850.4376	1	10	n/a	n/a	1	51	3
1851.471	1	10	n/a	n/a	1	51	4
1852.6042	1	10	n/a	n/a	1	51	5
1853.7374	1	21	n/a	n/a	1	51	0
1854.904	1	10	n/a	n/a	1	51	1
1856.1206	1	10	n/a	n/a	1	51	2
1857.3206	1	10	n/a	n/a	1	51	3
1858.4872	1	10	n/a	n/a	1	51	4
1859.5372	1	10	n/a	n/a	1	51	5
1860.837	1	10	n/a	n/a	1	51	6
1861.9202	1	10	n/a	n/a	1	51	7
1863.0036	1	21	n/a	n/a	1	51	0
1864.1536	1	10	n/a	n/a	1	51	1
1865.32	1	10	n/a	n/a	1	51	2
1866.52	1	10	n/a	n/a	1	51	3
1867.67	1	10	n/a	n/a	1	51	4
1868.8532	1	10	n/a	n/a	1	51	5
1870.1032	1	10	n/a	n/a	1	51	6
1871.1876	1	81	n/a	n/a	1	0	0
1871.3876	1	81	n/a	n/a	1	0	0
1871.5876	1	81	n/a	n/a	1	0	0
1871.7876	1	81	n/a	n/a	1	0	0
1871.9876	1	81	n/a	n/a	1	0	0
1872.1876	1	81	n/a	n/a	1	0	0
1872.3876	1	81	n/a	n/a	1	0	0
1872.5876	1	81	n/a	n/a	1	0	0
1872.7876	1	81	n/a	n/a	1	0	0
1872.9876	1	81	n/a	n/a	1	0	0
1874.1862	1	10	n/a	n/a	1	51	1
1875.4528	1	10	n/a	n/a	1	51	2
1876.7694	1	10	n/a	n/a	1	51	3
1878.0194	1	10	n/a	n/a	1	51	4
1879.2526	1	10	n/a	n/a	1	51	5
1880.4358	1	10	n/a	n/a	1	51	6
1881.7524	1	10	n/a	n/a	1	51	7
1883.069	1	21	n/a	n/a	1	51	0
1884.219	1	10	n/a	n/a	1	51	1
1885.3022	1	10	n/a	n/a	1	51	2
1886.5356	1	10	n/a	n/a	1	51	3
1887.7688	1	21	n/a	n/a	1	51	0
1888.852	1	10	n/a	n/a	1	51	1
1889.902	1	10	n/a	n/a	1	51	2
1890.952	1	10	n/a	n/a	1	51	3
1892.0186	1	10	n/a	n/a	1	51	4
1893.1352	1	10	n/a	n/a	1	51	5
1894.2518	1	10	n/a	n/a	1	51	6
1895.485	1	10	n/a	n/a	1	51	7
1896.7182	1	21	n/a	n/a	1	51	0
1897.4436	1	81	n/a	n/a	1	0	0
1897.6436	1	81	n/a	n/a	1	0	0
1897.8436	1	81	n/a	n/a	1	0	0
1898.0436	1	81	n/a	n/a	1	0	0
1898.2436	1	81	n/a	n/a	1	0	0
1898.4436	1	81	n/a	n/a	1	0	0
1898.6436	1	81	n/a	n/a	1	0	0
1898.8436	1	81	n/a	n/a	1	0	0
1899.0436	1	81	n/a	n/a	1	0	0
1899.2436	1	81	n/a	n/a	1	0	0
1900.5514	1	10	n/a	n/a	1	51	1
1901.7012	1	10	n/a	n/a	1	51	2
1902.8012	1	10	n/a	n/a	1	51	3
1904.1012	1	10	n/a	n/a	1	51	4
1905.1344	1	10	n/a	n/a	1	51	5
1906.1676	1	21	n/a	n/a	1	51	0
1907.401	1	10	n/a	n/a	1	51	1
1908.7176	1	10	n/a	n/a	1	51	2
1909.8174	1	10	n/a	n/a	1	51	3
1910.9174	1	21	n/a	n/a	1	51	0
1912.0174	1	10	n/a	n/a	1	51	1
1913.1172	1	21	n/a	n/a	1	51	0
1914.2338	1	10	n/a	n/a	1	51	1
1915.4838	1	10	n/a	n/a	1	51	2
1916.7338	1	10	n/a	n/a	1	51	3
1917.9504	1	10	n/a	n/a	1	51	4
1919.117	1	10	n/a	n/a	1	51	5
1920.2336	1	10	n/a	n/a	1	51	6
1921.3002	1	10	n/a	n/a	1	51	7
1922.3668	1	21	n/a	n/a	1	51	0
1933.7542	1	82	n/a	n/a	1	0	0
1934.0412	1	82	n/a	n/a	1	0	0
1934.1062	1	82	n/a	n/a	1	0	0
1934.3612	1	82	n/a	n/a	1	0	0
1934.6812	1	82	n/a	n/a	1	0	0
1934.7542	1	82	n/a	n/a	1	0	0
1934.7752	1	82	n/a	n/a	1	0	0
1935.1632	1	82	n/a	n/a	1	0	0
1935.2872	1	82	n/a	n/a	1	0	0
1935.4412	1	82	n/a	n/a	1	0	0
1936.7826	1	10	n/a	n/a	1	50	1
1937.9824	1	10	n/a	n/a	1	50	2
1939.1824	1	10	n/a	n/a	1	50	3
1940.2156	1	10	n/a	n/a	1	50	4
1941.3656	1	10	n/a	n/a	1	50	5
1942.5156	1	21	n/a	n/a	1	50	0
1943.6322	1	10	n/a	n/a	1	50	1
1944.7488	1	21	n/a	n/a	1	50	0
1945.9486	1	10	n/a	n/a	1	50	1
1946.982	1	10	n/a	n/a	1	50	2
1948.1818	1	10	n/a	n/a	1	50	3
1949.3984	1	10	n/a	n/a	1	50	4
1950.615	1	10	n/a	n/a	1	50	5
1951.9316	1	10	n/a	n/a	1	50	6
1952.9816	1	10	n/a	n/a	1	50	7
1954.0316	1	21	n/a	n/a	1	50	0
1955.1982	1	10	n/a	n/a	1	50	1
1956.3648	1	21	n/a	n/a	1	50	0
1957.4646	1	10	n/a	n/a	1	50	1
1958.5646	1	21	n/a	n/a	1	50	0
1959.4144	1	82	n/a	n/a	1	0	0
1959.4602	1	82	n/a	n/a	1	0	0
1959.6192	1	82	n/a	n/a	1	0	0
1960.0042	1	82	n/a	n/a	1	0	0
1960.2472	1	82	n/a	n/a	1	0	0
1960.4144	1	82	n/a	n/a	1	0	0
1960.5894	1	82	n/a	n/a	1	0	0
1960.9762	1	82	n/a	n/a	1	0	0
1961.0992	1	82	n/a	n/a	1	0	0
1961.1712	1	82	n/a	n/a	1	0	0
1962.3644	1	10	n/a	n/a	1	50	1
1963.4144	1	10	n/a	n/a	1	50	2
1964.531	1	10	n/a	n/a	1	50	3
1965.6476	1	21	n/a	n/a	1	50	0
1966.6974	1	10	n/a	n/a	1	50	1
1967.964	1	10	n/a	n/a	1	50	2
1969.1974	1	10	n/a	n/a	1	50	3
1970.4306	1	10	n/a	n/a	1	50	4
1971.5138	1	10	n/a	n/a	1	50	5
1972.597	1	21	n/a	n/a	1	50	0
1973.6304	1	10	n/a	n/a	1	50	1
1974.947	1	10	n/a	n/a	1	50	2
1976.0802	1	10	n/a	n/a	1	50	3
1977.3634	1	10	n/a	n/a	1	50	4
1978.5968	1	10	n/a	n/a	1	50	5
1979.83	1	21	n/a	n/a	1	50	0
1980.9966	1	10	n/a	n/a	1	50	1
1982.2132	1	10	n/a	n/a	1	50	2
1983.5132	1	10	n/a	n/a	1	50	3
1984.713	1	10	n/a	n/a	1	50	4
1985.5904	1	82	n/a	n/a	1	0	0
1985.7334	1	82	n/a	n/a	1	0	0
1986.0324	1	82	n/a	n/a	1	0	0
1986.4124	1	82	n/a	n/a	1	0	0
1986.5094	1	82	n/a	n/a	1	0	0
1986.5904	1	82	n/a	n/a	1	0	0
1986.7596	1	82	n/a	n/a	1	0	0
1986.8674	1	82	n/a	n/a	1	0	0
1987.2994	1	82	n/a	n/a	1	0	0
1987.4344	1	82	n/a	n/a	1	0	0
1988.5794	1	10	n/a	n/a	1	50	1
1989.646	1	10	n/a	n/a	1	50	2
1990.8794	1	10	n/a	n/a	1	50	3
1991.9292	1	10	n/a	n/a	1	50	4
1993.0626	1	10	n/a	n/a	1	50	5
1994.2624	1	10	n/a	n/a	1	50	6
1995.2958	1	10	n/a	n/a	1	50	7
1996.329	1	21	n/a	n/a	1	50	0
1997.4456	1	10	n/a	n/a	1	50	1
1998.5456	1	10	n/a	n/a	1	50	2
1999.7954	1	10	n/a	n/a	1	50	3
2001.0454	1	21	n/a	n/a	1	50	0
2002.262	1	10	n/a	n/a	1	50	1
2003.462	1	10	n/a	n/a	1	50	2
2004.5618	1	10	n/a	n/a	1	50	3
2005.7284	1	10	n/a	n/a	1	50	4
2006.995	1	10	n/a	n/a	1	50	5
2008.2616	1	21	n/a	n/a	1	50	0
2009.5116	1	10	n/a	n/a	1	50	1
2010.6448	1	10	n/a	n/a	1	50	2
2011.7124	1	82	n/a	n/a	1	0	0
2011.9504	1	82	n/a	n/a	1	0	0
2012.1014	1	82	n/a	n/a	1	0	0
2012.2944	1	82	n/a	n/a	1	0	0
2012.6244	1	82	n/a	n/a	1	0	0
2012.7124	1	82	n/a	n/a	1	0	0
2013.0244	1	82	n/a	n/a	1	0	0
2013.2464	1	82	n/a	n/a	1	0	0
2013.5854	1	82	n/a	n/a	1	0	0
2013.6674	1	82	n/a	n/a	1	0	0
2014.8446	1	10	n/a	n/a	1	50	1
2016.1278	1	10	n/a	n/a	1	50	2
2017.4444	1	10	n/a	n/a	1	50	3
2018.761	1	21	n/a	n/a	1	50	0
2020.011	1	10	n/a	n/a	1	50	1
2021.261	1	21	n/a	n/a	1	50	0
2022.4274	1	10	n/a	n/a	1	50	1
2023.594	1	21	n/a	n/a	1	50	0
2024.794	1	10	n/a	n/a	1	50	1
2025.9106	1	10	n/a	n/a	1	50	2
2027.1772	1	10	n/a	n/a	1	50	3
2028.2104	1	10	n/a	n/a	1	50	4
2029.2604	1	10	n/a	n/a	1	50	5
2030.4436	1	10	n/a	n/a	1	50	6
2031.5436	1	10	n/a	n/a	1	50	7
2032.6436	1	21	n/a	n/a	1	50	0
2033.8434	1	10	n/a	n/a	1	50	1
2035.0434	1	21	n/a	n/a	1	50	0
2036.1434	1	10	n/a	n/a	1	50	1
2037.36	1	10	n/a	n/a	1	50	2
2038.1834	1	82	n/a	n/a	1	0	0
2038.4234	1	82	n/a	n/a	1	0	0
2038.7624	1	82	n/a	n/a	1	0	0
2039.0614	1	82	n/a	n/a	1	0	0
2039.1014	1	82	n/a	n/a	1	0	0
2039.1834	1	82	n/a	n/a	1	0	0
2039.2174	1	82	n/a	n/a	1	0	0
2039.5134	1	82	n/a	n/a	1	0	0
2039.8554	1	82	n/a	n/a	1	0	0
2040.0014	1	82	n/a	n/a	1	0	0
2041.1264	1	10	n/a	n/a	1	50	1
2042.3596	1	10	n/a	n/a	1	50	2
2043.4762	1	10	n/a	n/a	1	50	3
2044.5928	1	21	n/a	n/a	1	50	0
2045.7762	1	10	n/a	n/a	1	50	1
2047.0094	1	10	n/a	n/a	1	50	2
2048.126	1	10	n/a	n/a	1	50	3
2049.4426	1	10	n/a	n/a	1	50	4
2050.5926	1	10	n/a	n/a	1	50	5
2051.7424	1	21	n/a	n/a	1	50	0
2052.909	1	10	n/a	n/a	1	50	1
2054.0756	1	21	n/a	n/a	1	50	0
2055.109	1	10	n/a	n/a	1	50	1
2056.2922	1	10	n/a	n/a	1	50	2
2057.5754	1	10	n/a	n/a	1	50	3
2058.8254	1	10	n/a	n/a	1	50	4
2060.042	1	10	n/a	n/a	1	50	5
2061.2586	1	21	n/a	n/a	1	50	0
2062.3252	1	10	n/a	n/a	1	50	1
2063.5084	1	10	n/a	n/a	1	50	2
2094.275	1	82	n/a	n/a	1	0	0
2094.329	1	82	n/a	n/a	1	0	0
2094.36	1	82	n/a	n/a	1	0	0
2094.582	1	82	n/a	n/a	1	0	0
2094.946	1	82	n/a	n/a	1	0	0
2095.275	1	82	n/a	n/a	1	0	0
2095.581	1	82	n/a	n/a	1	0	0
2095.987	1	82	n/a	n/a	1	0	0
2096.166	1	82	n/a	n/a	1	0	0
2096.234	1	82	n/a	n/a	1	0	0
2097.2898	1	10	n/a	n/a	1	52	1
2098.423	1	10	n/a	n/a	1	52	2
2099.4896	1	10	n/a	n/a	1	52	3
2100.7062	1	10	n/a	n/a	1	52	4
2102.0228	1	10	n/a	n/a	1	52	5
2103.3394	1	21	n/a	n/a	1	52	0
2104.3894	1	10	n/a	n/a	1	52	1
2105.6892	1	10	n/a	n/a	1	52	2
2106.9226	1	10	n/a	n/a	1	52	3
2108.2392	1	10	n/a	n/a	1	52	4
2109.5224	1	10	n/a	n/a	1	52	5
2110.6056	1	10	n/a	n/a	1	52	6
2111.7388	1	10	n/a	n/a	1	52	7
2112.8722	1	21	n/a	n/a	1	52	0
2114.1888	1	10	n/a	n/a	1	52	1
2115.522	1	21	n/a	n/a	1	52	0
2116.572	1	10	n/a	n/a	1	52	1
2117.7886	1	10	n/a	n/a	1	52	2
2119.0052	1	10	n/a	n/a	1	52	3
2120.0384	1	10	n/a	n/a	1	52	4
2121.1528	1	82	n/a	n/a	1	0	0
2121.1798	1	82	n/a	n/a	1	0	0
2121.4248	1	82	n/a	n/a	1	0	0
2121.4798	1	82	n/a	n/a	1	0	0
2121.7728	1	82	n/a	n/a	1	0	0
2122.1528	1	82	n/a	n/a	1	0	0
2122.3758	1	82	n/a	n/a	1	0	0
2122.6738	1	82	n/a	n/a	1	0	0
2122.7128	1	82	n/a	n/a	1	0	0
2122.8728	1	82	n/a	n/a	1	0	0
2124.3382	1	10	n/a	n/a	1	52	1
2125.638	1	21	n/a	n/a	1	52	0
2126.838	1	10	n/a	n/a	1	52	1
2127.988	1	10	n/a	n/a	1	52	2
2129.1546	1	10	n/a	n/a	1	52	3
2130.3212	1	10	n/a	n/a	1	52	4
2131.4878	1	10	n/a	n/a	1	52	5
2132.6544	1	21	n/a	n/a	1	52	0
2133.971	1	10	n/a	n/a	1	52	1
2135.0542	1	10	n/a	n/a	1	52	2
2136.2708	1	10	n/a	n/a	1	52	3
2137.4874	1	21	n/a	n/a	1	52	0
2138.654	1	10	n/a	n/a	1	52	1
2139.9372	1	10	n/a	n/a	1	52	2
2141.1538	1	10	n/a	n/a	1	52	3
2142.3704	1	21	n/a	n/a	1	52	0
2143.537	1	10	n/a	n/a	1	52	1
2144.7036	1	21	n/a	n/a	1	52	0
2145.8868	1	10	n/a	n/a	1	52	1
2147.0702	1	21	n/a	n/a	1	52	0
2148.0978	1	82	n/a	n/a	1	0	0
2148.3768	1	82	n/a	n/a	1	0	0
2148.4258	1	82	n/a	n/a	1	0	0
2148.5568	1	82	n/a	n/a	1	0	0
2148.9528	1	82	n/a	n/a	1	0	0
2149.0978	1	82	n/a	n/a	1	0	0
2149.1218	1	82	n/a	n/a	1	0	0
2149.2528	1	82	n/a	n/a	1	0	0
2149.6458	1	82	n/a	n/a	1	0	0
2149.9378	1	82	n/a	n/a	1	0	0
2151.1532	1	10	n/a	n/a	1	52	1
2152.2532	1	10	n/a	n/a	1	52	2
2153.4032	1	10	n/a	n/a	1	52	3
2154.553	1	10	n/a	n/a	1	52	4
2155.6696	1	10	n/a	n/a	1	52	5
2156.9528	1	10	n/a	n/a	1	52	6
2158.1694	1	10	n/a	n/a	1	52	7
2159.386	1	21	n/a	n/a	1	52	0
2160.6194	1	10	n/a	n/a	1	52	1
2161.886	1	10	n/a	n/a	1	52	2
2163.0358	1	10	n/a	n/a	1	52	3
2164.1858	1	21	n/a	n/a	1	52	0
2165.419	1	10	n/a	n/a	1	52	1
2166.4524	1	10	n/a	n/a	1	52	2
2167.619	1	10	n/a	n/a	1	52	3
2168.7856	1	21	n/a	n/a	1	52	0
2169.8354	1	10	n/a	n/a	1	52	1
2170.8854	1	21	n/a	n/a	1	52	0
2172.0686	1	10	n/a	n/a	1	52	1
2173.252	1	21	n/a	n/a	1	52	0
2174.0146	1	82	n/a	n/a	1	0	0
2174.0576	1	82	n/a	n/a	1	0	0
2174.3616	1	82	n/a	n/a	1	0	0
2174.5486	1	82	n/a	n/a	1	0	0
2174.6856	1	82	n/a	n/a	1	0	0
2175.0146	1	82	n/a	n/a	1	0	0
2175.0846	1	82	n/a	n/a	1	0	0
2175.3246	1	82	n/a	n/a	1	0	0
2175.4526	1	82	n/a	n/a	1	0	0
2175.4866	1	82	n/a	n/a	1	0	0
2177.0018	1	10	n/a	n/a	1	52	1
2178.3184	1	10	n/a	n/a	1	52	2
2179.5682	1	10	n/a	n/a	1	52	3
2180.8348	1	10	n/a	n/a	1	52	4
2181.9848	1	10	n/a	n/a	1	52	5
2183.2014	1	10	n/a	n/a	1	52	6
2184.268	1	10	n/a	n/a	1	52	7
2185.3346	1	21	n/a	n/a	1	52	0
2186.5344	1	10	n/a	n/a	1	52	1
2187.801	1	10	n/a	n/a	1	52	2
2189.051	1	10	n/a	n/a	1	52	3
2190.301	1	21	n/a	n/a	1	52	0
2191.5508	1	10	n/a	n/a	1	52	1
2192.8674	1	10	n/a	n/a	1	52	2
2193.9174	1	10	n/a	n/a	1	52	3
2195.234	1	10	n/a	n/a	1	52	4
2196.3172	1	10	n/a	n/a	1	52	5
2197.4672	1	10	n/a	n/a	1	52	6
2198.7004	1	10	n/a	n/a	1	52	7
2199.9336	1	21	n/a	n/a	1	52	0
2200.7794	1	82	n/a	n/a	1	0	0
2201.0064	1	82	n/a	n/a	1	0	0
2201.0744	1	82	n/a	n/a	1	0	0
2201.1694	1	82	n/a	n/a	1	0	0
2201.2944	1	82	n/a	n/a	1	0	0
2201.7794	1	82	n/a	n/a	1	0	0
2201.9424	1	82	n/a	n/a	1	0	0
2201.9834	1	82	n/a	n/a	1	0	0
2202.3284	1	82	n/a	n/a	1	0	0
2202.5524	1	82	n/a	n/a	1	0	0
2203.8502	1	10	n/a	n/a	1	52	1
2204.9334	1	10	n/a	n/a	1	52	2
2206.1166	1	10	n/a	n/a	1	52	3
2207.3	1	21	n/a	n/a	1	52	0
2208.4166	1	10	n/a	n/a	1	52	1
2209.5332	1	21	n/a	n/a	1	52	0
2210.5998	1	10	n/a	n/a	1	52	1
2211.7496	1	10	n/a	n/a	1	52	2
2212.8996	1	10	n/a	n/a	1	52	3
2214.0496	1	21	n/a	n/a	1	52	0
2215.1662	1	10	n/a	n/a	1	52	1
2216.2828	1	21	n/a	n/a	1	52	0
2217.466	1	10	n/a	n/a	1	52	1
2218.6492	1	21	n/a	n/a	1	52	0
2219.7326	1	10	n/a	n/a	1	52	1
2220.8824	1	10	n/a	n/a	1	52	2
2222.199	1	10	n/a	n/a	1	52	3
2223.5156	1	21	n/a	n/a	1	52	0
2224.749	1	10	n/a	n/a	1	52	1
2225.8488	1	10	n/a	n/a	1	52	2
