onset	duration	value	response	rt	good	TMS	seq
57.3348	1	81	n/a	n/a	1	0	0
57.5348	1	81	n/a	n/a	1	0	0
57.7348	1	81	n/a	n/a	1	0	0
57.9348	1	81	n/a	n/a	1	0	0
58.1348	1	81	n/a	n/a	1	0	0
58.3348	1	81	n/a	n/a	1	0	0
58.5348	1	81	n/a	n/a	1	0	0
58.7348	1	81	n/a	n/a	1	0	0
58.9348	1	81	n/a	n/a	1	0	0
59.1348	1	81	n/a	n/a	1	0	0
60.4898	1	10	n/a	n/a	1	51	1
61.7064	1	10	n/a	n/a	1	51	2
62.8562	1	10	n/a	n/a	1	51	3
63.9562	1	10	n/a	n/a	1	51	4
65.2062	1	10	n/a	n/a	1	51	5
66.4394	1	10	n/a	n/a	1	51	6
67.5894	1	10	n/a	n/a	1	51	7
68.7392	1	21	n/a	n/a	1	51	0
70.0726	1	10	n/a	n/a	1	51	1
71.2558	1	10	n/a	n/a	1	51	2
72.339	1	10	n/a	n/a	1	51	3
73.4224	1	21	n/a	n/a	1	51	0
74.4556	1	10	n/a	n/a	1	51	1
75.7056	1	10	n/a	n/a	1	51	2
76.7388	1	10	n/a	n/a	1	51	3
77.7888	1	10	n/a	n/a	1	51	4
79.0886	1	10	n/a	n/a	1	51	5
80.3886	1	21	n/a	n/a	1	51	0
81.5886	1	10	n/a	n/a	1	51	1
82.7718	1	10	n/a	n/a	1	51	2
91.6402	1	81	n/a	n/a	1	0	0
91.8402	1	81	n/a	n/a	1	0	0
92.0402	1	81	n/a	n/a	1	0	0
92.2402	1	81	n/a	n/a	1	0	0
92.4402	1	81	n/a	n/a	1	0	0
92.6402	1	81	n/a	n/a	1	0	0
92.8402	1	81	n/a	n/a	1	0	0
93.0402	1	81	n/a	n/a	1	0	0
93.2402	1	81	n/a	n/a	1	0	0
93.4402	1	81	n/a	n/a	1	0	0
94.7044	1	10	n/a	n/a	1	51	1
95.771	1	10	n/a	n/a	1	51	2
96.821	1	10	n/a	n/a	1	51	3
97.8708	1	21	n/a	n/a	1	51	0
99.1708	1	10	n/a	n/a	1	51	1
100.4708	1	10	n/a	n/a	1	51	2
101.7872	1	10	n/a	n/a	1	51	3
103.0538	1	10	n/a	n/a	1	51	4
104.1204	1	10	n/a	n/a	1	51	5
105.2204	1	10	n/a	n/a	1	51	6
106.537	1	10	n/a	n/a	1	51	7
107.8536	1	21	n/a	n/a	1	51	0
109.1368	1	10	n/a	n/a	1	51	1
110.4368	1	10	n/a	n/a	1	51	2
111.47	1	10	n/a	n/a	1	51	3
112.8032	1	10	n/a	n/a	1	51	4
114.0532	1	10	n/a	n/a	1	51	5
115.2364	1	10	n/a	n/a	1	51	6
116.353	1	10	n/a	n/a	1	51	7
117.4696	1	21	n/a	n/a	1	51	0
128.9602	1	81	n/a	n/a	1	0	0
129.1602	1	81	n/a	n/a	1	0	0
129.3602	1	81	n/a	n/a	1	0	0
129.5602	1	81	n/a	n/a	1	0	0
129.7602	1	81	n/a	n/a	1	0	0
129.9602	1	81	n/a	n/a	1	0	0
130.1602	1	81	n/a	n/a	1	0	0
130.3602	1	81	n/a	n/a	1	0	0
130.5602	1	81	n/a	n/a	1	0	0
130.7602	1	81	n/a	n/a	1	0	0
132.0188	1	10	n/a	n/a	1	51	1
133.1854	1	21	n/a	n/a	1	51	0
134.2354	1	10	n/a	n/a	1	51	1
135.352	1	10	n/a	n/a	1	51	2
136.5186	1	10	n/a	n/a	1	51	3
137.5852	1	10	n/a	n/a	1	51	4
138.6518	1	10	n/a	n/a	1	51	5
139.7184	1	10	n/a	n/a	1	51	6
141.0016	1	10	n/a	n/a	1	51	7
142.2848	1	21	n/a	n/a	1	51	0
143.3348	1	10	n/a	n/a	1	51	1
144.4014	1	10	n/a	n/a	1	51	2
145.5346	1	10	n/a	n/a	1	51	3
146.8346	1	10	n/a	n/a	1	51	4
148.0846	1	10	n/a	n/a	1	51	5
149.3344	1	21	n/a	n/a	1	51	0
150.551	1	10	n/a	n/a	1	51	1
151.7676	1	21	n/a	n/a	1	51	0
153.0842	1	10	n/a	n/a	1	51	1
154.2174	1	10	n/a	n/a	1	51	2
165.1672	1	81	n/a	n/a	1	0	0
165.3672	1	81	n/a	n/a	1	0	0
165.5672	1	81	n/a	n/a	1	0	0
165.7672	1	81	n/a	n/a	1	0	0
165.9672	1	81	n/a	n/a	1	0	0
166.1672	1	81	n/a	n/a	1	0	0
166.3672	1	81	n/a	n/a	1	0	0
166.5672	1	81	n/a	n/a	1	0	0
166.7672	1	81	n/a	n/a	1	0	0
166.9672	1	81	n/a	n/a	1	0	0
168.2334	1	10	n/a	n/a	1	51	1
169.4	1	21	n/a	n/a	1	51	0
170.5832	1	10	n/a	n/a	1	51	1
171.683	1	10	n/a	n/a	1	51	2
172.783	1	10	n/a	n/a	1	51	3
173.883	1	21	n/a	n/a	1	51	0
174.983	1	10	n/a	n/a	1	51	1
176.2494	1	10	n/a	n/a	1	51	2
177.516	1	10	n/a	n/a	1	51	3
178.6326	1	10	n/a	n/a	1	51	4
179.7992	1	10	n/a	n/a	1	51	5
181.1158	1	10	n/a	n/a	1	51	6
182.2158	1	10	n/a	n/a	1	51	7
183.3158	1	21	n/a	n/a	1	51	0
184.5156	1	10	n/a	n/a	1	51	1
185.7156	1	21	n/a	n/a	1	51	0
186.8822	1	10	n/a	n/a	1	51	1
188.0488	1	10	n/a	n/a	1	51	2
189.3488	1	10	n/a	n/a	1	51	3
190.482	1	10	n/a	n/a	1	51	4
238.0616	1	81	n/a	n/a	1	0	0
238.2846	1	81	n/a	n/a	1	0	0
238.3856	1	81	n/a	n/a	1	0	0
238.4216	1	81	n/a	n/a	1	0	0
238.6766	1	81	n/a	n/a	1	0	0
239.0616	1	81	n/a	n/a	1	0	0
239.3526	1	81	n/a	n/a	1	0	0
239.4246	1	81	n/a	n/a	1	0	0
239.8586	1	81	n/a	n/a	1	0	0
240.0206	1	81	n/a	n/a	1	0	0
241.2456	1	10	n/a	n/a	1	50	1
242.5456	1	10	n/a	n/a	1	50	2
243.7954	1	10	n/a	n/a	1	50	3
245.0454	1	21	n/a	n/a	1	50	0
246.1286	1	10	n/a	n/a	1	50	1
247.3786	1	10	n/a	n/a	1	50	2
248.4286	1	10	n/a	n/a	1	50	3
249.4784	1	21	n/a	n/a	1	50	0
250.6284	1	10	n/a	n/a	1	50	1
251.6616	1	10	n/a	n/a	1	50	2
252.7116	1	10	n/a	n/a	1	50	3
253.9782	1	10	n/a	n/a	1	50	4
255.2448	1	10	n/a	n/a	1	50	5
256.3614	1	10	n/a	n/a	1	50	6
257.4446	1	10	n/a	n/a	1	50	7
258.528	1	21	n/a	n/a	1	50	0
259.7778	1	10	n/a	n/a	1	50	1
260.9278	1	10	n/a	n/a	1	50	2
262.211	1	10	n/a	n/a	1	50	3
263.3776	1	10	n/a	n/a	1	50	4
275.2822	1	81	n/a	n/a	1	0	0
275.6912	1	81	n/a	n/a	1	0	0
275.8392	1	81	n/a	n/a	1	0	0
276.0692	1	81	n/a	n/a	1	0	0
276.1812	1	81	n/a	n/a	1	0	0
276.2822	1	81	n/a	n/a	1	0	0
276.3352	1	81	n/a	n/a	1	0	0
276.6262	1	81	n/a	n/a	1	0	0
276.7772	1	81	n/a	n/a	1	0	0
277.0252	1	81	n/a	n/a	1	0	0
278.4934	1	10	n/a	n/a	1	50	1
279.6266	1	10	n/a	n/a	1	50	2
280.91	1	10	n/a	n/a	1	50	3
282.1932	1	21	n/a	n/a	1	50	0
283.293	1	10	n/a	n/a	1	50	1
284.343	1	10	n/a	n/a	1	50	2
285.543	1	10	n/a	n/a	1	50	3
286.7428	1	21	n/a	n/a	1	50	0
288.0262	1	10	n/a	n/a	1	50	1
289.0928	1	10	n/a	n/a	1	50	2
290.376	1	10	n/a	n/a	1	50	3
291.6092	1	10	n/a	n/a	1	50	4
292.6426	1	10	n/a	n/a	1	50	5
293.6758	1	21	n/a	n/a	1	50	0
294.7924	1	10	n/a	n/a	1	50	1
295.909	1	21	n/a	n/a	1	50	0
297.0922	1	10	n/a	n/a	1	50	1
298.2756	1	21	n/a	n/a	1	50	0
299.5754	1	10	n/a	n/a	1	50	1
300.6088	1	10	n/a	n/a	1	50	2
310.1682	1	81	n/a	n/a	1	0	0
310.3362	1	81	n/a	n/a	1	0	0
310.4792	1	81	n/a	n/a	1	0	0
310.7512	1	81	n/a	n/a	1	0	0
311.1302	1	81	n/a	n/a	1	0	0
311.1682	1	81	n/a	n/a	1	0	0
311.3472	1	81	n/a	n/a	1	0	0
311.6502	1	81	n/a	n/a	1	0	0
311.7872	1	81	n/a	n/a	1	0	0
311.8622	1	81	n/a	n/a	1	0	0
313.1914	1	10	n/a	n/a	1	50	1
314.4246	1	10	n/a	n/a	1	50	2
315.5744	1	10	n/a	n/a	1	50	3
316.691	1	10	n/a	n/a	1	50	4
317.9744	1	10	n/a	n/a	1	50	5
319.2576	1	21	n/a	n/a	1	50	0
320.5576	1	10	n/a	n/a	1	50	1
321.8908	1	10	n/a	n/a	1	50	2
323.1574	1	10	n/a	n/a	1	50	3
324.4572	1	10	n/a	n/a	1	50	4
325.5906	1	10	n/a	n/a	1	50	5
326.6572	1	10	n/a	n/a	1	50	6
327.9238	1	10	n/a	n/a	1	50	7
329.1904	1	21	n/a	n/a	1	50	0
330.4736	1	10	n/a	n/a	1	50	1
331.7402	1	10	n/a	n/a	1	50	2
332.9402	1	10	n/a	n/a	1	50	3
334.2568	1	10	n/a	n/a	1	50	4
335.3566	1	10	n/a	n/a	1	50	5
336.49	1	10	n/a	n/a	1	50	6
348.1834	1	81	n/a	n/a	1	0	0
348.6044	1	81	n/a	n/a	1	0	0
348.9054	1	81	n/a	n/a	1	0	0
348.9254	1	81	n/a	n/a	1	0	0
349.0674	1	81	n/a	n/a	1	0	0
349.1836	1	81	n/a	n/a	1	0	0
349.2526	1	81	n/a	n/a	1	0	0
349.4206	1	81	n/a	n/a	1	0	0
349.7646	1	81	n/a	n/a	1	0	0
350.1306	1	81	n/a	n/a	1	0	0
351.3724	1	10	n/a	n/a	1	50	1
352.5222	1	10	n/a	n/a	1	50	2
353.6222	1	10	n/a	n/a	1	50	3
354.6554	1	10	n/a	n/a	1	50	4
355.9054	1	10	n/a	n/a	1	50	5
357.0054	1	10	n/a	n/a	1	50	6
358.072	1	10	n/a	n/a	1	50	7
359.1386	1	21	n/a	n/a	1	50	0
360.1718	1	10	n/a	n/a	1	50	1
361.2218	1	21	n/a	n/a	1	50	0
362.3716	1	10	n/a	n/a	1	50	1
363.5216	1	21	n/a	n/a	1	50	0
364.5882	1	10	n/a	n/a	1	50	1
365.6548	1	21	n/a	n/a	1	50	0
366.6882	1	10	n/a	n/a	1	50	1
367.7214	1	21	n/a	n/a	1	50	0
368.7714	1	10	n/a	n/a	1	50	1
369.988	1	10	n/a	n/a	1	50	2
371.1878	1	10	n/a	n/a	1	50	3
372.3878	1	21	n/a	n/a	1	50	0
423.4272	1	81	n/a	n/a	1	0	0
423.7922	1	81	n/a	n/a	1	0	0
423.8242	1	81	n/a	n/a	1	0	0
423.8942	1	81	n/a	n/a	1	0	0
424.2332	1	81	n/a	n/a	1	0	0
424.4272	1	81	n/a	n/a	1	0	0
424.6482	1	81	n/a	n/a	1	0	0
424.7952	1	81	n/a	n/a	1	0	0
425.1032	1	81	n/a	n/a	1	0	0
425.3702	1	81	n/a	n/a	1	0	0
426.4512	1	10	n/a	n/a	1	52	1
427.7678	1	10	n/a	n/a	1	52	2
428.801	1	10	n/a	n/a	1	52	3
429.8344	1	21	n/a	n/a	1	52	0
430.9342	1	10	n/a	n/a	1	52	1
432.2508	1	10	n/a	n/a	1	52	2
433.2842	1	10	n/a	n/a	1	52	3
434.6008	1	10	n/a	n/a	1	52	4
435.834	1	10	n/a	n/a	1	52	5
437.0672	1	21	n/a	n/a	1	52	0
438.3504	1	10	n/a	n/a	1	52	1
439.6338	1	21	n/a	n/a	1	52	0
440.8336	1	10	n/a	n/a	1	52	1
441.917	1	10	n/a	n/a	1	52	2
443.2002	1	10	n/a	n/a	1	52	3
444.3502	1	10	n/a	n/a	1	52	4
445.55	1	10	n/a	n/a	1	52	5
446.7834	1	10	n/a	n/a	1	52	6
447.9166	1	10	n/a	n/a	1	52	7
449.0498	1	21	n/a	n/a	1	52	0
458.8566	1	81	n/a	n/a	1	0	0
458.8846	1	81	n/a	n/a	1	0	0
459.0456	1	81	n/a	n/a	1	0	0
459.1016	1	81	n/a	n/a	1	0	0
459.3906	1	81	n/a	n/a	1	0	0
459.8566	1	81	n/a	n/a	1	0	0
460.2316	1	81	n/a	n/a	1	0	0
460.4566	1	81	n/a	n/a	1	0	0
460.5266	1	81	n/a	n/a	1	0	0
460.6946	1	81	n/a	n/a	1	0	0
461.9324	1	10	n/a	n/a	1	52	1
463.1656	1	10	n/a	n/a	1	52	2
464.3322	1	10	n/a	n/a	1	52	3
465.6488	1	10	n/a	n/a	1	52	4
466.9322	1	10	n/a	n/a	1	52	5
468.2154	1	21	n/a	n/a	1	52	0
469.4652	1	10	n/a	n/a	1	52	1
470.4986	1	10	n/a	n/a	1	52	2
471.7984	1	10	n/a	n/a	1	52	3
472.8318	1	10	n/a	n/a	1	52	4
473.9316	1	10	n/a	n/a	1	52	5
475.0482	1	10	n/a	n/a	1	52	6
476.1648	1	10	n/a	n/a	1	52	7
477.2814	1	21	n/a	n/a	1	52	0
478.4314	1	10	n/a	n/a	1	52	1
479.6146	1	10	n/a	n/a	1	52	2
480.748	1	10	n/a	n/a	1	52	3
481.8812	1	21	n/a	n/a	1	52	0
483.1644	1	10	n/a	n/a	1	52	1
484.481	1	10	n/a	n/a	1	52	2
492.8718	1	81	n/a	n/a	1	0	0
492.9678	1	81	n/a	n/a	1	0	0
493.3568	1	81	n/a	n/a	1	0	0
493.5088	1	81	n/a	n/a	1	0	0
493.7738	1	81	n/a	n/a	1	0	0
493.8718	1	81	n/a	n/a	1	0	0
493.9188	1	81	n/a	n/a	1	0	0
494.0068	1	81	n/a	n/a	1	0	0
494.2508	1	81	n/a	n/a	1	0	0
494.3798	1	81	n/a	n/a	1	0	0
495.9304	1	10	n/a	n/a	1	52	1
497.147	1	10	n/a	n/a	1	52	2
498.247	1	10	n/a	n/a	1	52	3
499.4634	1	10	n/a	n/a	1	52	4
500.73	1	10	n/a	n/a	1	52	5
501.9466	1	10	n/a	n/a	1	52	6
503.0132	1	10	n/a	n/a	1	52	7
504.0798	1	21	n/a	n/a	1	52	0
505.1132	1	10	n/a	n/a	1	52	1
506.1464	1	10	n/a	n/a	1	52	2
507.413	1	10	n/a	n/a	1	52	3
508.6796	1	10	n/a	n/a	1	52	4
509.9128	1	10	n/a	n/a	1	52	5
511.1462	1	10	n/a	n/a	1	52	6
512.4294	1	10	n/a	n/a	1	52	7
513.7126	1	21	n/a	n/a	1	52	0
514.896	1	10	n/a	n/a	1	52	1
516.1458	1	10	n/a	n/a	1	52	2
517.379	1	10	n/a	n/a	1	52	3
518.6124	1	21	n/a	n/a	1	52	0
527.7242	1	81	n/a	n/a	1	0	0
528.0182	1	81	n/a	n/a	1	0	0
528.1842	1	81	n/a	n/a	1	0	0
528.3852	1	81	n/a	n/a	1	0	0
528.4582	1	81	n/a	n/a	1	0	0
528.7242	1	81	n/a	n/a	1	0	0
528.7472	1	81	n/a	n/a	1	0	0
529.0052	1	81	n/a	n/a	1	0	0
529.1712	1	81	n/a	n/a	1	0	0
529.5882	1	81	n/a	n/a	1	0	0
530.8282	1	10	n/a	n/a	1	52	1
531.9116	1	10	n/a	n/a	1	52	2
533.2282	1	10	n/a	n/a	1	52	3
534.5448	1	21	n/a	n/a	1	52	0
535.7614	1	10	n/a	n/a	1	52	1
536.7946	1	10	n/a	n/a	1	52	2
537.9946	1	10	n/a	n/a	1	52	3
539.0778	1	10	n/a	n/a	1	52	4
540.2444	1	10	n/a	n/a	1	52	5
541.3776	1	10	n/a	n/a	1	52	6
542.6776	1	10	n/a	n/a	1	52	7
543.9774	1	21	n/a	n/a	1	52	0
545.294	1	10	n/a	n/a	1	52	1
546.6106	1	21	n/a	n/a	1	52	0
547.894	1	10	n/a	n/a	1	52	1
549.1772	1	21	n/a	n/a	1	52	0
550.4772	1	10	n/a	n/a	1	52	1
551.7104	1	10	n/a	n/a	1	52	2
552.8936	1	10	n/a	n/a	1	52	3
553.9436	1	10	n/a	n/a	1	52	4
692.3916	1	81	n/a	n/a	1	0	0
692.5916	1	81	n/a	n/a	1	0	0
692.7916	1	81	n/a	n/a	1	0	0
692.9916	1	81	n/a	n/a	1	0	0
693.1916	1	81	n/a	n/a	1	0	0
693.3916	1	81	n/a	n/a	1	0	0
693.5916	1	81	n/a	n/a	1	0	0
693.7916	1	81	n/a	n/a	1	0	0
693.9916	1	81	n/a	n/a	1	0	0
694.1916	1	81	n/a	n/a	1	0	0
695.4228	1	10	n/a	n/a	1	51	1
696.5726	1	10	n/a	n/a	1	51	2
697.706	1	10	n/a	n/a	1	51	3
698.7892	1	10	n/a	n/a	1	51	4
700.0058	1	10	n/a	n/a	1	51	5
701.2558	1	10	n/a	n/a	1	51	6
702.4722	1	10	n/a	n/a	1	51	7
703.6888	1	21	n/a	n/a	1	51	0
704.9054	1	10	n/a	n/a	1	51	1
706.122	1	21	n/a	n/a	1	51	0
707.1554	1	10	n/a	n/a	1	51	1
741.8866	1	21	n/a	n/a	1	51	0
743.0198	1	10	n/a	n/a	1	51	1
744.1532	1	21	n/a	n/a	1	51	0
745.4698	1	10	n/a	n/a	1	51	1
806.1994	1	10	n/a	n/a	1	51	2
807.4326	1	10	n/a	n/a	1	51	3
808.6326	1	10	n/a	n/a	1	51	4
809.8992	1	10	n/a	n/a	1	51	5
811.1658	1	21	n/a	n/a	1	51	0
819.4094	1	81	n/a	n/a	1	0	0
819.6094	1	81	n/a	n/a	1	0	0
819.8094	1	81	n/a	n/a	1	0	0
820.0094	1	81	n/a	n/a	1	0	0
820.2094	1	81	n/a	n/a	1	0	0
820.4094	1	81	n/a	n/a	1	0	0
820.6094	1	81	n/a	n/a	1	0	0
820.8094	1	81	n/a	n/a	1	0	0
821.0094	1	81	n/a	n/a	1	0	0
821.2094	1	81	n/a	n/a	1	0	0
822.5318	1	10	n/a	n/a	1	51	1
823.7484	1	10	n/a	n/a	1	51	2
824.9482	1	10	n/a	n/a	1	51	3
826.1316	1	10	n/a	n/a	1	51	4
827.1648	1	10	n/a	n/a	1	51	5
828.348	1	10	n/a	n/a	1	51	6
829.598	1	10	n/a	n/a	1	51	7
830.848	1	21	n/a	n/a	1	51	0
832.1644	1	10	n/a	n/a	1	51	1
833.2478	1	10	n/a	n/a	1	51	2
834.281	1	10	n/a	n/a	1	51	3
835.5476	1	10	n/a	n/a	1	51	4
836.5976	1	10	n/a	n/a	1	51	5
837.6474	1	21	n/a	n/a	1	51	0
838.814	1	10	n/a	n/a	1	51	1
840.064	1	10	n/a	n/a	1	51	2
841.2472	1	10	n/a	n/a	1	51	3
842.4306	1	21	n/a	n/a	1	51	0
843.5138	1	10	n/a	n/a	1	51	1
844.647	1	10	n/a	n/a	1	51	2
855.8876	1	81	n/a	n/a	1	0	0
856.0876	1	81	n/a	n/a	1	0	0
856.2876	1	81	n/a	n/a	1	0	0
856.4876	1	81	n/a	n/a	1	0	0
856.6876	1	81	n/a	n/a	1	0	0
856.8876	1	81	n/a	n/a	1	0	0
857.0876	1	81	n/a	n/a	1	0	0
857.2876	1	81	n/a	n/a	1	0	0
857.4876	1	81	n/a	n/a	1	0	0
857.6876	1	81	n/a	n/a	1	0	0
859.0628	1	10	n/a	n/a	1	51	1
860.3294	1	10	n/a	n/a	1	51	2
861.6294	1	10	n/a	n/a	1	51	3
862.7794	1	10	n/a	n/a	1	51	4
863.9126	1	10	n/a	n/a	1	51	5
865.0458	1	21	n/a	n/a	1	51	0
866.329	1	10	n/a	n/a	1	51	1
867.479	1	10	n/a	n/a	1	51	2
868.7956	1	10	n/a	n/a	1	51	3
870.1122	1	21	n/a	n/a	1	51	0
871.1622	1	10	n/a	n/a	1	51	1
872.3454	1	10	n/a	n/a	1	51	2
873.612	1	10	n/a	n/a	1	51	3
874.8952	1	10	n/a	n/a	1	51	4
875.9618	1	10	n/a	n/a	1	51	5
877.2618	1	10	n/a	n/a	1	51	6
878.4284	1	10	n/a	n/a	1	51	7
879.595	1	21	n/a	n/a	1	51	0
880.6282	1	10	n/a	n/a	1	51	1
881.6616	1	21	n/a	n/a	1	51	0
890.9662	1	81	n/a	n/a	1	0	0
891.1662	1	81	n/a	n/a	1	0	0
891.3662	1	81	n/a	n/a	1	0	0
891.5662	1	81	n/a	n/a	1	0	0
891.7662	1	81	n/a	n/a	1	0	0
891.9662	1	81	n/a	n/a	1	0	0
892.1662	1	81	n/a	n/a	1	0	0
892.3662	1	81	n/a	n/a	1	0	0
892.5662	1	81	n/a	n/a	1	0	0
892.7662	1	81	n/a	n/a	1	0	0
894.094	1	10	n/a	n/a	1	51	1
895.2106	1	10	n/a	n/a	1	51	2
896.4272	1	10	n/a	n/a	1	51	3
897.7438	1	10	n/a	n/a	1	51	4
898.8604	1	10	n/a	n/a	1	51	5
900.0604	1	10	n/a	n/a	1	51	6
901.2104	1	10	n/a	n/a	1	51	7
902.3602	1	21	n/a	n/a	1	51	0
903.6768	1	10	n/a	n/a	1	51	1
904.9102	1	10	n/a	n/a	1	51	2
906.2266	1	10	n/a	n/a	1	51	3
907.41	1	10	n/a	n/a	1	51	4
908.6932	1	10	n/a	n/a	1	51	5
909.7764	1	10	n/a	n/a	1	51	6
910.993	1	10	n/a	n/a	1	51	7
912.2096	1	21	n/a	n/a	1	51	0
913.3762	1	10	n/a	n/a	1	51	1
914.4262	1	10	n/a	n/a	1	51	2
915.6928	1	10	n/a	n/a	1	51	3
916.826	1	10	n/a	n/a	1	51	4
968.9056	1	81	n/a	n/a	1	0	0
969.0426	1	81	n/a	n/a	1	0	0
969.1386	1	81	n/a	n/a	1	0	0
969.5566	1	81	n/a	n/a	1	0	0
969.8746	1	81	n/a	n/a	1	0	0
969.9056	1	81	n/a	n/a	1	0	0
970.2656	1	81	n/a	n/a	1	0	0
970.3236	1	81	n/a	n/a	1	0	0
970.4176	1	81	n/a	n/a	1	0	0
970.6966	1	81	n/a	n/a	1	0	0
971.9894	1	10	n/a	n/a	1	50	1
973.156	1	10	n/a	n/a	1	50	2
974.4726	1	10	n/a	n/a	1	50	3
975.7392	1	10	n/a	n/a	1	50	4
976.7892	1	10	n/a	n/a	1	50	5
977.939	1	10	n/a	n/a	1	50	6
979.189	1	10	n/a	n/a	1	50	7
980.4388	1	21	n/a	n/a	1	50	0
981.7054	1	10	n/a	n/a	1	50	1
982.972	1	21	n/a	n/a	1	50	0
984.2554	1	10	n/a	n/a	1	50	1
985.422	1	10	n/a	n/a	1	50	2
986.7218	1	10	n/a	n/a	1	50	3
988.0384	1	10	n/a	n/a	1	50	4
989.105	1	10	n/a	n/a	1	50	5
990.1716	1	21	n/a	n/a	1	50	0
991.4382	1	10	n/a	n/a	1	50	1
992.7048	1	21	n/a	n/a	1	50	0
993.938	1	10	n/a	n/a	1	50	1
995.2714	1	10	n/a	n/a	1	50	2
1006.5078	1	81	n/a	n/a	1	0	0
1006.5528	1	81	n/a	n/a	1	0	0
1006.6808	1	81	n/a	n/a	1	0	0
1006.9498	1	81	n/a	n/a	1	0	0
1007.2408	1	81	n/a	n/a	1	0	0
1007.5078	1	81	n/a	n/a	1	0	0
1007.6378	1	81	n/a	n/a	1	0	0
1007.7278	1	81	n/a	n/a	1	0	0
1008.0208	1	81	n/a	n/a	1	0	0
1008.2708	1	81	n/a	n/a	1	0	0
1009.5372	1	10	n/a	n/a	1	50	1
1010.5704	1	10	n/a	n/a	1	50	2
1011.7036	1	10	n/a	n/a	1	50	3
1012.9036	1	10	n/a	n/a	1	50	4
1014.0368	1	10	n/a	n/a	1	50	5
1015.1702	1	21	n/a	n/a	1	50	0
1016.22	1	10	n/a	n/a	1	50	1
1017.4866	1	10	n/a	n/a	1	50	2
1018.7366	1	10	n/a	n/a	1	50	3
1019.8366	1	10	n/a	n/a	1	50	4
1020.8698	1	10	n/a	n/a	1	50	5
1021.903	1	10	n/a	n/a	1	50	6
1023.0864	1	10	n/a	n/a	1	50	7
1024.2696	1	21	n/a	n/a	1	50	0
1025.3196	1	10	n/a	n/a	1	50	1
1026.4528	1	10	n/a	n/a	1	50	2
1027.5194	1	10	n/a	n/a	1	50	3
1028.586	1	21	n/a	n/a	1	50	0
1029.8692	1	10	n/a	n/a	1	50	1
1031.1026	1	10	n/a	n/a	1	50	2
1042.106	1	81	n/a	n/a	1	0	0
1042.171	1	81	n/a	n/a	1	0	0
1042.286	1	81	n/a	n/a	1	0	0
1042.59	1	81	n/a	n/a	1	0	0
1043.006	1	81	n/a	n/a	1	0	0
1043.106	1	81	n/a	n/a	1	0	0
1043.184	1	81	n/a	n/a	1	0	0
1043.48	1	81	n/a	n/a	1	0	0
1043.641	1	81	n/a	n/a	1	0	0
1043.8862	1	81	n/a	n/a	1	0	0
1045.235	1	10	n/a	n/a	1	50	1
1046.385	1	10	n/a	n/a	1	50	2
1047.5016	1	10	n/a	n/a	1	50	3
1048.6182	1	21	n/a	n/a	1	50	0
1049.9014	1	10	n/a	n/a	1	50	1
1051.2012	1	21	n/a	n/a	1	50	0
1052.5178	1	10	n/a	n/a	1	50	1
1053.6844	1	10	n/a	n/a	1	50	2
1054.7178	1	10	n/a	n/a	1	50	3
1055.751	1	21	n/a	n/a	1	50	0
1056.8342	1	10	n/a	n/a	1	50	1
1058.0842	1	10	n/a	n/a	1	50	2
1059.2008	1	10	n/a	n/a	1	50	3
1060.4008	1	10	n/a	n/a	1	50	4
1061.4506	1	10	n/a	n/a	1	50	5
1062.5006	1	21	n/a	n/a	1	50	0
1063.7006	1	10	n/a	n/a	1	50	1
1064.8672	1	10	n/a	n/a	1	50	2
1066.017	1	10	n/a	n/a	1	50	3
1067.167	1	21	n/a	n/a	1	50	0
1076.2898	1	81	n/a	n/a	1	0	0
1076.5608	1	81	n/a	n/a	1	0	0
1076.6258	1	81	n/a	n/a	1	0	0
1076.8158	1	81	n/a	n/a	1	0	0
1077.1118	1	81	n/a	n/a	1	0	0
1077.2898	1	81	n/a	n/a	1	0	0
1077.4418	1	81	n/a	n/a	1	0	0
1077.7138	1	81	n/a	n/a	1	0	0
1077.9208	1	81	n/a	n/a	1	0	0
1078.1488	1	81	n/a	n/a	1	0	0
1079.4996	1	10	n/a	n/a	1	50	1
1080.6996	1	10	n/a	n/a	1	50	2
1081.8828	1	10	n/a	n/a	1	50	3
1083.0828	1	10	n/a	n/a	1	50	4
1084.3326	1	10	n/a	n/a	1	50	5
1085.5826	1	21	n/a	n/a	1	50	0
1086.8324	1	10	n/a	n/a	1	50	1
1088.0824	1	21	n/a	n/a	1	50	0
1089.1324	1	10	n/a	n/a	1	50	1
1090.1656	1	10	n/a	n/a	1	50	2
1091.2322	1	10	n/a	n/a	1	50	3
1092.2988	1	21	n/a	n/a	1	50	0
1093.5154	1	10	n/a	n/a	1	50	1
1094.732	1	21	n/a	n/a	1	50	0
1095.882	1	10	n/a	n/a	1	50	1
1097.0152	1	10	n/a	n/a	1	50	2
1098.0652	1	10	n/a	n/a	1	50	3
1099.315	1	10	n/a	n/a	1	50	4
1100.615	1	10	n/a	n/a	1	50	5
1101.915	1	21	n/a	n/a	1	50	0
1124.2988	1	81	n/a	n/a	1	0	0
1124.4068	1	81	n/a	n/a	1	0	0
1124.7408	1	81	n/a	n/a	1	0	0
1124.9208	1	81	n/a	n/a	1	0	0
1125.1968	1	81	n/a	n/a	1	0	0
1125.2988	1	81	n/a	n/a	1	0	0
1125.6578	1	81	n/a	n/a	1	0	0
1126.0608	1	81	n/a	n/a	1	0	0
1126.0858	1	81	n/a	n/a	1	0	0
1126.1828	1	81	n/a	n/a	1	0	0
1127.3468	1	10	n/a	n/a	1	52	1
1128.5466	1	10	n/a	n/a	1	52	2
1129.6132	1	10	n/a	n/a	1	52	3
1130.6798	1	21	n/a	n/a	1	52	0
1131.8798	1	10	n/a	n/a	1	52	1
1132.9464	1	10	n/a	n/a	1	52	2
1134.2462	1	10	n/a	n/a	1	52	3
1135.5462	1	21	n/a	n/a	1	52	0
1136.6462	1	10	n/a	n/a	1	52	1
1137.9294	1	10	n/a	n/a	1	52	2
1139.0126	1	10	n/a	n/a	1	52	3
1140.2126	1	10	n/a	n/a	1	52	4
1141.3958	1	10	n/a	n/a	1	52	5
1142.4958	1	10	n/a	n/a	1	52	6
1143.7958	1	10	n/a	n/a	1	52	7
1145.0956	1	21	n/a	n/a	1	52	0
1146.3622	1	10	n/a	n/a	1	52	1
1147.6288	1	21	n/a	n/a	1	52	0
1148.7954	1	10	n/a	n/a	1	52	1
1149.8954	1	10	n/a	n/a	1	52	2
1161.122	1	81	n/a	n/a	1	0	0
1161.17	1	81	n/a	n/a	1	0	0
1161.303	1	81	n/a	n/a	1	0	0
1161.735	1	81	n/a	n/a	1	0	0
1162.009	1	81	n/a	n/a	1	0	0
1162.122	1	81	n/a	n/a	1	0	0
1162.192	1	81	n/a	n/a	1	0	0
1162.468	1	81	n/a	n/a	1	0	0
1162.854	1	81	n/a	n/a	1	0	0
1162.98	1	81	n/a	n/a	1	0	0
1164.1612	1	10	n/a	n/a	1	52	1
1165.3778	1	10	n/a	n/a	1	52	2
1166.611	1	10	n/a	n/a	1	52	3
1167.761	1	10	n/a	n/a	1	52	4
1168.8608	1	10	n/a	n/a	1	52	5
1169.9608	1	21	n/a	n/a	1	52	0
1171.2108	1	10	n/a	n/a	1	52	1
1172.4106	1	10	n/a	n/a	1	52	2
1173.7272	1	10	n/a	n/a	1	52	3
1175.0438	1	21	n/a	n/a	1	52	0
1176.1938	1	10	n/a	n/a	1	52	1
1177.3104	1	10	n/a	n/a	1	52	2
1178.3936	1	10	n/a	n/a	1	52	3
1179.7102	1	10	n/a	n/a	1	52	4
1180.8434	1	10	n/a	n/a	1	52	5
1182.0268	1	10	n/a	n/a	1	52	6
1183.3434	1	10	n/a	n/a	1	52	7
1184.66	1	21	n/a	n/a	1	52	0
1185.9766	1	10	n/a	n/a	1	52	1
1187.1098	1	10	n/a	n/a	1	52	2
1199.1304	1	81	n/a	n/a	1	0	0
1199.4954	1	81	n/a	n/a	1	0	0
1199.7794	1	81	n/a	n/a	1	0	0
1199.8104	1	81	n/a	n/a	1	0	0
1199.9744	1	81	n/a	n/a	1	0	0
1200.1304	1	81	n/a	n/a	1	0	0
1200.1714	1	81	n/a	n/a	1	0	0
1200.5394	1	81	n/a	n/a	1	0	0
1200.6414	1	81	n/a	n/a	1	0	0
1200.9094	1	81	n/a	n/a	1	0	0
1202.1756	1	10	n/a	n/a	1	52	1
1203.3254	1	21	n/a	n/a	1	52	0
1204.5254	1	10	n/a	n/a	1	52	1
1205.742	1	10	n/a	n/a	1	52	2
1206.9086	1	10	n/a	n/a	1	52	3
1208.0418	1	10	n/a	n/a	1	52	4
1209.325	1	10	n/a	n/a	1	52	5
1210.5584	1	10	n/a	n/a	1	52	6
1211.7082	1	10	n/a	n/a	1	52	7
1212.8582	1	21	n/a	n/a	1	52	0
1213.9414	1	10	n/a	n/a	1	52	1
1215.1414	1	10	n/a	n/a	1	52	2
1216.1914	1	10	n/a	n/a	1	52	3
1217.2412	1	10	n/a	n/a	1	52	4
1218.5412	1	10	n/a	n/a	1	52	5
1219.8412	1	21	n/a	n/a	1	52	0
1221.091	1	10	n/a	n/a	1	52	1
1222.3244	1	10	n/a	n/a	1	52	2
1223.3576	1	10	n/a	n/a	1	52	3
1224.4242	1	10	n/a	n/a	1	52	4
1234.9088	1	81	n/a	n/a	1	0	0
1235.0138	1	81	n/a	n/a	1	0	0
1235.4428	1	81	n/a	n/a	1	0	0
1235.4978	1	81	n/a	n/a	1	0	0
1235.6308	1	81	n/a	n/a	1	0	0
1235.9088	1	81	n/a	n/a	1	0	0
1236.0468	1	81	n/a	n/a	1	0	0
1236.3018	1	81	n/a	n/a	1	0	0
1236.4908	1	81	n/a	n/a	1	0	0
1236.8228	1	81	n/a	n/a	1	0	0
1237.9734	1	10	n/a	n/a	1	52	1
1239.0734	1	10	n/a	n/a	1	52	2
1240.3232	1	10	n/a	n/a	1	52	3
1241.3898	1	10	n/a	n/a	1	52	4
1242.673	1	10	n/a	n/a	1	52	5
1243.773	1	10	n/a	n/a	1	52	6
1244.823	1	10	n/a	n/a	1	52	7
1245.8728	1	21	n/a	n/a	1	52	0
1247.1562	1	10	n/a	n/a	1	52	1
1248.4394	1	21	n/a	n/a	1	52	0
1249.656	1	10	n/a	n/a	1	52	1
1250.7392	1	10	n/a	n/a	1	52	2
1251.7892	1	10	n/a	n/a	1	52	3
1252.8392	1	21	n/a	n/a	1	52	0
1253.989	1	10	n/a	n/a	1	52	1
1255.189	1	10	n/a	n/a	1	52	2
1256.2722	1	10	n/a	n/a	1	52	3
1257.4888	1	10	n/a	n/a	1	52	4
1258.7222	1	10	n/a	n/a	1	52	5
1259.9554	1	10	n/a	n/a	1	52	6
1376.7222	1	81	n/a	n/a	1	0	0
1376.9222	1	81	n/a	n/a	1	0	0
1377.1222	1	81	n/a	n/a	1	0	0
1377.3222	1	81	n/a	n/a	1	0	0
1377.5222	1	81	n/a	n/a	1	0	0
1377.7224	1	81	n/a	n/a	1	0	0
1377.9224	1	81	n/a	n/a	1	0	0
1378.1224	1	81	n/a	n/a	1	0	0
1378.3224	1	81	n/a	n/a	1	0	0
1378.5224	1	81	n/a	n/a	1	0	0
1379.8436	1	10	n/a	n/a	1	51	1
1380.9768	1	10	n/a	n/a	1	51	2
1382.0768	1	10	n/a	n/a	1	51	3
1383.2434	1	10	n/a	n/a	1	51	4
1384.3432	1	10	n/a	n/a	1	51	5
1385.6266	1	10	n/a	n/a	1	51	6
1386.8264	1	10	n/a	n/a	1	51	7
1388.0264	1	21	n/a	n/a	1	51	0
1389.193	1	10	n/a	n/a	1	51	1
1390.243	1	10	n/a	n/a	1	51	2
1391.3928	1	10	n/a	n/a	1	51	3
1392.5928	1	10	n/a	n/a	1	51	4
1393.6928	1	10	n/a	n/a	1	51	5
1394.7926	1	21	n/a	n/a	1	51	0
1395.926	1	10	n/a	n/a	1	51	1
1397.2258	1	10	n/a	n/a	1	51	2
1398.4758	1	10	n/a	n/a	1	51	3
1399.759	1	10	n/a	n/a	1	51	4
1400.7922	1	10	n/a	n/a	1	51	5
1401.8256	1	21	n/a	n/a	1	51	0
1410.2702	1	81	n/a	n/a	1	0	0
1410.4702	1	81	n/a	n/a	1	0	0
1410.6702	1	81	n/a	n/a	1	0	0
1410.8702	1	81	n/a	n/a	1	0	0
1411.0702	1	81	n/a	n/a	1	0	0
1411.2702	1	81	n/a	n/a	1	0	0
1411.4702	1	81	n/a	n/a	1	0	0
1411.6702	1	81	n/a	n/a	1	0	0
1411.8702	1	81	n/a	n/a	1	0	0
1412.0702	1	81	n/a	n/a	1	0	0
1413.3082	1	10	n/a	n/a	1	51	1
1414.5748	1	10	n/a	n/a	1	51	2
1415.808	1	10	n/a	n/a	1	51	3
1417.108	1	10	n/a	n/a	1	51	4
1418.2578	1	10	n/a	n/a	1	51	5
1419.3078	1	10	n/a	n/a	1	51	6
1420.541	1	10	n/a	n/a	1	51	7
1421.7744	1	21	n/a	n/a	1	51	0
1423.0076	1	10	n/a	n/a	1	51	1
1424.2076	1	10	n/a	n/a	1	51	2
1425.5074	1	10	n/a	n/a	1	51	3
1426.574	1	10	n/a	n/a	1	51	4
1427.8406	1	10	n/a	n/a	1	51	5
1428.9906	1	10	n/a	n/a	1	51	6
1430.0406	1	10	n/a	n/a	1	51	7
1431.0904	1	21	n/a	n/a	1	51	0
1432.357	1	10	n/a	n/a	1	51	1
1433.4404	1	10	n/a	n/a	1	51	2
1434.6402	1	10	n/a	n/a	1	51	3
1435.8402	1	21	n/a	n/a	1	51	0
1447.2398	1	81	n/a	n/a	1	0	0
1447.4398	1	81	n/a	n/a	1	0	0
1447.6398	1	81	n/a	n/a	1	0	0
1447.8398	1	81	n/a	n/a	1	0	0
1448.0398	1	81	n/a	n/a	1	0	0
1448.24	1	81	n/a	n/a	1	0	0
1448.44	1	81	n/a	n/a	1	0	0
1448.64	1	81	n/a	n/a	1	0	0
1448.84	1	81	n/a	n/a	1	0	0
1449.04	1	81	n/a	n/a	1	0	0
1450.306	1	10	n/a	n/a	1	51	1
1451.4726	1	21	n/a	n/a	1	51	0
1452.7392	1	10	n/a	n/a	1	51	1
1453.8058	1	10	n/a	n/a	1	51	2
1454.9224	1	10	n/a	n/a	1	51	3
1456.239	1	10	n/a	n/a	1	51	4
1457.4388	1	10	n/a	n/a	1	51	5
1458.6388	1	21	n/a	n/a	1	51	0
1459.822	1	10	n/a	n/a	1	51	1
1461.0886	1	10	n/a	n/a	1	51	2
1462.2552	1	10	n/a	n/a	1	51	3
1463.4718	1	10	n/a	n/a	1	51	4
1464.6718	1	10	n/a	n/a	1	51	5
1465.7884	1	10	n/a	n/a	1	51	6
1467.0216	1	10	n/a	n/a	1	51	7
1468.2548	1	21	n/a	n/a	1	51	0
1469.3382	1	10	n/a	n/a	1	51	1
1470.5714	1	10	n/a	n/a	1	51	2
1471.6214	1	10	n/a	n/a	1	51	3
1472.6712	1	10	n/a	n/a	1	51	4
1481.1408	1	81	n/a	n/a	1	0	0
1481.3408	1	81	n/a	n/a	1	0	0
1481.5408	1	81	n/a	n/a	1	0	0
1481.7408	1	81	n/a	n/a	1	0	0
1481.9408	1	81	n/a	n/a	1	0	0
1482.1408	1	81	n/a	n/a	1	0	0
1482.3408	1	81	n/a	n/a	1	0	0
1482.5408	1	81	n/a	n/a	1	0	0
1482.7408	1	81	n/a	n/a	1	0	0
1482.9408	1	81	n/a	n/a	1	0	0
1484.2206	1	10	n/a	n/a	1	51	1
1485.4038	1	21	n/a	n/a	1	51	0
1486.4704	1	10	n/a	n/a	1	51	1
1487.7038	1	10	n/a	n/a	1	51	2
1489.0202	1	10	n/a	n/a	1	51	3
1490.0536	1	10	n/a	n/a	1	51	4
1491.1868	1	10	n/a	n/a	1	51	5
1492.32	1	21	n/a	n/a	1	51	0
1493.6034	1	10	n/a	n/a	1	51	1
1494.8866	1	21	n/a	n/a	1	51	0
1496.1698	1	10	n/a	n/a	1	51	1
1497.2032	1	10	n/a	n/a	1	51	2
1498.4364	1	10	n/a	n/a	1	51	3
1499.6696	1	21	n/a	n/a	1	51	0
1500.7862	1	10	n/a	n/a	1	51	1
1502.0862	1	10	n/a	n/a	1	51	2
1503.1362	1	10	n/a	n/a	1	51	3
1504.4026	1	10	n/a	n/a	1	51	4
1505.7026	1	10	n/a	n/a	1	51	5
1507.0026	1	21	n/a	n/a	1	51	0
1529.2256	1	81	n/a	n/a	1	0	0
1529.4256	1	81	n/a	n/a	1	0	0
1529.6256	1	81	n/a	n/a	1	0	0
1529.8256	1	81	n/a	n/a	1	0	0
1530.0256	1	81	n/a	n/a	1	0	0
1530.2256	1	81	n/a	n/a	1	0	0
1530.4256	1	81	n/a	n/a	1	0	0
1530.6256	1	81	n/a	n/a	1	0	0
1530.8256	1	81	n/a	n/a	1	0	0
1531.0256	1	81	n/a	n/a	1	0	0
1532.3344	1	10	n/a	n/a	1	50	1
1533.3676	1	10	n/a	n/a	1	50	2
1534.4508	1	10	n/a	n/a	1	50	3
1535.5342	1	21	n/a	n/a	1	50	0
1536.8008	1	10	n/a	n/a	1	50	1
1538.0506	1	10	n/a	n/a	1	50	2
1539.1672	1	10	n/a	n/a	1	50	3
1540.2838	1	21	n/a	n/a	1	50	0
1541.4838	1	10	n/a	n/a	1	50	1
1542.6838	1	21	n/a	n/a	1	50	0
1543.9336	1	10	n/a	n/a	1	50	1
1545.067	1	10	n/a	n/a	1	50	2
1546.3336	1	10	n/a	n/a	1	50	3
1547.45	1	10	n/a	n/a	1	50	4
1548.7166	1	10	n/a	n/a	1	50	5
1549.9832	1	21	n/a	n/a	1	50	0
1551.2666	1	10	n/a	n/a	1	50	1
1552.3332	1	10	n/a	n/a	1	50	2
1553.3998	1	10	n/a	n/a	1	50	3
1554.4664	1	21	n/a	n/a	1	50	0
1565.78	1	81	n/a	n/a	1	0	0
1565.98	1	81	n/a	n/a	1	0	0
1566.18	1	81	n/a	n/a	1	0	0
1566.38	1	81	n/a	n/a	1	0	0
1566.58	1	81	n/a	n/a	1	0	0
1566.78	1	81	n/a	n/a	1	0	0
1566.98	1	81	n/a	n/a	1	0	0
1567.18	1	81	n/a	n/a	1	0	0
1567.38	1	81	n/a	n/a	1	0	0
1567.58	1	81	n/a	n/a	1	0	0
1568.8154	1	10	n/a	n/a	1	50	1
1569.9154	1	10	n/a	n/a	1	50	2
1571.182	1	10	n/a	n/a	1	50	3
1572.2486	1	10	n/a	n/a	1	50	4
1573.4486	1	10	n/a	n/a	1	50	5
1574.5318	1	10	n/a	n/a	1	50	6
1575.7484	1	10	n/a	n/a	1	50	7
1576.965	1	21	n/a	n/a	1	50	0
1578.215	1	10	n/a	n/a	1	50	1
1579.2816	1	10	n/a	n/a	1	50	2
1580.4648	1	10	n/a	n/a	1	50	3
1581.6648	1	10	n/a	n/a	1	50	4
1582.898	1	10	n/a	n/a	1	50	5
1584.0478	1	10	n/a	n/a	1	50	6
1585.1978	1	10	n/a	n/a	1	50	7
1586.3478	1	21	n/a	n/a	1	50	0
1587.4144	1	10	n/a	n/a	1	50	1
1588.731	1	10	n/a	n/a	1	50	2
1589.8976	1	10	n/a	n/a	1	50	3
1591.0642	1	21	n/a	n/a	1	50	0
1602.306	1	81	n/a	n/a	1	0	0
1602.574	1	81	n/a	n/a	1	0	0
1602.639	1	81	n/a	n/a	1	0	0
1602.953	1	81	n/a	n/a	1	0	0
1603.114	1	81	n/a	n/a	1	0	0
1603.306	1	81	n/a	n/a	1	0	0
1603.7	1	81	n/a	n/a	1	0	0
1603.731	1	81	n/a	n/a	1	0	0
1604.1	1	81	n/a	n/a	1	0	0
1604.233	1	81	n/a	n/a	1	0	0
1605.38	1	10	n/a	n/a	1	50	1
1606.5632	1	21	n/a	n/a	1	50	0
1607.8132	1	10	n/a	n/a	1	50	1
1608.863	1	10	n/a	n/a	1	50	2
1609.9464	1	10	n/a	n/a	1	50	3
1611.0296	1	21	n/a	n/a	1	50	0
1612.1796	1	10	n/a	n/a	1	50	1
1613.2962	1	10	n/a	n/a	1	50	2
1614.396	1	10	n/a	n/a	1	50	3
1615.6294	1	10	n/a	n/a	1	50	4
1616.746	1	10	n/a	n/a	1	50	5
1617.9292	1	10	n/a	n/a	1	50	6
1618.9958	1	10	n/a	n/a	1	50	7
1620.0958	1	21	n/a	n/a	1	50	0
1621.2456	1	10	n/a	n/a	1	50	1
1622.4956	1	10	n/a	n/a	1	50	2
1623.6456	1	10	n/a	n/a	1	50	3
1624.7954	1	21	n/a	n/a	1	50	0
1625.9954	1	10	n/a	n/a	1	50	1
1627.0286	1	10	n/a	n/a	1	50	2
1638.8802	1	81	n/a	n/a	1	0	0
1638.9682	1	81	n/a	n/a	1	0	0
1639.3172	1	81	n/a	n/a	1	0	0
1639.3402	1	81	n/a	n/a	1	0	0
1639.4782	1	81	n/a	n/a	1	0	0
1639.8802	1	81	n/a	n/a	1	0	0
1639.9682	1	81	n/a	n/a	1	0	0
1640.2812	1	81	n/a	n/a	1	0	0
1640.3222	1	81	n/a	n/a	1	0	0
1640.4732	1	81	n/a	n/a	1	0	0
1641.9944	1	10	n/a	n/a	1	50	1
1643.1276	1	10	n/a	n/a	1	50	2
1644.3442	1	10	n/a	n/a	1	50	3
1645.6608	1	10	n/a	n/a	1	50	4
1646.8442	1	10	n/a	n/a	1	50	5
1648.0274	1	21	n/a	n/a	1	50	0
1649.3106	1	10	n/a	n/a	1	50	1
1650.5272	1	10	n/a	n/a	1	50	2
1651.6604	1	10	n/a	n/a	1	50	3
1652.8104	1	10	n/a	n/a	1	50	4
1653.8936	1	10	n/a	n/a	1	50	5
1655.177	1	10	n/a	n/a	1	50	6
1656.4768	1	10	n/a	n/a	1	50	7
1657.7768	1	21	n/a	n/a	1	50	0
1658.9268	1	10	n/a	n/a	1	50	1
1660.0766	1	21	n/a	n/a	1	50	0
1661.2932	1	10	n/a	n/a	1	50	1
1662.5098	1	21	n/a	n/a	1	50	0
1663.7264	1	10	n/a	n/a	1	50	1
1664.793	1	10	n/a	n/a	1	50	2
1683.3028	1	81	n/a	n/a	1	0	0
1683.5668	1	81	n/a	n/a	1	0	0
1683.6738	1	81	n/a	n/a	1	0	0
1684.0598	1	81	n/a	n/a	1	0	0
1684.1898	1	81	n/a	n/a	1	0	0
1684.303	1	81	n/a	n/a	1	0	0
1684.347	1	81	n/a	n/a	1	0	0
1684.418	1	81	n/a	n/a	1	0	0
1684.541	1	81	n/a	n/a	1	0	0
1684.837	1	81	n/a	n/a	1	0	0
1686.425	1	10	n/a	n/a	1	52	1
1687.6584	1	10	n/a	n/a	1	52	2
1688.6916	1	10	n/a	n/a	1	52	3
1689.8582	1	10	n/a	n/a	1	52	4
1691.1248	1	10	n/a	n/a	1	52	5
1692.3914	1	21	n/a	n/a	1	52	0
1693.458	1	10	n/a	n/a	1	52	1
1694.6912	1	10	n/a	n/a	1	52	2
1695.8912	1	10	n/a	n/a	1	52	3
1697.191	1	10	n/a	n/a	1	52	4
1698.341	1	10	n/a	n/a	1	52	5
1699.491	1	21	n/a	n/a	1	52	0
1700.7576	1	10	n/a	n/a	1	52	1
1702.0742	1	10	n/a	n/a	1	52	2
1703.2074	1	10	n/a	n/a	1	52	3
1704.3406	1	21	n/a	n/a	1	52	0
1705.4406	1	10	n/a	n/a	1	52	1
1706.5406	1	21	n/a	n/a	1	52	0
1707.7404	1	10	n/a	n/a	1	52	1
1708.7904	1	10	n/a	n/a	1	52	2
1716.9818	1	81	n/a	n/a	1	0	0
1717.0928	1	81	n/a	n/a	1	0	0
1717.4558	1	81	n/a	n/a	1	0	0
1717.4908	1	81	n/a	n/a	1	0	0
1717.8108	1	81	n/a	n/a	1	0	0
1717.982	1	81	n/a	n/a	1	0	0
1718.204	1	81	n/a	n/a	1	0	0
1718.486	1	81	n/a	n/a	1	0	0
1718.868	1	81	n/a	n/a	1	0	0
1718.948	1	81	n/a	n/a	1	0	0
1720.0396	1	10	n/a	n/a	1	52	1
1721.2062	1	21	n/a	n/a	1	52	0
1722.4062	1	10	n/a	n/a	1	52	1
1723.6728	1	10	n/a	n/a	1	52	2
1724.8228	1	10	n/a	n/a	1	52	3
1725.906	1	10	n/a	n/a	1	52	4
1726.9892	1	10	n/a	n/a	1	52	5
1728.0726	1	21	n/a	n/a	1	52	0
1729.2724	1	10	n/a	n/a	1	52	1
1730.389	1	10	n/a	n/a	1	52	2
1731.6556	1	10	n/a	n/a	1	52	3
1732.9222	1	21	n/a	n/a	1	52	0
1734.0722	1	10	n/a	n/a	1	52	1
1735.3054	1	10	n/a	n/a	1	52	2
1736.622	1	10	n/a	n/a	1	52	3
1737.9386	1	21	n/a	n/a	1	52	0
1739.0386	1	10	n/a	n/a	1	52	1
1740.0884	1	10	n/a	n/a	1	52	2
1741.2884	1	10	n/a	n/a	1	52	3
1742.505	1	10	n/a	n/a	1	52	4
1752.0718	1	81	n/a	n/a	1	0	0
1752.3878	1	81	n/a	n/a	1	0	0
1752.5038	1	81	n/a	n/a	1	0	0
1752.7348	1	81	n/a	n/a	1	0	0
1752.8728	1	81	n/a	n/a	1	0	0
1753.0718	1	81	n/a	n/a	1	0	0
1753.3778	1	81	n/a	n/a	1	0	0
1753.4358	1	81	n/a	n/a	1	0	0
1753.4728	1	81	n/a	n/a	1	0	0
1753.8378	1	81	n/a	n/a	1	0	0
1755.2042	1	10	n/a	n/a	1	52	1
1756.2708	1	10	n/a	n/a	1	52	2
1757.554	1	10	n/a	n/a	1	52	3
1758.6706	1	10	n/a	n/a	1	52	4
1759.8706	1	10	n/a	n/a	1	52	5
1761.0706	1	21	n/a	n/a	1	52	0
1762.3204	1	10	n/a	n/a	1	52	1
1763.5038	1	10	n/a	n/a	1	52	2
1764.737	1	10	n/a	n/a	1	52	3
1765.9702	1	21	n/a	n/a	1	52	0
1767.2202	1	10	n/a	n/a	1	52	1
1768.4702	1	21	n/a	n/a	1	52	0
1769.6534	1	10	n/a	n/a	1	52	1
1770.8866	1	10	n/a	n/a	1	52	2
1771.9866	1	10	n/a	n/a	1	52	3
1773.1032	1	10	n/a	n/a	1	52	4
1774.1364	1	10	n/a	n/a	1	52	5
1775.1696	1	21	n/a	n/a	1	52	0
1776.2696	1	10	n/a	n/a	1	52	1
1777.5196	1	10	n/a	n/a	1	52	2
1785.808	1	81	n/a	n/a	1	0	0
1785.888	1	81	n/a	n/a	1	0	0
1786.001	1	81	n/a	n/a	1	0	0
1786.262	1	81	n/a	n/a	1	0	0
1786.561	1	81	n/a	n/a	1	0	0
1786.8082	1	81	n/a	n/a	1	0	0
1786.9792	1	81	n/a	n/a	1	0	0
1787.0102	1	81	n/a	n/a	1	0	0
1787.4172	1	81	n/a	n/a	1	0	0
1787.7342	1	81	n/a	n/a	1	0	0
1788.9688	1	10	n/a	n/a	1	52	1
1790.2354	1	10	n/a	n/a	1	52	2
1791.3354	1	10	n/a	n/a	1	52	3
1792.4354	1	10	n/a	n/a	1	52	4
1793.5352	1	10	n/a	n/a	1	52	5
1794.7352	1	10	n/a	n/a	1	52	6
1795.8852	1	10	n/a	n/a	1	52	7
1797.035	1	21	n/a	n/a	1	52	0
1798.2682	1	10	n/a	n/a	1	52	1
1799.5182	1	10	n/a	n/a	1	52	2
1800.8182	1	10	n/a	n/a	1	52	3
1801.9514	1	10	n/a	n/a	1	52	4
1803.1514	1	10	n/a	n/a	1	52	5
1804.3512	1	21	n/a	n/a	1	52	0
1805.4178	1	10	n/a	n/a	1	52	1
1806.7344	1	10	n/a	n/a	1	52	2
1808.001	1	10	n/a	n/a	1	52	3
1809.2676	1	21	n/a	n/a	1	52	0
1810.5008	1	10	n/a	n/a	1	52	1
1811.8174	1	10	n/a	n/a	1	52	2
2131.7454	1	81	n/a	n/a	1	0	0
2131.8474	1	81	n/a	n/a	1	0	0
2131.9224	1	81	n/a	n/a	1	0	0
2132.3224	1	81	n/a	n/a	1	0	0
2132.4824	1	81	n/a	n/a	1	0	0
2132.7454	1	81	n/a	n/a	1	0	0
2132.8854	1	81	n/a	n/a	1	0	0
2132.9224	1	81	n/a	n/a	1	0	0
2132.9914	1	81	n/a	n/a	1	0	0
2133.3374	1	81	n/a	n/a	1	0	0
2134.9376	1	10	n/a	n/a	1	52	1
2136.0708	1	10	n/a	n/a	1	52	2
2137.3874	1	10	n/a	n/a	1	52	3
2138.504	1	10	n/a	n/a	1	52	4
2139.6206	1	10	n/a	n/a	1	52	5
2140.7372	1	21	n/a	n/a	1	52	0
2141.9204	1	10	n/a	n/a	1	52	1
2143.237	1	10	n/a	n/a	1	52	2
2144.2702	1	10	n/a	n/a	1	52	3
2145.5036	1	10	n/a	n/a	1	52	4
2146.6368	1	10	n/a	n/a	1	52	5
2147.77	1	21	n/a	n/a	1	52	0
2149.07	1	10	n/a	n/a	1	52	1
2150.2532	1	10	n/a	n/a	1	52	2
2151.4532	1	10	n/a	n/a	1	52	3
2152.5864	1	10	n/a	n/a	1	52	4
2153.6864	1	10	n/a	n/a	1	52	5
2154.7864	1	21	n/a	n/a	1	52	0
2156.0862	1	10	n/a	n/a	1	52	1
2157.3862	1	21	n/a	n/a	1	52	0
2166.715	1	81	n/a	n/a	1	0	0
2166.821	1	81	n/a	n/a	1	0	0
2166.983	1	81	n/a	n/a	1	0	0
2167.048	1	81	n/a	n/a	1	0	0
2167.074	1	81	n/a	n/a	1	0	0
2167.715	1	81	n/a	n/a	1	0	0
2167.821	1	81	n/a	n/a	1	0	0
2167.971	1	81	n/a	n/a	1	0	0
2168.147	1	81	n/a	n/a	1	0	0
2168.586	1	81	n/a	n/a	1	0	0
2169.7854	1	10	n/a	n/a	1	52	1
2170.8854	1	10	n/a	n/a	1	52	2
2172.002	1	10	n/a	n/a	1	52	3
2173.1186	1	21	n/a	n/a	1	52	0
2174.2184	1	10	n/a	n/a	1	52	1
2175.285	1	10	n/a	n/a	1	52	2
2176.5684	1	10	n/a	n/a	1	52	3
2177.8516	1	21	n/a	n/a	1	52	0
2179.0182	1	10	n/a	n/a	1	52	1
2180.2848	1	10	n/a	n/a	1	52	2
2181.6014	1	10	n/a	n/a	1	52	3
2182.918	1	21	n/a	n/a	1	52	0
2184.1846	1	10	n/a	n/a	1	52	1
2185.4178	1	10	n/a	n/a	1	52	2
2186.5178	1	10	n/a	n/a	1	52	3
2187.6176	1	21	n/a	n/a	1	52	0
2188.801	1	10	n/a	n/a	1	52	1
2190.0676	1	10	n/a	n/a	1	52	2
2191.2008	1	10	n/a	n/a	1	52	3
2192.4674	1	10	n/a	n/a	1	52	4
2202.805	1	81	n/a	n/a	1	0	0
2203.027	1	81	n/a	n/a	1	0	0
2203.324	1	81	n/a	n/a	1	0	0
2203.653	1	81	n/a	n/a	1	0	0
2203.752	1	81	n/a	n/a	1	0	0
2203.805	1	81	n/a	n/a	1	0	0
2203.853	1	81	n/a	n/a	1	0	0
2204.265	1	81	n/a	n/a	1	0	0
2204.445	1	81	n/a	n/a	1	0	0
2204.691	1	81	n/a	n/a	1	0	0
2205.9332	1	10	n/a	n/a	1	52	1
2207.0832	1	10	n/a	n/a	1	52	2
2208.3332	1	10	n/a	n/a	1	52	3
2209.583	1	21	n/a	n/a	1	52	0
2210.7996	1	10	n/a	n/a	1	52	1
2211.8828	1	10	n/a	n/a	1	52	2
2213.0494	1	10	n/a	n/a	1	52	3
2214.216	1	21	n/a	n/a	1	52	0
2215.3994	1	10	n/a	n/a	1	52	1
2216.4992	1	10	n/a	n/a	1	52	2
2217.5658	1	10	n/a	n/a	1	52	3
2218.7658	1	10	n/a	n/a	1	52	4
2219.999	1	10	n/a	n/a	1	52	5
2221.2324	1	21	n/a	n/a	1	52	0
2222.4656	1	10	n/a	n/a	1	52	1
2223.5156	1	10	n/a	n/a	1	52	2
2224.8154	1	10	n/a	n/a	1	52	3
2226.0988	1	10	n/a	n/a	1	52	4
2227.1654	1	10	n/a	n/a	1	52	5
2228.232	1	21	n/a	n/a	1	52	0
2236.6534	1	81	n/a	n/a	1	0	0
2236.8004	1	81	n/a	n/a	1	0	0
2237.0394	1	81	n/a	n/a	1	0	0
2237.3644	1	81	n/a	n/a	1	0	0
2237.4694	1	81	n/a	n/a	1	0	0
2237.6536	1	81	n/a	n/a	1	0	0
2237.7336	1	81	n/a	n/a	1	0	0
2237.9626	1	81	n/a	n/a	1	0	0
2238.1076	1	81	n/a	n/a	1	0	0
2238.3706	1	81	n/a	n/a	1	0	0
2239.8312	1	10	n/a	n/a	1	52	1
2241.1144	1	21	n/a	n/a	1	52	0
2242.4144	1	10	n/a	n/a	1	52	1
2243.4476	1	10	n/a	n/a	1	52	2
2244.481	1	10	n/a	n/a	1	52	3
2245.7642	1	10	n/a	n/a	1	52	4
2247.0474	1	10	n/a	n/a	1	52	5
2248.2808	1	21	n/a	n/a	1	52	0
2249.364	1	10	n/a	n/a	1	52	1
2250.564	1	10	n/a	n/a	1	52	2
2251.7806	1	10	n/a	n/a	1	52	3
2252.8304	1	10	n/a	n/a	1	52	4
2254.0636	1	10	n/a	n/a	1	52	5
2255.197	1	10	n/a	n/a	1	52	6
2256.3802	1	10	n/a	n/a	1	52	7
2257.5634	1	21	n/a	n/a	1	52	0
2258.78	1	10	n/a	n/a	1	52	1
2260.0634	1	10	n/a	n/a	1	52	2
2261.3632	1	10	n/a	n/a	1	52	3
2262.4632	1	10	n/a	n/a	1	52	4
2288.386	1	81	n/a	n/a	1	0	0
2288.607	1	81	n/a	n/a	1	0	0
2288.717	1	81	n/a	n/a	1	0	0
2289.036	1	81	n/a	n/a	1	0	0
2289.331	1	81	n/a	n/a	1	0	0
2289.386	1	81	n/a	n/a	1	0	0
2289.707	1	81	n/a	n/a	1	0	0
2289.877	1	81	n/a	n/a	1	0	0
2289.957	1	81	n/a	n/a	1	0	0
2290.313	1	81	n/a	n/a	1	0	0
2291.5282	1	10	n/a	n/a	1	50	1
2292.778	1	21	n/a	n/a	1	50	0
2294.0112	1	10	n/a	n/a	1	50	1
2295.1278	1	10	n/a	n/a	1	50	2
2296.3612	1	10	n/a	n/a	1	50	3
2297.5944	1	21	n/a	n/a	1	50	0
2298.8944	1	10	n/a	n/a	1	50	1
2299.9776	1	10	n/a	n/a	1	50	2
2301.0276	1	10	n/a	n/a	1	50	3
2302.0774	1	21	n/a	n/a	1	50	0
2303.2774	1	10	n/a	n/a	1	50	1
2304.3774	1	10	n/a	n/a	1	50	2
2305.544	1	10	n/a	n/a	1	50	3
2306.7106	1	21	n/a	n/a	1	50	0
2307.7604	1	10	n/a	n/a	1	50	1
2308.8104	1	21	n/a	n/a	1	50	0
2310.0936	1	10	n/a	n/a	1	50	1
2311.2102	1	10	n/a	n/a	1	50	2
2312.3268	1	10	n/a	n/a	1	50	3
2313.4102	1	10	n/a	n/a	1	50	4
2323.9216	1	81	n/a	n/a	1	0	0
2324.1216	1	81	n/a	n/a	1	0	0
2324.3216	1	81	n/a	n/a	1	0	0
2324.5216	1	81	n/a	n/a	1	0	0
2324.7216	1	81	n/a	n/a	1	0	0
2324.9216	1	81	n/a	n/a	1	0	0
2325.1216	1	81	n/a	n/a	1	0	0
2325.3216	1	81	n/a	n/a	1	0	0
2325.5216	1	81	n/a	n/a	1	0	0
2325.7216	1	81	n/a	n/a	1	0	0
2327.076	1	10	n/a	n/a	1	50	1
2328.2092	1	10	n/a	n/a	1	50	2
2329.2592	1	10	n/a	n/a	1	50	3
2330.4424	1	10	n/a	n/a	1	50	4
2331.759	1	10	n/a	n/a	1	50	5
2333.0756	1	21	n/a	n/a	1	50	0
2334.1588	1	10	n/a	n/a	1	50	1
2335.4754	1	10	n/a	n/a	1	50	2
2336.7588	1	10	n/a	n/a	1	50	3
2338.092	1	10	n/a	n/a	1	50	4
2339.2752	1	10	n/a	n/a	1	50	5
2340.4586	1	21	n/a	n/a	1	50	0
2341.5252	1	10	n/a	n/a	1	50	1
2342.575	1	10	n/a	n/a	1	50	2
2343.7084	1	10	n/a	n/a	1	50	3
2344.8416	1	21	n/a	n/a	1	50	0
2345.8748	1	10	n/a	n/a	1	50	1
2347.1082	1	10	n/a	n/a	1	50	2
2348.1414	1	10	n/a	n/a	1	50	3
2349.3914	1	10	n/a	n/a	1	50	4
2359.1348	1	81	n/a	n/a	1	0	0
2359.2418	1	81	n/a	n/a	1	0	0
2359.4158	1	81	n/a	n/a	1	0	0
2359.5018	1	81	n/a	n/a	1	0	0
2359.5628	1	81	n/a	n/a	1	0	0
2360.1348	1	81	n/a	n/a	1	0	0
2360.5248	1	81	n/a	n/a	1	0	0
2360.7928	1	81	n/a	n/a	1	0	0
2360.8388	1	81	n/a	n/a	1	0	0
2360.9388	1	81	n/a	n/a	1	0	0
2362.3406	1	10	n/a	n/a	1	50	1
2363.5738	1	10	n/a	n/a	1	50	2
2364.607	1	10	n/a	n/a	1	50	3
2365.9236	1	10	n/a	n/a	1	50	4
2367.0402	1	10	n/a	n/a	1	50	5
2368.3402	1	10	n/a	n/a	1	50	6
2369.6068	1	10	n/a	n/a	1	50	7
2370.8734	1	21	n/a	n/a	1	50	0
2372.1066	1	10	n/a	n/a	1	50	1
2373.3398	1	21	n/a	n/a	1	50	0
2374.6398	1	10	n/a	n/a	1	50	1
2375.9064	1	10	n/a	n/a	1	50	2
2377.0564	1	10	n/a	n/a	1	50	3
2378.3562	1	10	n/a	n/a	1	50	4
2379.5894	1	10	n/a	n/a	1	50	5
2380.7728	1	21	n/a	n/a	1	50	0
2382.0726	1	10	n/a	n/a	1	50	1
2383.2226	1	10	n/a	n/a	1	50	2
2384.5058	1	10	n/a	n/a	1	50	3
2385.7892	1	21	n/a	n/a	1	50	0
2397.7448	1	81	n/a	n/a	1	0	0
2398.0438	1	81	n/a	n/a	1	0	0
2398.2098	1	81	n/a	n/a	1	0	0
2398.3038	1	81	n/a	n/a	1	0	0
2398.6648	1	81	n/a	n/a	1	0	0
2398.745	1	81	n/a	n/a	1	0	0
2398.887	1	81	n/a	n/a	1	0	0
2399.112	1	81	n/a	n/a	1	0	0
2399.188	1	81	n/a	n/a	1	0	0
2399.468	1	81	n/a	n/a	1	0	0
2400.9048	1	10	n/a	n/a	1	50	1
2402.0714	1	10	n/a	n/a	1	50	2
2403.1548	1	10	n/a	n/a	1	50	3
2404.188	1	21	n/a	n/a	1	50	0
2405.4546	1	10	n/a	n/a	1	50	1
2406.7212	1	21	n/a	n/a	1	50	0
2407.8212	1	10	n/a	n/a	1	50	1
2408.971	1	10	n/a	n/a	1	50	2
2410.0376	1	10	n/a	n/a	1	50	3
2411.321	1	10	n/a	n/a	1	50	4
2412.3876	1	10	n/a	n/a	1	50	5
2413.4542	1	21	n/a	n/a	1	50	0
2414.704	1	10	n/a	n/a	1	50	1
2415.9706	1	21	n/a	n/a	1	50	0
2417.1706	1	10	n/a	n/a	1	50	1
2418.3704	1	21	n/a	n/a	1	50	0
2419.6538	1	10	n/a	n/a	1	50	1
2420.937	1	21	n/a	n/a	1	50	0
2422.0202	1	10	n/a	n/a	1	50	1
2423.3202	1	10	n/a	n/a	1	50	2
2447.1748	1	81	n/a	n/a	1	0	0
2447.3418	1	81	n/a	n/a	1	0	0
2447.7498	1	81	n/a	n/a	1	0	0
2447.8778	1	81	n/a	n/a	1	0	0
2447.9188	1	81	n/a	n/a	1	0	0
2448.1748	1	81	n/a	n/a	1	0	0
2448.2088	1	81	n/a	n/a	1	0	0
2448.5248	1	81	n/a	n/a	1	0	0
2448.9338	1	81	n/a	n/a	1	0	0
2449.1098	1	81	n/a	n/a	1	0	0
2450.2186	1	10	n/a	n/a	1	52	1
2451.3686	1	21	n/a	n/a	1	52	0
2452.4852	1	10	n/a	n/a	1	52	1
2453.6184	1	10	n/a	n/a	1	52	2
2454.835	1	10	n/a	n/a	1	52	3
2455.885	1	10	n/a	n/a	1	52	4
2457.0182	1	10	n/a	n/a	1	52	5
2458.1514	1	21	n/a	n/a	1	52	0
2459.368	1	10	n/a	n/a	1	52	1
2460.6512	1	10	n/a	n/a	1	52	2
2461.8846	1	10	n/a	n/a	1	52	3
2462.9512	1	10	n/a	n/a	1	52	4
2464.0178	1	10	n/a	n/a	1	52	5
2465.251	1	10	n/a	n/a	1	52	6
2466.301	1	10	n/a	n/a	1	52	7
2467.3676	1	21	n/a	n/a	1	52	0
2468.5842	1	10	n/a	n/a	1	52	1
2469.6508	1	10	n/a	n/a	1	52	2
2470.9506	1	10	n/a	n/a	1	52	3
2472.1672	1	10	n/a	n/a	1	52	4
2482.2188	1	81	n/a	n/a	1	0	0
2482.3658	1	81	n/a	n/a	1	0	0
2482.7088	1	81	n/a	n/a	1	0	0
2482.7468	1	81	n/a	n/a	1	0	0
2482.8638	1	81	n/a	n/a	1	0	0
2483.2196	1	81	n/a	n/a	1	0	0
2483.5466	1	81	n/a	n/a	1	0	0
2483.6076	1	81	n/a	n/a	1	0	0
2483.7706	1	81	n/a	n/a	1	0	0
2483.9986	1	81	n/a	n/a	1	0	0
2485.2498	1	10	n/a	n/a	1	52	1
2486.383	1	21	n/a	n/a	1	52	0
2487.4496	1	10	n/a	n/a	1	52	1
2488.5164	1	10	n/a	n/a	1	52	2
2489.5996	1	10	n/a	n/a	1	52	3
2490.6828	1	21	n/a	n/a	1	52	0
2491.816	1	10	n/a	n/a	1	52	1
2492.9494	1	21	n/a	n/a	1	52	0
2494.2326	1	10	n/a	n/a	1	52	1
2495.5158	1	10	n/a	n/a	1	52	2
2496.5492	1	10	n/a	n/a	1	52	3
2497.5824	1	21	n/a	n/a	1	52	0
2498.749	1	10	n/a	n/a	1	52	1
2500.049	1	10	n/a	n/a	1	52	2
2501.1822	1	10	n/a	n/a	1	52	3
2502.4154	1	10	n/a	n/a	1	52	4
2503.5988	1	10	n/a	n/a	1	52	5
2504.6654	1	10	n/a	n/a	1	52	6
2505.8652	1	10	n/a	n/a	1	52	7
2507.0652	1	21	n/a	n/a	1	52	0
2516.751	1	81	n/a	n/a	1	0	0
2516.897	1	81	n/a	n/a	1	0	0
2517.266	1	81	n/a	n/a	1	0	0
2517.447	1	81	n/a	n/a	1	0	0
2517.546	1	81	n/a	n/a	1	0	0
2517.751	1	81	n/a	n/a	1	0	0
2517.927	1	81	n/a	n/a	1	0	0
2518.322	1	81	n/a	n/a	1	0	0
2518.472	1	81	n/a	n/a	1	0	0
2518.501	1	81	n/a	n/a	1	0	0
2519.9644	1	10	n/a	n/a	1	52	1
2521.2144	1	10	n/a	n/a	1	52	2
2522.4476	1	10	n/a	n/a	1	52	3
2523.7642	1	10	n/a	n/a	1	52	4
2524.9474	1	10	n/a	n/a	1	52	5
2526.0806	1	10	n/a	n/a	1	52	6
2527.264	1	10	n/a	n/a	1	52	7
2528.4472	1	21	n/a	n/a	1	52	0
2529.7472	1	10	n/a	n/a	1	52	1
2531.0138	1	10	n/a	n/a	1	52	2
2532.247	1	10	n/a	n/a	1	52	3
2533.4802	1	21	n/a	n/a	1	52	0
2534.6636	1	10	n/a	n/a	1	52	1
2535.8468	1	21	n/a	n/a	1	52	0
2536.88	1	10	n/a	n/a	1	52	1
2538.1966	1	10	n/a	n/a	1	52	2
2539.2966	1	10	n/a	n/a	1	52	3
2540.5132	1	10	n/a	n/a	1	52	4
2541.8298	1	10	n/a	n/a	1	52	5
2542.913	1	10	n/a	n/a	1	52	6
2553.5466	1	81	n/a	n/a	1	0	0
2553.9216	1	81	n/a	n/a	1	0	0
2554.2696	1	81	n/a	n/a	1	0	0
2554.4366	1	81	n/a	n/a	1	0	0
2554.5126	1	81	n/a	n/a	1	0	0
2554.5466	1	81	n/a	n/a	1	0	0
2554.7126	1	81	n/a	n/a	1	0	0
2554.8276	1	81	n/a	n/a	1	0	0
2554.9016	1	81	n/a	n/a	1	0	0
2554.9476	1	81	n/a	n/a	1	0	0
2556.6122	1	10	n/a	n/a	1	52	1
2557.7954	1	10	n/a	n/a	1	52	2
2558.862	1	10	n/a	n/a	1	52	3
2559.9286	1	21	n/a	n/a	1	52	0
2561.112	1	10	n/a	n/a	1	52	1
2562.3618	1	10	n/a	n/a	1	52	2
2563.3952	1	10	n/a	n/a	1	52	3
2564.4284	1	10	n/a	n/a	1	52	4
2565.4784	1	10	n/a	n/a	1	52	5
2566.5282	1	21	n/a	n/a	1	52	0
2567.5616	1	10	n/a	n/a	1	52	1
2568.5948	1	21	n/a	n/a	1	52	0
2569.828	1	10	n/a	n/a	1	52	1
2571.1114	1	10	n/a	n/a	1	52	2
2572.3612	1	10	n/a	n/a	1	52	3
2573.6112	1	21	n/a	n/a	1	52	0
2574.7444	1	10	n/a	n/a	1	52	1
2575.7778	1	10	n/a	n/a	1	52	2
2577.0276	1	10	n/a	n/a	1	52	3
2578.2608	1	10	n/a	n/a	1	52	4
