onset	duration	value	response	rt	good	TMS	seq
125.4232	1	82	n/a	n/a	1	0	0
125.5142	1	82	n/a	n/a	1	0	0
125.7922	1	82	n/a	n/a	1	0	0
126.0282	1	82	n/a	n/a	1	0	0
126.0512	1	82	n/a	n/a	1	0	0
126.4232	1	82	n/a	n/a	1	0	0
126.5562	1	82	n/a	n/a	1	0	0
126.6062	1	82	n/a	n/a	1	0	0
126.9582	1	82	n/a	n/a	1	0	0
127.0562	1	82	n/a	n/a	1	0	0
128.426	1	10	n/a	n/a	1	52	1
129.6258	1	10	n/a	n/a	1	52	2
130.6924	1	10	n/a	n/a	1	52	3
131.759	1	21	n/a	n/a	1	52	0
132.809	1	10	n/a	n/a	1	52	1
133.9424	1	10	n/a	n/a	1	52	2
135.2256	1	10	n/a	n/a	1	52	3
136.3422	1	10	n/a	n/a	1	52	4
137.592	1	10	n/a	n/a	1	52	5
138.842	1	21	n/a	n/a	1	52	0
140.0086	1	10	n/a	n/a	1	52	1
141.1252	1	10	n/a	n/a	1	52	2
142.2584	1	10	n/a	n/a	1	52	3
143.3918	1	21	n/a	n/a	1	52	0
144.425	1	10	n/a	n/a	1	52	1
145.6416	1	10	n/a	n/a	1	52	2
146.7082	1	10	n/a	n/a	1	52	3
147.7582	1	10	n/a	n/a	1	52	4
148.958	1	10	n/a	n/a	1	52	5
150.1414	1	10	n/a	n/a	1	52	6
150.9398	1	82	n/a	n/a	1	0	0
150.9828	1	82	n/a	n/a	1	0	0
151.3378	1	82	n/a	n/a	1	0	0
151.5868	1	82	n/a	n/a	1	0	0
151.6808	1	82	n/a	n/a	1	0	0
151.9398	1	82	n/a	n/a	1	0	0
152.0428	1	82	n/a	n/a	1	0	0
152.3858	1	82	n/a	n/a	1	0	0
152.5848	1	82	n/a	n/a	1	0	0
152.8668	1	82	n/a	n/a	1	0	0
154.0578	1	10	n/a	n/a	1	52	1
155.2578	1	10	n/a	n/a	1	52	2
156.3244	1	10	n/a	n/a	1	52	3
157.391	1	21	n/a	n/a	1	52	0
158.6742	1	10	n/a	n/a	1	52	1
159.7074	1	10	n/a	n/a	1	52	2
160.9408	1	10	n/a	n/a	1	52	3
162.174	1	10	n/a	n/a	1	52	4
163.4072	1	10	n/a	n/a	1	52	5
164.6406	1	21	n/a	n/a	1	52	0
165.7904	1	10	n/a	n/a	1	52	1
166.8404	1	10	n/a	n/a	1	52	2
167.9904	1	10	n/a	n/a	1	52	3
169.0902	1	10	n/a	n/a	1	52	4
170.2236	1	10	n/a	n/a	1	52	5
171.3902	1	10	n/a	n/a	1	52	6
172.64	1	10	n/a	n/a	1	52	7
173.89	1	21	n/a	n/a	1	52	0
175.1732	1	10	n/a	n/a	1	52	1
176.4564	1	21	n/a	n/a	1	52	0
177.2338	1	82	n/a	n/a	1	0	0
177.3118	1	82	n/a	n/a	1	0	0
177.4118	1	82	n/a	n/a	1	0	0
177.6768	1	82	n/a	n/a	1	0	0
177.8278	1	82	n/a	n/a	1	0	0
178.2338	1	82	n/a	n/a	1	0	0
178.2738	1	82	n/a	n/a	1	0	0
178.3958	1	82	n/a	n/a	1	0	0
178.7348	1	82	n/a	n/a	1	0	0
178.9078	1	82	n/a	n/a	1	0	0
180.1896	1	10	n/a	n/a	1	52	1
181.3896	1	10	n/a	n/a	1	52	2
182.6894	1	10	n/a	n/a	1	52	3
183.9894	1	21	n/a	n/a	1	52	0
185.1226	1	10	n/a	n/a	1	52	1
186.2558	1	10	n/a	n/a	1	52	2
187.5558	1	10	n/a	n/a	1	52	3
188.639	1	10	n/a	n/a	1	52	4
189.9556	1	10	n/a	n/a	1	52	5
191.2722	1	21	n/a	n/a	1	52	0
192.3222	1	10	n/a	n/a	1	52	1
193.3888	1	21	n/a	n/a	1	52	0
194.5388	1	10	n/a	n/a	1	52	1
195.7386	1	10	n/a	n/a	1	52	2
196.7886	1	10	n/a	n/a	1	52	3
198.1052	1	10	n/a	n/a	1	52	4
199.3552	1	10	n/a	n/a	1	52	5
200.605	1	21	n/a	n/a	1	52	0
201.855	1	10	n/a	n/a	1	52	1
203.0882	1	10	n/a	n/a	1	52	2
203.8818	1	82	n/a	n/a	1	0	0
204.3018	1	82	n/a	n/a	1	0	0
204.3258	1	82	n/a	n/a	1	0	0
204.5288	1	82	n/a	n/a	1	0	0
204.7958	1	82	n/a	n/a	1	0	0
204.8818	1	82	n/a	n/a	1	0	0
205.1488	1	82	n/a	n/a	1	0	0
205.4908	1	82	n/a	n/a	1	0	0
205.5938	1	82	n/a	n/a	1	0	0
205.6748	1	82	n/a	n/a	1	0	0
206.8046	1	10	n/a	n/a	1	52	1
207.838	1	21	n/a	n/a	1	52	0
208.8712	1	10	n/a	n/a	1	52	1
209.9046	1	21	n/a	n/a	1	52	0
210.9544	1	10	n/a	n/a	1	52	1
212.0044	1	21	n/a	n/a	1	52	0
213.271	1	10	n/a	n/a	1	52	1
214.471	1	10	n/a	n/a	1	52	2
215.7208	1	10	n/a	n/a	1	52	3
217.0208	1	10	n/a	n/a	1	52	4
218.154	1	10	n/a	n/a	1	52	5
219.2872	1	21	n/a	n/a	1	52	0
220.3872	1	10	n/a	n/a	1	52	1
221.6704	1	10	n/a	n/a	1	52	2
222.7704	1	10	n/a	n/a	1	52	3
223.8204	1	10	n/a	n/a	1	52	4
224.8536	1	10	n/a	n/a	1	52	5
225.8868	1	21	n/a	n/a	1	52	0
227.0202	1	10	n/a	n/a	1	52	1
228.07	1	10	n/a	n/a	1	52	2
229.1216	1	82	n/a	n/a	1	0	0
229.4496	1	82	n/a	n/a	1	0	0
229.4716	1	82	n/a	n/a	1	0	0
229.8566	1	82	n/a	n/a	1	0	0
229.9176	1	82	n/a	n/a	1	0	0
230.1216	1	82	n/a	n/a	1	0	0
230.5006	1	82	n/a	n/a	1	0	0
230.8466	1	82	n/a	n/a	1	0	0
230.9886	1	82	n/a	n/a	1	0	0
231.0686	1	82	n/a	n/a	1	0	0
232.1366	1	10	n/a	n/a	1	52	1
233.2532	1	21	n/a	n/a	1	52	0
234.553	1	10	n/a	n/a	1	52	1
235.853	1	21	n/a	n/a	1	52	0
237.1362	1	10	n/a	n/a	1	52	1
238.2028	1	10	n/a	n/a	1	52	2
239.4694	1	10	n/a	n/a	1	52	3
240.536	1	10	n/a	n/a	1	52	4
241.7692	1	10	n/a	n/a	1	52	5
242.8692	1	10	n/a	n/a	1	52	6
243.9358	1	10	n/a	n/a	1	52	7
245.0024	1	21	n/a	n/a	1	52	0
246.2524	1	10	n/a	n/a	1	52	1
247.519	1	21	n/a	n/a	1	52	0
248.6188	1	10	n/a	n/a	1	52	1
249.7188	1	10	n/a	n/a	1	52	2
250.8854	1	10	n/a	n/a	1	52	3
251.9854	1	10	n/a	n/a	1	52	4
253.2686	1	10	n/a	n/a	1	52	5
254.3852	1	10	n/a	n/a	1	52	6
266.5294	1	82	n/a	n/a	1	0	0
266.9574	1	82	n/a	n/a	1	0	0
267.1852	1	82	n/a	n/a	1	0	0
267.3582	1	82	n/a	n/a	1	0	0
267.3962	1	82	n/a	n/a	1	0	0
267.5294	1	82	n/a	n/a	1	0	0
267.8984	1	82	n/a	n/a	1	0	0
268.0394	1	82	n/a	n/a	1	0	0
268.1484	1	82	n/a	n/a	1	0	0
268.4944	1	82	n/a	n/a	1	0	0
269.701	1	10	n/a	n/a	1	50	1
270.851	1	10	n/a	n/a	1	50	2
271.9342	1	10	n/a	n/a	1	50	3
272.9842	1	10	n/a	n/a	1	50	4
274.2008	1	10	n/a	n/a	1	50	5
275.2674	1	10	n/a	n/a	1	50	6
276.3672	1	10	n/a	n/a	1	50	7
277.4672	1	21	n/a	n/a	1	50	0
278.7338	1	10	n/a	n/a	1	50	1
279.7838	1	10	n/a	n/a	1	50	2
280.9336	1	10	n/a	n/a	1	50	3
282.017	1	10	n/a	n/a	1	50	4
283.2836	1	10	n/a	n/a	1	50	5
284.5502	1	21	n/a	n/a	1	50	0
285.6834	1	10	n/a	n/a	1	50	1
286.7334	1	10	n/a	n/a	1	50	2
288	1	10	n/a	n/a	1	50	3
289.0332	1	10	n/a	n/a	1	50	4
290.2832	1	10	n/a	n/a	1	50	5
291.533	1	21	n/a	n/a	1	50	0
292.4988	1	82	n/a	n/a	1	0	0
292.5208	1	82	n/a	n/a	1	0	0
292.7868	1	82	n/a	n/a	1	0	0
292.8538	1	82	n/a	n/a	1	0	0
293.1998	1	82	n/a	n/a	1	0	0
293.4988	1	82	n/a	n/a	1	0	0
293.7448	1	82	n/a	n/a	1	0	0
293.8668	1	82	n/a	n/a	1	0	0
293.9648	1	82	n/a	n/a	1	0	0
294.3438	1	82	n/a	n/a	1	0	0
295.4328	1	10	n/a	n/a	1	50	1
296.466	1	21	n/a	n/a	1	50	0
297.5326	1	10	n/a	n/a	1	50	1
298.6826	1	10	n/a	n/a	1	50	2
299.8326	1	10	n/a	n/a	1	50	3
300.9824	1	21	n/a	n/a	1	50	0
302.0324	1	10	n/a	n/a	1	50	1
303.1824	1	10	n/a	n/a	1	50	2
304.249	1	10	n/a	n/a	1	50	3
305.3822	1	10	n/a	n/a	1	50	4
306.4988	1	10	n/a	n/a	1	50	5
307.6154	1	21	n/a	n/a	1	50	0
308.8486	1	10	n/a	n/a	1	50	1
310.0652	1	10	n/a	n/a	1	50	2
311.1486	1	10	n/a	n/a	1	50	3
312.2318	1	21	n/a	n/a	1	50	0
313.4818	1	10	n/a	n/a	1	50	1
314.7316	1	21	n/a	n/a	1	50	0
315.865	1	10	n/a	n/a	1	50	1
317.1982	1	10	n/a	n/a	1	50	2
317.9122	1	82	n/a	n/a	1	0	0
318.0042	1	82	n/a	n/a	1	0	0
318.3432	1	82	n/a	n/a	1	0	0
318.7812	1	82	n/a	n/a	1	0	0
318.8472	1	82	n/a	n/a	1	0	0
318.9122	1	82	n/a	n/a	1	0	0
319.0612	1	82	n/a	n/a	1	0	0
319.1002	1	82	n/a	n/a	1	0	0
319.1962	1	82	n/a	n/a	1	0	0
319.5852	1	82	n/a	n/a	1	0	0
321.0646	1	10	n/a	n/a	1	50	1
322.3146	1	10	n/a	n/a	1	50	2
323.4812	1	10	n/a	n/a	1	50	3
324.781	1	10	n/a	n/a	1	50	4
326.1144	1	10	n/a	n/a	1	50	5
327.3642	1	10	n/a	n/a	1	50	6
328.6476	1	10	n/a	n/a	1	50	7
329.9308	1	21	n/a	n/a	1	50	0
330.9808	1	10	n/a	n/a	1	50	1
332.0306	1	21	n/a	n/a	1	50	0
333.2972	1	10	n/a	n/a	1	50	1
334.5638	1	21	n/a	n/a	1	50	0
335.7638	1	10	n/a	n/a	1	50	1
337.0304	1	10	n/a	n/a	1	50	2
338.2802	1	10	n/a	n/a	1	50	3
339.5302	1	21	n/a	n/a	1	50	0
340.7968	1	10	n/a	n/a	1	50	1
342.0634	1	21	n/a	n/a	1	50	0
343.18	1	10	n/a	n/a	1	50	1
344.4966	1	10	n/a	n/a	1	50	2
345.243	1	82	n/a	n/a	1	0	0
345.52	1	82	n/a	n/a	1	0	0
345.548	1	82	n/a	n/a	1	0	0
345.881	1	82	n/a	n/a	1	0	0
346.019	1	82	n/a	n/a	1	0	0
346.243	1	82	n/a	n/a	1	0	0
346.418	1	82	n/a	n/a	1	0	0
346.64	1	82	n/a	n/a	1	0	0
347.061	1	82	n/a	n/a	1	0	0
347.212	1	82	n/a	n/a	1	0	0
348.363	1	10	n/a	n/a	1	50	1
349.6462	1	10	n/a	n/a	1	50	2
350.8962	1	10	n/a	n/a	1	50	3
352.0628	1	10	n/a	n/a	1	50	4
353.2294	1	10	n/a	n/a	1	50	5
354.396	1	21	n/a	n/a	1	50	0
355.4292	1	10	n/a	n/a	1	50	1
356.5458	1	10	n/a	n/a	1	50	2
357.5792	1	10	n/a	n/a	1	50	3
358.6124	1	21	n/a	n/a	1	50	0
359.779	1	10	n/a	n/a	1	50	1
360.9122	1	10	n/a	n/a	1	50	2
362.0788	1	10	n/a	n/a	1	50	3
363.2454	1	21	n/a	n/a	1	50	0
364.2788	1	10	n/a	n/a	1	50	1
365.3954	1	10	n/a	n/a	1	50	2
366.462	1	10	n/a	n/a	1	50	3
367.5286	1	21	n/a	n/a	1	50	0
368.5618	1	10	n/a	n/a	1	50	1
369.7284	1	10	n/a	n/a	1	50	2
370.703	1	82	n/a	n/a	1	0	0
371.012	1	82	n/a	n/a	1	0	0
371.032	1	82	n/a	n/a	1	0	0
371.131	1	82	n/a	n/a	1	0	0
371.405	1	82	n/a	n/a	1	0	0
371.703	1	82	n/a	n/a	1	0	0
371.824	1	82	n/a	n/a	1	0	0
372.002	1	82	n/a	n/a	1	0	0
372.047	1	82	n/a	n/a	1	0	0
372.348	1	82	n/a	n/a	1	0	0
373.7282	1	10	n/a	n/a	1	50	1
374.9282	1	10	n/a	n/a	1	50	2
376.2448	1	10	n/a	n/a	1	50	3
377.5614	1	21	n/a	n/a	1	50	0
378.6112	1	10	n/a	n/a	1	50	1
379.7112	1	10	n/a	n/a	1	50	2
380.9778	1	10	n/a	n/a	1	50	3
382.0778	1	10	n/a	n/a	1	50	4
383.3944	1	10	n/a	n/a	1	50	5
384.4776	1	10	n/a	n/a	1	50	6
385.5608	1	10	n/a	n/a	1	50	7
386.6442	1	21	n/a	n/a	1	50	0
387.794	1	10	n/a	n/a	1	50	1
389.044	1	10	n/a	n/a	1	50	2
390.1606	1	10	n/a	n/a	1	50	3
391.4272	1	10	n/a	n/a	1	50	4
392.677	1	10	n/a	n/a	1	50	5
393.8936	1	10	n/a	n/a	1	50	6
395.0602	1	10	n/a	n/a	1	50	7
396.2268	1	21	n/a	n/a	1	50	0
498.321	1	81	n/a	n/a	1	0	0
498.521	1	81	n/a	n/a	1	0	0
498.721	1	81	n/a	n/a	1	0	0
498.921	1	81	n/a	n/a	1	0	0
499.121	1	81	n/a	n/a	1	0	0
499.321	1	81	n/a	n/a	1	0	0
499.521	1	81	n/a	n/a	1	0	0
499.721	1	81	n/a	n/a	1	0	0
499.921	1	81	n/a	n/a	1	0	0
500.121	1	81	n/a	n/a	1	0	0
501.3708	1	10	n/a	n/a	1	51	1
502.504	1	10	n/a	n/a	1	51	2
503.7372	1	10	n/a	n/a	1	51	3
504.8706	1	10	n/a	n/a	1	51	4
506.137	1	10	n/a	n/a	1	51	5
507.387	1	10	n/a	n/a	1	51	6
508.587	1	10	n/a	n/a	1	51	7
509.7868	1	21	n/a	n/a	1	51	0
510.9202	1	10	n/a	n/a	1	51	1
512.17	1	10	n/a	n/a	1	51	2
513.2534	1	10	n/a	n/a	1	51	3
514.5032	1	10	n/a	n/a	1	51	4
515.7366	1	10	n/a	n/a	1	51	5
516.9698	1	21	n/a	n/a	1	51	0
518.053	1	10	n/a	n/a	1	51	1
519.353	1	10	n/a	n/a	1	51	2
520.6362	1	10	n/a	n/a	1	51	3
521.8528	1	10	n/a	n/a	1	51	4
522.9694	1	10	n/a	n/a	1	51	5
524.086	1	21	n/a	n/a	1	51	0
525.1636	1	81	n/a	n/a	1	0	0
525.3636	1	81	n/a	n/a	1	0	0
525.5636	1	81	n/a	n/a	1	0	0
525.7636	1	81	n/a	n/a	1	0	0
525.9636	1	81	n/a	n/a	1	0	0
526.1646	1	81	n/a	n/a	1	0	0
526.3646	1	81	n/a	n/a	1	0	0
526.5646	1	81	n/a	n/a	1	0	0
526.7646	1	81	n/a	n/a	1	0	0
526.9646	1	81	n/a	n/a	1	0	0
528.1358	1	10	n/a	n/a	1	51	1
529.219	1	21	n/a	n/a	1	51	0
530.319	1	10	n/a	n/a	1	51	1
531.5356	1	10	n/a	n/a	1	51	2
532.5856	1	10	n/a	n/a	1	51	3
533.8688	1	10	n/a	n/a	1	51	4
534.9188	1	10	n/a	n/a	1	51	5
536.052	1	10	n/a	n/a	1	51	6
537.3686	1	10	n/a	n/a	1	51	7
538.6852	1	21	n/a	n/a	1	51	0
539.8184	1	10	n/a	n/a	1	51	1
540.9518	1	21	n/a	n/a	1	51	0
542.1516	1	10	n/a	n/a	1	51	1
543.4682	1	10	n/a	n/a	1	51	2
544.5848	1	10	n/a	n/a	1	51	3
545.7182	1	10	n/a	n/a	1	51	4
546.9846	1	10	n/a	n/a	1	51	5
548.2512	1	21	n/a	n/a	1	51	0
549.3178	1	10	n/a	n/a	1	51	1
550.5344	1	10	n/a	n/a	1	51	2
551.5938	1	81	n/a	n/a	1	0	0
551.7938	1	81	n/a	n/a	1	0	0
551.9938	1	81	n/a	n/a	1	0	0
552.1938	1	81	n/a	n/a	1	0	0
552.3938	1	81	n/a	n/a	1	0	0
552.5938	1	81	n/a	n/a	1	0	0
552.7938	1	81	n/a	n/a	1	0	0
552.9938	1	81	n/a	n/a	1	0	0
553.1938	1	81	n/a	n/a	1	0	0
553.3938	1	81	n/a	n/a	1	0	0
554.6342	1	10	n/a	n/a	1	51	1
555.7842	1	21	n/a	n/a	1	51	0
556.9508	1	10	n/a	n/a	1	51	1
558.0174	1	10	n/a	n/a	1	51	2
559.3006	1	10	n/a	n/a	1	51	3
560.5172	1	10	n/a	n/a	1	51	4
561.7338	1	10	n/a	n/a	1	51	5
562.9504	1	21	n/a	n/a	1	51	0
564.117	1	10	n/a	n/a	1	51	1
565.2836	1	21	n/a	n/a	1	51	0
566.3502	1	10	n/a	n/a	1	51	1
567.4168	1	21	n/a	n/a	1	51	0
568.5334	1	10	n/a	n/a	1	51	1
569.6	1	10	n/a	n/a	1	51	2
570.8166	1	10	n/a	n/a	1	51	3
572.0332	1	21	n/a	n/a	1	51	0
573.2832	1	10	n/a	n/a	1	51	1
574.533	1	10	n/a	n/a	1	51	2
575.7496	1	10	n/a	n/a	1	51	3
576.8996	1	10	n/a	n/a	1	51	4
577.625	1	81	n/a	n/a	1	0	0
577.825	1	81	n/a	n/a	1	0	0
578.025	1	81	n/a	n/a	1	0	0
578.225	1	81	n/a	n/a	1	0	0
578.425	1	81	n/a	n/a	1	0	0
578.625	1	81	n/a	n/a	1	0	0
578.825	1	81	n/a	n/a	1	0	0
579.025	1	81	n/a	n/a	1	0	0
579.225	1	81	n/a	n/a	1	0	0
579.425	1	81	n/a	n/a	1	0	0
580.616	1	10	n/a	n/a	1	51	1
581.766	1	10	n/a	n/a	1	51	2
583.0492	1	10	n/a	n/a	1	51	3
584.3658	1	10	n/a	n/a	1	51	4
585.649	1	10	n/a	n/a	1	51	5
586.7824	1	10	n/a	n/a	1	51	6
587.9322	1	10	n/a	n/a	1	51	7
589.0822	1	21	n/a	n/a	1	51	0
590.1656	1	10	n/a	n/a	1	51	1
591.3654	1	10	n/a	n/a	1	51	2
592.582	1	10	n/a	n/a	1	51	3
593.7986	1	21	n/a	n/a	1	51	0
594.8486	1	10	n/a	n/a	1	51	1
596.1152	1	10	n/a	n/a	1	51	2
597.4318	1	10	n/a	n/a	1	51	3
598.6984	1	10	n/a	n/a	1	51	4
599.815	1	10	n/a	n/a	1	51	5
600.9316	1	21	n/a	n/a	1	51	0
602.0148	1	10	n/a	n/a	1	51	1
603.2648	1	10	n/a	n/a	1	51	2
604.0042	1	81	n/a	n/a	1	0	0
604.2042	1	81	n/a	n/a	1	0	0
604.4042	1	81	n/a	n/a	1	0	0
604.6042	1	81	n/a	n/a	1	0	0
604.8042	1	81	n/a	n/a	1	0	0
605.0042	1	81	n/a	n/a	1	0	0
605.2042	1	81	n/a	n/a	1	0	0
605.4042	1	81	n/a	n/a	1	0	0
605.6042	1	81	n/a	n/a	1	0	0
605.8042	1	81	n/a	n/a	1	0	0
607.1478	1	10	n/a	n/a	1	51	1
608.3978	1	21	n/a	n/a	1	51	0
609.581	1	10	n/a	n/a	1	51	1
610.6142	1	10	n/a	n/a	1	51	2
611.8476	1	10	n/a	n/a	1	51	3
613.1642	1	10	n/a	n/a	1	51	4
614.3974	1	10	n/a	n/a	1	51	5
615.4306	1	10	n/a	n/a	1	51	6
616.6306	1	10	n/a	n/a	1	51	7
617.8306	1	21	n/a	n/a	1	51	0
618.8972	1	10	n/a	n/a	1	51	1
620.0638	1	10	n/a	n/a	1	51	2
621.147	1	10	n/a	n/a	1	51	3
622.4302	1	10	n/a	n/a	1	51	4
623.6968	1	10	n/a	n/a	1	51	5
624.9634	1	21	n/a	n/a	1	51	0
626.18	1	10	n/a	n/a	1	51	1
627.2966	1	10	n/a	n/a	1	51	2
628.4132	1	10	n/a	n/a	1	51	3
629.6966	1	10	n/a	n/a	1	51	4
712.664	1	81	n/a	n/a	1	0	0
712.864	1	81	n/a	n/a	1	0	0
713.064	1	81	n/a	n/a	1	0	0
713.264	1	81	n/a	n/a	1	0	0
713.464	1	81	n/a	n/a	1	0	0
713.664	1	81	n/a	n/a	1	0	0
713.864	1	81	n/a	n/a	1	0	0
714.064	1	81	n/a	n/a	1	0	0
714.264	1	81	n/a	n/a	1	0	0
714.464	1	81	n/a	n/a	1	0	0
715.6414	1	10	n/a	n/a	1	51	1
716.958	1	10	n/a	n/a	1	51	2
718.0414	1	10	n/a	n/a	1	51	3
719.1246	1	21	n/a	n/a	1	51	0
720.4078	1	10	n/a	n/a	1	51	1
721.7078	1	10	n/a	n/a	1	51	2
723.0244	1	10	n/a	n/a	1	51	3
724.2742	1	10	n/a	n/a	1	51	4
725.3742	1	10	n/a	n/a	1	51	5
726.4742	1	10	n/a	n/a	1	51	6
727.624	1	10	n/a	n/a	1	51	7
728.774	1	21	n/a	n/a	1	51	0
730.024	1	10	n/a	n/a	1	51	1
731.1406	1	10	n/a	n/a	1	51	2
732.2238	1	10	n/a	n/a	1	51	3
733.307	1	21	n/a	n/a	1	51	0
734.5404	1	10	n/a	n/a	1	51	1
735.7902	1	21	n/a	n/a	1	51	0
736.8902	1	10	n/a	n/a	1	51	1
737.9902	1	21	n/a	n/a	1	51	0
738.9096	1	81	n/a	n/a	1	0	0
739.1096	1	81	n/a	n/a	1	0	0
739.3096	1	81	n/a	n/a	1	0	0
739.5096	1	81	n/a	n/a	1	0	0
739.7096	1	81	n/a	n/a	1	0	0
739.9096	1	81	n/a	n/a	1	0	0
740.1096	1	81	n/a	n/a	1	0	0
740.3096	1	81	n/a	n/a	1	0	0
740.5096	1	81	n/a	n/a	1	0	0
740.7096	1	81	n/a	n/a	1	0	0
741.94	1	10	n/a	n/a	1	51	1
743.1232	1	10	n/a	n/a	1	51	2
744.3898	1	10	n/a	n/a	1	51	3
745.6564	1	10	n/a	n/a	1	51	4
746.7896	1	10	n/a	n/a	1	51	5
747.8396	1	10	n/a	n/a	1	51	6
749.1396	1	10	n/a	n/a	1	51	7
750.4394	1	21	n/a	n/a	1	51	0
751.6894	1	10	n/a	n/a	1	51	1
752.906	1	10	n/a	n/a	1	51	2
754.0892	1	10	n/a	n/a	1	51	3
755.2724	1	21	n/a	n/a	1	51	0
756.5058	1	10	n/a	n/a	1	51	1
757.6724	1	10	n/a	n/a	1	51	2
758.8056	1	10	n/a	n/a	1	51	3
759.8888	1	10	n/a	n/a	1	51	4
760.9888	1	10	n/a	n/a	1	51	5
762.0888	1	21	n/a	n/a	1	51	0
763.222	1	10	n/a	n/a	1	51	1
764.3552	1	21	n/a	n/a	1	51	0
765.0826	1	81	n/a	n/a	1	0	0
765.2826	1	81	n/a	n/a	1	0	0
765.4826	1	81	n/a	n/a	1	0	0
765.6826	1	81	n/a	n/a	1	0	0
765.8826	1	81	n/a	n/a	1	0	0
766.0828	1	81	n/a	n/a	1	0	0
766.2828	1	81	n/a	n/a	1	0	0
766.4828	1	81	n/a	n/a	1	0	0
766.6828	1	81	n/a	n/a	1	0	0
766.8826	1	81	n/a	n/a	1	0	0
768.0384	1	10	n/a	n/a	1	51	1
769.255	1	10	n/a	n/a	1	51	2
770.2882	1	10	n/a	n/a	1	51	3
771.3216	1	21	n/a	n/a	1	51	0
772.6382	1	10	n/a	n/a	1	51	1
773.838	1	10	n/a	n/a	1	51	2
775.0546	1	10	n/a	n/a	1	51	3
776.2046	1	10	n/a	n/a	1	51	4
777.4046	1	10	n/a	n/a	1	51	5
778.6044	1	21	n/a	n/a	1	51	0
779.9376	1	10	n/a	n/a	1	51	1
781.0044	1	10	n/a	n/a	1	51	2
782.1042	1	10	n/a	n/a	1	51	3
783.1708	1	10	n/a	n/a	1	51	4
784.3708	1	10	n/a	n/a	1	51	5
785.5706	1	21	n/a	n/a	1	51	0
786.6372	1	10	n/a	n/a	1	51	1
787.9206	1	10	n/a	n/a	1	51	2
789.2372	1	10	n/a	n/a	1	51	3
790.3204	1	10	n/a	n/a	1	51	4
791.4228	1	81	n/a	n/a	1	0	0
791.6228	1	81	n/a	n/a	1	0	0
791.8228	1	81	n/a	n/a	1	0	0
792.0228	1	81	n/a	n/a	1	0	0
792.2228	1	81	n/a	n/a	1	0	0
792.423	1	81	n/a	n/a	1	0	0
792.623	1	81	n/a	n/a	1	0	0
792.823	1	81	n/a	n/a	1	0	0
793.023	1	81	n/a	n/a	1	0	0
793.223	1	81	n/a	n/a	1	0	0
794.4036	1	10	n/a	n/a	1	51	1
795.7202	1	10	n/a	n/a	1	51	2
796.7534	1	10	n/a	n/a	1	51	3
798.0532	1	10	n/a	n/a	1	51	4
799.1866	1	10	n/a	n/a	1	51	5
800.3198	1	21	n/a	n/a	1	51	0
801.5864	1	10	n/a	n/a	1	51	1
802.8864	1	10	n/a	n/a	1	51	2
804.1862	1	10	n/a	n/a	1	51	3
805.5028	1	10	n/a	n/a	1	51	4
806.8028	1	10	n/a	n/a	1	51	5
808.1028	1	21	n/a	n/a	1	51	0
809.3526	1	10	n/a	n/a	1	51	1
810.6026	1	21	n/a	n/a	1	51	0
811.7358	1	10	n/a	n/a	1	51	1
813.0358	1	10	n/a	n/a	1	51	2
814.1856	1	10	n/a	n/a	1	51	3
815.2522	1	10	n/a	n/a	1	51	4
816.5022	1	10	n/a	n/a	1	51	5
817.5522	1	10	n/a	n/a	1	51	6
818.3576	1	81	n/a	n/a	1	0	0
818.5576	1	81	n/a	n/a	1	0	0
818.7576	1	81	n/a	n/a	1	0	0
818.9576	1	81	n/a	n/a	1	0	0
819.1576	1	81	n/a	n/a	1	0	0
819.3576	1	81	n/a	n/a	1	0	0
819.5576	1	81	n/a	n/a	1	0	0
819.7576	1	81	n/a	n/a	1	0	0
819.9576	1	81	n/a	n/a	1	0	0
820.1576	1	81	n/a	n/a	1	0	0
821.3852	1	10	n/a	n/a	1	51	1
822.7018	1	10	n/a	n/a	1	51	2
823.7352	1	10	n/a	n/a	1	51	3
824.7684	1	21	n/a	n/a	1	51	0
825.9016	1	10	n/a	n/a	1	51	1
827.1182	1	10	n/a	n/a	1	51	2
828.1682	1	10	n/a	n/a	1	51	3
829.2182	1	21	n/a	n/a	1	51	0
830.3848	1	10	n/a	n/a	1	51	1
831.4346	1	10	n/a	n/a	1	51	2
832.468	1	10	n/a	n/a	1	51	3
833.5012	1	21	n/a	n/a	1	51	0
834.6512	1	10	n/a	n/a	1	51	1
835.8178	1	10	n/a	n/a	1	51	2
837.0844	1	10	n/a	n/a	1	51	3
838.351	1	21	n/a	n/a	1	51	0
839.4342	1	10	n/a	n/a	1	51	1
840.7508	1	10	n/a	n/a	1	51	2
841.934	1	10	n/a	n/a	1	51	3
843.2506	1	10	n/a	n/a	1	51	4
853.6548	1	82	n/a	n/a	1	0	0
853.9158	1	82	n/a	n/a	1	0	0
854.2688	1	82	n/a	n/a	1	0	0
854.4298	1	82	n/a	n/a	1	0	0
854.5658	1	82	n/a	n/a	1	0	0
854.6548	1	82	n/a	n/a	1	0	0
854.8188	1	82	n/a	n/a	1	0	0
854.9328	1	82	n/a	n/a	1	0	0
855.1948	1	82	n/a	n/a	1	0	0
855.4848	1	82	n/a	n/a	1	0	0
856.7498	1	10	n/a	n/a	1	50	1
857.8998	1	10	n/a	n/a	1	50	2
859.1498	1	10	n/a	n/a	1	50	3
860.4496	1	10	n/a	n/a	1	50	4
861.5996	1	10	n/a	n/a	1	50	5
862.7496	1	10	n/a	n/a	1	50	6
863.7828	1	10	n/a	n/a	1	50	7
864.816	1	21	n/a	n/a	1	50	0
865.8826	1	10	n/a	n/a	1	50	1
867.166	1	10	n/a	n/a	1	50	2
868.3158	1	10	n/a	n/a	1	50	3
869.4658	1	21	n/a	n/a	1	50	0
870.499	1	10	n/a	n/a	1	50	1
871.7156	1	10	n/a	n/a	1	50	2
872.9988	1	10	n/a	n/a	1	50	3
874.2822	1	21	n/a	n/a	1	50	0
875.432	1	10	n/a	n/a	1	50	1
876.732	1	10	n/a	n/a	1	50	2
877.882	1	10	n/a	n/a	1	50	3
879.0318	1	10	n/a	n/a	1	50	4
879.9126	1	82	n/a	n/a	1	0	0
879.9956	1	82	n/a	n/a	1	0	0
880.0356	1	82	n/a	n/a	1	0	0
880.2626	1	82	n/a	n/a	1	0	0
880.5956	1	82	n/a	n/a	1	0	0
880.9126	1	82	n/a	n/a	1	0	0
881.0506	1	82	n/a	n/a	1	0	0
881.3516	1	82	n/a	n/a	1	0	0
881.4486	1	82	n/a	n/a	1	0	0
881.7706	1	82	n/a	n/a	1	0	0
882.8484	1	10	n/a	n/a	1	50	1
883.8982	1	21	n/a	n/a	1	50	0
884.9648	1	10	n/a	n/a	1	50	1
886.1482	1	10	n/a	n/a	1	50	2
887.4648	1	10	n/a	n/a	1	50	3
888.7314	1	10	n/a	n/a	1	50	4
889.998	1	10	n/a	n/a	1	50	5
891.2644	1	21	n/a	n/a	1	50	0
892.4478	1	10	n/a	n/a	1	50	1
893.6476	1	10	n/a	n/a	1	50	2
894.831	1	10	n/a	n/a	1	50	3
895.9308	1	10	n/a	n/a	1	50	4
897.1974	1	10	n/a	n/a	1	50	5
898.464	1	21	n/a	n/a	1	50	0
899.5474	1	10	n/a	n/a	1	50	1
900.7972	1	10	n/a	n/a	1	50	2
901.8638	1	10	n/a	n/a	1	50	3
902.9304	1	21	n/a	n/a	1	50	0
904.0138	1	10	n/a	n/a	1	50	1
905.247	1	10	n/a	n/a	1	50	2
906.3114	1	82	n/a	n/a	1	0	0
906.6974	1	82	n/a	n/a	1	0	0
906.8284	1	82	n/a	n/a	1	0	0
907.0364	1	82	n/a	n/a	1	0	0
907.2084	1	82	n/a	n/a	1	0	0
907.3122	1	82	n/a	n/a	1	0	0
907.4212	1	82	n/a	n/a	1	0	0
907.4692	1	82	n/a	n/a	1	0	0
907.8372	1	82	n/a	n/a	1	0	0
908.0732	1	82	n/a	n/a	1	0	0
909.2968	1	10	n/a	n/a	1	50	1
910.3968	1	10	n/a	n/a	1	50	2
911.43	1	10	n/a	n/a	1	50	3
912.6966	1	10	n/a	n/a	1	50	4
913.9632	1	10	n/a	n/a	1	50	5
915.1298	1	10	n/a	n/a	1	50	6
916.1796	1	10	n/a	n/a	1	50	7
917.2296	1	21	n/a	n/a	1	50	0
918.3462	1	10	n/a	n/a	1	50	1
919.6294	1	10	n/a	n/a	1	50	2
920.6794	1	10	n/a	n/a	1	50	3
921.7294	1	21	n/a	n/a	1	50	0
922.7626	1	10	n/a	n/a	1	50	1
923.796	1	21	n/a	n/a	1	50	0
925.0958	1	10	n/a	n/a	1	50	1
926.1958	1	10	n/a	n/a	1	50	2
927.2624	1	10	n/a	n/a	1	50	3
928.329	1	21	n/a	n/a	1	50	0
929.3622	1	10	n/a	n/a	1	50	1
930.5622	1	10	n/a	n/a	1	50	2
931.5496	1	82	n/a	n/a	1	0	0
931.9396	1	82	n/a	n/a	1	0	0
932.1806	1	82	n/a	n/a	1	0	0
932.2556	1	82	n/a	n/a	1	0	0
932.4326	1	82	n/a	n/a	1	0	0
932.5496	1	82	n/a	n/a	1	0	0
932.6166	1	82	n/a	n/a	1	0	0
933.0326	1	82	n/a	n/a	1	0	0
933.3846	1	82	n/a	n/a	1	0	0
933.4266	1	82	n/a	n/a	1	0	0
934.4952	1	10	n/a	n/a	1	50	1
935.7952	1	10	n/a	n/a	1	50	2
936.8952	1	10	n/a	n/a	1	50	3
937.9952	1	21	n/a	n/a	1	50	0
939.1116	1	10	n/a	n/a	1	50	1
940.1782	1	10	n/a	n/a	1	50	2
941.2948	1	10	n/a	n/a	1	50	3
942.5114	1	10	n/a	n/a	1	50	4
943.7448	1	10	n/a	n/a	1	50	5
945.028	1	10	n/a	n/a	1	50	6
946.2112	1	10	n/a	n/a	1	50	7
947.4278	1	21	n/a	n/a	1	50	0
948.5278	1	10	n/a	n/a	1	50	1
949.7778	1	10	n/a	n/a	1	50	2
950.8444	1	10	n/a	n/a	1	50	3
952.061	1	10	n/a	n/a	1	50	4
953.1776	1	10	n/a	n/a	1	50	5
954.2942	1	21	n/a	n/a	1	50	0
955.4774	1	10	n/a	n/a	1	50	1
956.6606	1	10	n/a	n/a	1	50	2
957.6082	1	82	n/a	n/a	1	0	0
957.8292	1	82	n/a	n/a	1	0	0
957.8542	1	82	n/a	n/a	1	0	0
958.1152	1	82	n/a	n/a	1	0	0
958.3972	1	82	n/a	n/a	1	0	0
958.6082	1	82	n/a	n/a	1	0	0
958.7672	1	82	n/a	n/a	1	0	0
958.8072	1	82	n/a	n/a	1	0	0
959.1722	1	82	n/a	n/a	1	0	0
959.2952	1	82	n/a	n/a	1	0	0
960.777	1	10	n/a	n/a	1	50	1
961.9436	1	10	n/a	n/a	1	50	2
963.177	1	10	n/a	n/a	1	50	3
964.4102	1	21	n/a	n/a	1	50	0
965.6102	1	10	n/a	n/a	1	50	1
966.71	1	10	n/a	n/a	1	50	2
968.01	1	10	n/a	n/a	1	50	3
969.2932	1	10	n/a	n/a	1	50	4
970.4932	1	10	n/a	n/a	1	50	5
971.5764	1	10	n/a	n/a	1	50	6
972.8098	1	10	n/a	n/a	1	50	7
974.0264	1	21	n/a	n/a	1	50	0
975.0762	1	10	n/a	n/a	1	50	1
976.4096	1	10	n/a	n/a	1	50	2
977.5094	1	10	n/a	n/a	1	50	3
978.6428	1	10	n/a	n/a	1	50	4
979.8094	1	10	n/a	n/a	1	50	5
980.976	1	21	n/a	n/a	1	50	0
982.0924	1	10	n/a	n/a	1	50	1
983.2092	1	21	n/a	n/a	1	50	0
1004.6336	1	82	n/a	n/a	1	0	0
1004.9326	1	82	n/a	n/a	1	0	0
1004.9576	1	82	n/a	n/a	1	0	0
1005.0286	1	82	n/a	n/a	1	0	0
1005.3866	1	82	n/a	n/a	1	0	0
1005.6336	1	82	n/a	n/a	1	0	0
1005.9806	1	82	n/a	n/a	1	0	0
1006.1526	1	82	n/a	n/a	1	0	0
1006.3816	1	82	n/a	n/a	1	0	0
1006.4016	1	82	n/a	n/a	1	0	0
1007.6576	1	10	n/a	n/a	1	52	1
1008.8076	1	10	n/a	n/a	1	52	2
1010.0408	1	10	n/a	n/a	1	52	3
1011.2242	1	21	n/a	n/a	1	52	0
1012.324	1	10	n/a	n/a	1	52	1
1013.474	1	10	n/a	n/a	1	52	2
1014.524	1	10	n/a	n/a	1	52	3
1015.5738	1	21	n/a	n/a	1	52	0
1016.7404	1	10	n/a	n/a	1	52	1
1018.0404	1	10	n/a	n/a	1	52	2
1019.2736	1	10	n/a	n/a	1	52	3
1020.507	1	21	n/a	n/a	1	52	0
1021.6402	1	10	n/a	n/a	1	52	1
1022.8734	1	10	n/a	n/a	1	52	2
1023.94	1	10	n/a	n/a	1	52	3
1025.0066	1	21	n/a	n/a	1	52	0
1026.0732	1	10	n/a	n/a	1	52	1
1027.2066	1	10	n/a	n/a	1	52	2
1028.5064	1	10	n/a	n/a	1	52	3
1029.5564	1	10	n/a	n/a	1	52	4
1030.3928	1	82	n/a	n/a	1	0	0
1030.6298	1	82	n/a	n/a	1	0	0
1030.7208	1	82	n/a	n/a	1	0	0
1030.8328	1	82	n/a	n/a	1	0	0
1030.8988	1	82	n/a	n/a	1	0	0
1031.3928	1	82	n/a	n/a	1	0	0
1031.4768	1	82	n/a	n/a	1	0	0
1031.8328	1	82	n/a	n/a	1	0	0
1032.1018	1	82	n/a	n/a	1	0	0
1032.1328	1	82	n/a	n/a	1	0	0
1033.5228	1	10	n/a	n/a	1	52	1
1034.756	1	21	n/a	n/a	1	52	0
1035.906	1	10	n/a	n/a	1	52	1
1036.956	1	10	n/a	n/a	1	52	2
1038.0726	1	10	n/a	n/a	1	52	3
1039.3392	1	10	n/a	n/a	1	52	4
1040.439	1	10	n/a	n/a	1	52	5
1041.539	1	21	n/a	n/a	1	52	0
1042.6056	1	10	n/a	n/a	1	52	1
1043.8556	1	10	n/a	n/a	1	52	2
1045.1388	1	10	n/a	n/a	1	52	3
1046.2388	1	10	n/a	n/a	1	52	4
1047.4054	1	10	n/a	n/a	1	52	5
1048.572	1	21	n/a	n/a	1	52	0
1049.7218	1	10	n/a	n/a	1	52	1
1050.8718	1	10	n/a	n/a	1	52	2
1052.0718	1	10	n/a	n/a	1	52	3
1053.2884	1	10	n/a	n/a	1	52	4
1054.5882	1	10	n/a	n/a	1	52	5
1055.8882	1	21	n/a	n/a	1	52	0
1056.7378	1	82	n/a	n/a	1	0	0
1056.7748	1	82	n/a	n/a	1	0	0
1056.9088	1	82	n/a	n/a	1	0	0
1057.1778	1	82	n/a	n/a	1	0	0
1057.5718	1	82	n/a	n/a	1	0	0
1057.738	1	82	n/a	n/a	1	0	0
1058.1238	1	82	n/a	n/a	1	0	0
1058.1928	1	82	n/a	n/a	1	0	0
1058.3598	1	82	n/a	n/a	1	0	0
1058.6638	1	82	n/a	n/a	1	0	0
1059.738	1	10	n/a	n/a	1	52	1
1060.9212	1	10	n/a	n/a	1	52	2
1062.2044	1	10	n/a	n/a	1	52	3
1063.4878	1	21	n/a	n/a	1	52	0
1064.7376	1	10	n/a	n/a	1	52	1
1065.971	1	10	n/a	n/a	1	52	2
1067.2708	1	10	n/a	n/a	1	52	3
1068.4042	1	10	n/a	n/a	1	52	4
1069.654	1	10	n/a	n/a	1	52	5
1070.7206	1	10	n/a	n/a	1	52	6
1071.9706	1	10	n/a	n/a	1	52	7
1073.2204	1	21	n/a	n/a	1	52	0
1074.3704	1	10	n/a	n/a	1	52	1
1075.4704	1	10	n/a	n/a	1	52	2
1076.637	1	10	n/a	n/a	1	52	3
1077.7368	1	10	n/a	n/a	1	52	4
1078.8702	1	10	n/a	n/a	1	52	5
1080.0034	1	21	n/a	n/a	1	52	0
1081.2034	1	10	n/a	n/a	1	52	1
1082.27	1	10	n/a	n/a	1	52	2
1083.0304	1	82	n/a	n/a	1	0	0
1083.3584	1	82	n/a	n/a	1	0	0
1083.4354	1	82	n/a	n/a	1	0	0
1083.6574	1	82	n/a	n/a	1	0	0
1083.7074	1	82	n/a	n/a	1	0	0
1084.0304	1	82	n/a	n/a	1	0	0
1084.3274	1	82	n/a	n/a	1	0	0
1084.6734	1	82	n/a	n/a	1	0	0
1084.6934	1	82	n/a	n/a	1	0	0
1084.8234	1	82	n/a	n/a	1	0	0
1086.153	1	10	n/a	n/a	1	52	1
1087.3364	1	10	n/a	n/a	1	52	2
1088.3696	1	10	n/a	n/a	1	52	3
1089.4028	1	21	n/a	n/a	1	52	0
1090.4862	1	10	n/a	n/a	1	52	1
1091.5528	1	10	n/a	n/a	1	52	2
1092.7526	1	10	n/a	n/a	1	52	3
1093.9526	1	21	n/a	n/a	1	52	0
1095.0192	1	10	n/a	n/a	1	52	1
1096.1858	1	10	n/a	n/a	1	52	2
1097.4358	1	10	n/a	n/a	1	52	3
1098.6856	1	21	n/a	n/a	1	52	0
1099.7856	1	10	n/a	n/a	1	52	1
1100.8856	1	21	n/a	n/a	1	52	0
1102.0688	1	10	n/a	n/a	1	52	1
1103.252	1	21	n/a	n/a	1	52	0
1104.5186	1	10	n/a	n/a	1	52	1
1105.8352	1	10	n/a	n/a	1	52	2
1106.9352	1	10	n/a	n/a	1	52	3
1108.0518	1	10	n/a	n/a	1	52	4
1108.8832	1	82	n/a	n/a	1	0	0
1108.9252	1	82	n/a	n/a	1	0	0
1109.1762	1	82	n/a	n/a	1	0	0
1109.5142	1	82	n/a	n/a	1	0	0
1109.7362	1	82	n/a	n/a	1	0	0
1109.8832	1	82	n/a	n/a	1	0	0
1109.9762	1	82	n/a	n/a	1	0	0
1110.0282	1	82	n/a	n/a	1	0	0
1110.0572	1	82	n/a	n/a	1	0	0
1110.3022	1	82	n/a	n/a	1	0	0
1112.0348	1	10	n/a	n/a	1	52	1
1113.3014	1	21	n/a	n/a	1	52	0
1114.568	1	10	n/a	n/a	1	52	1
1115.768	1	10	n/a	n/a	1	52	2
1116.968	1	10	n/a	n/a	1	52	3
1118.1678	1	21	n/a	n/a	1	52	0
1119.4678	1	10	n/a	n/a	1	52	1
1120.5344	1	10	n/a	n/a	1	52	2
1121.5676	1	10	n/a	n/a	1	52	3
1122.751	1	10	n/a	n/a	1	52	4
1123.9842	1	10	n/a	n/a	1	52	5
1125.1342	1	10	n/a	n/a	1	52	6
1126.284	1	10	n/a	n/a	1	52	7
1127.434	1	21	n/a	n/a	1	52	0
1128.6672	1	10	n/a	n/a	1	52	1
1129.7006	1	10	n/a	n/a	1	52	2
1130.8504	1	10	n/a	n/a	1	52	3
1131.9338	1	10	n/a	n/a	1	52	4
1132.9836	1	10	n/a	n/a	1	52	5
1134.0336	1	21	n/a	n/a	1	52	0
1188.1678	1	82	n/a	n/a	1	0	0
1188.2098	1	82	n/a	n/a	1	0	0
1188.5228	1	82	n/a	n/a	1	0	0
1188.7688	1	82	n/a	n/a	1	0	0
1188.8388	1	82	n/a	n/a	1	0	0
1189.1678	1	82	n/a	n/a	1	0	0
1189.5228	1	82	n/a	n/a	1	0	0
1189.5478	1	82	n/a	n/a	1	0	0
1189.9518	1	82	n/a	n/a	1	0	0
1189.9998	1	82	n/a	n/a	1	0	0
1191.247	1	10	n/a	n/a	1	52	1
1192.3636	1	10	n/a	n/a	1	52	2
1193.63	1	10	n/a	n/a	1	52	3
1194.7466	1	10	n/a	n/a	1	52	4
1196.03	1	10	n/a	n/a	1	52	5
1197.3132	1	21	n/a	n/a	1	52	0
1198.5298	1	10	n/a	n/a	1	52	1
1199.613	1	10	n/a	n/a	1	52	2
1200.7464	1	10	n/a	n/a	1	52	3
1201.8796	1	21	n/a	n/a	1	52	0
1203.1462	1	10	n/a	n/a	1	52	1
1204.4128	1	21	n/a	n/a	1	52	0
1205.5628	1	10	n/a	n/a	1	52	1
1206.6126	1	10	n/a	n/a	1	52	2
1207.846	1	10	n/a	n/a	1	52	3
1209.0792	1	21	n/a	n/a	1	52	0
1210.2624	1	10	n/a	n/a	1	52	1
1211.4458	1	21	n/a	n/a	1	52	0
1212.529	1	10	n/a	n/a	1	52	1
1213.6956	1	10	n/a	n/a	1	52	2
1214.4662	1	82	n/a	n/a	1	0	0
1214.5522	1	82	n/a	n/a	1	0	0
1214.8532	1	82	n/a	n/a	1	0	0
1215.0102	1	82	n/a	n/a	1	0	0
1215.0572	1	82	n/a	n/a	1	0	0
1215.4662	1	82	n/a	n/a	1	0	0
1215.7842	1	82	n/a	n/a	1	0	0
1215.8842	1	82	n/a	n/a	1	0	0
1216.1082	1	82	n/a	n/a	1	0	0
1216.2552	1	82	n/a	n/a	1	0	0
1217.6286	1	10	n/a	n/a	1	52	1
1218.712	1	10	n/a	n/a	1	52	2
1219.8452	1	10	n/a	n/a	1	52	3
1220.9452	1	10	n/a	n/a	1	52	4
1222.0618	1	10	n/a	n/a	1	52	5
1223.395	1	10	n/a	n/a	1	52	6
1224.545	1	10	n/a	n/a	1	52	7
1225.6948	1	21	n/a	n/a	1	52	0
1226.8782	1	10	n/a	n/a	1	52	1
1228.1448	1	10	n/a	n/a	1	52	2
1229.428	1	10	n/a	n/a	1	52	3
1230.5612	1	10	n/a	n/a	1	52	4
1231.7278	1	10	n/a	n/a	1	52	5
1232.8944	1	21	n/a	n/a	1	52	0
1234.0944	1	10	n/a	n/a	1	52	1
1235.2944	1	21	n/a	n/a	1	52	0
1236.3442	1	10	n/a	n/a	1	52	1
1237.6442	1	10	n/a	n/a	1	52	2
1238.7608	1	10	n/a	n/a	1	52	3
1239.8774	1	21	n/a	n/a	1	52	0
1240.702	1	82	n/a	n/a	1	0	0
1240.78	1	82	n/a	n/a	1	0	0
1241.141	1	82	n/a	n/a	1	0	0
1241.276	1	82	n/a	n/a	1	0	0
1241.442	1	82	n/a	n/a	1	0	0
1241.702	1	82	n/a	n/a	1	0	0
1241.837	1	82	n/a	n/a	1	0	0
1241.943	1	82	n/a	n/a	1	0	0
1242.113	1	82	n/a	n/a	1	0	0
1242.488	1	82	n/a	n/a	1	0	0
1243.6272	1	10	n/a	n/a	1	52	1
1244.6604	1	21	n/a	n/a	1	52	0
1245.6938	1	10	n/a	n/a	1	52	1
1246.927	1	10	n/a	n/a	1	52	2
1248.127	1	10	n/a	n/a	1	52	3
1249.3768	1	10	n/a	n/a	1	52	4
1250.4102	1	10	n/a	n/a	1	52	5
1251.6934	1	10	n/a	n/a	1	52	6
1252.8266	1	10	n/a	n/a	1	52	7
1253.96	1	21	n/a	n/a	1	52	0
1255.2598	1	10	n/a	n/a	1	52	1
1256.3264	1	10	n/a	n/a	1	52	2
1257.443	1	10	n/a	n/a	1	52	3
1258.5596	1	21	n/a	n/a	1	52	0
1259.8262	1	10	n/a	n/a	1	52	1
1261.0928	1	10	n/a	n/a	1	52	2
1262.1928	1	10	n/a	n/a	1	52	3
1263.2926	1	21	n/a	n/a	1	52	0
1264.5592	1	10	n/a	n/a	1	52	1
1265.8258	1	10	n/a	n/a	1	52	2
1266.8974	1	82	n/a	n/a	1	0	0
1266.9224	1	82	n/a	n/a	1	0	0
1267.0004	1	82	n/a	n/a	1	0	0
1267.4134	1	82	n/a	n/a	1	0	0
1267.7704	1	82	n/a	n/a	1	0	0
1267.8974	1	82	n/a	n/a	1	0	0
1268.0434	1	82	n/a	n/a	1	0	0
1268.2694	1	82	n/a	n/a	1	0	0
1268.3024	1	82	n/a	n/a	1	0	0
1268.5834	1	82	n/a	n/a	1	0	0
1270.0422	1	10	n/a	n/a	1	52	1
1271.1756	1	10	n/a	n/a	1	52	2
1272.4088	1	10	n/a	n/a	1	52	3
1273.592	1	10	n/a	n/a	1	52	4
1274.742	1	10	n/a	n/a	1	52	5
1275.9252	1	10	n/a	n/a	1	52	6
1276.9752	1	10	n/a	n/a	1	52	7
1278.0252	1	21	n/a	n/a	1	52	0
1279.2084	1	10	n/a	n/a	1	52	1
1280.4916	1	10	n/a	n/a	1	52	2
1281.5582	1	10	n/a	n/a	1	52	3
1282.6916	1	10	n/a	n/a	1	52	4
1283.8082	1	10	n/a	n/a	1	52	5
1284.9248	1	21	n/a	n/a	1	52	0
1286.2414	1	10	n/a	n/a	1	52	1
1287.558	1	21	n/a	n/a	1	52	0
1288.7412	1	10	n/a	n/a	1	52	1
1290.0412	1	10	n/a	n/a	1	52	2
1291.191	1	10	n/a	n/a	1	52	3
1292.2576	1	10	n/a	n/a	1	52	4
1293.0852	1	82	n/a	n/a	1	0	0
1293.4872	1	82	n/a	n/a	1	0	0
1293.7842	1	82	n/a	n/a	1	0	0
1293.9082	1	82	n/a	n/a	1	0	0
1293.9802	1	82	n/a	n/a	1	0	0
1294.0852	1	82	n/a	n/a	1	0	0
1294.1332	1	82	n/a	n/a	1	0	0
1294.3062	1	82	n/a	n/a	1	0	0
1294.4572	1	82	n/a	n/a	1	0	0
1294.7852	1	82	n/a	n/a	1	0	0
1296.0908	1	10	n/a	n/a	1	52	1
1297.4074	1	10	n/a	n/a	1	52	2
1298.524	1	10	n/a	n/a	1	52	3
1299.6572	1	10	n/a	n/a	1	52	4
1300.9404	1	10	n/a	n/a	1	52	5
1302.1404	1	10	n/a	n/a	1	52	6
1303.4736	1	10	n/a	n/a	1	52	7
1304.7902	1	21	n/a	n/a	1	52	0
1305.8402	1	10	n/a	n/a	1	52	1
1306.9068	1	21	n/a	n/a	1	52	0
1308.0234	1	10	n/a	n/a	1	52	1
1309.14	1	10	n/a	n/a	1	52	2
1310.4732	1	10	n/a	n/a	1	52	3
1311.5398	1	10	n/a	n/a	1	52	4
1312.6732	1	10	n/a	n/a	1	52	5
1313.8064	1	21	n/a	n/a	1	52	0
1314.8064	1	10	n/a	n/a	1	52	1
1316.123	1	10	n/a	n/a	1	52	2
1317.4396	1	10	n/a	n/a	1	52	3
1318.6728	1	10	n/a	n/a	1	52	4
1329.8602	1	81	n/a	n/a	1	0	0
1330.0602	1	81	n/a	n/a	1	0	0
1330.2602	1	81	n/a	n/a	1	0	0
1330.4602	1	81	n/a	n/a	1	0	0
1330.6602	1	81	n/a	n/a	1	0	0
1330.8602	1	81	n/a	n/a	1	0	0
1331.0602	1	81	n/a	n/a	1	0	0
1331.2602	1	81	n/a	n/a	1	0	0
1331.4602	1	81	n/a	n/a	1	0	0
1331.6602	1	81	n/a	n/a	1	0	0
1332.872	1	10	n/a	n/a	1	50	1
1334.1886	1	10	n/a	n/a	1	50	2
1335.3218	1	10	n/a	n/a	1	50	3
1336.5384	1	10	n/a	n/a	1	50	4
1337.755	1	10	n/a	n/a	1	50	5
1338.9716	1	21	n/a	n/a	1	50	0
1340.1216	1	10	n/a	n/a	1	50	1
1341.2714	1	21	n/a	n/a	1	50	0
1342.5714	1	10	n/a	n/a	1	50	1
1343.8712	1	21	n/a	n/a	1	50	0
1345.0378	1	10	n/a	n/a	1	50	1
1346.2044	1	21	n/a	n/a	1	50	0
1347.521	1	10	n/a	n/a	1	50	1
1348.6876	1	10	n/a	n/a	1	50	2
1349.8042	1	10	n/a	n/a	1	50	3
1350.9042	1	10	n/a	n/a	1	50	4
1352.0874	1	10	n/a	n/a	1	50	5
1353.1708	1	10	n/a	n/a	1	50	6
1354.3706	1	10	n/a	n/a	1	50	7
1355.5706	1	21	n/a	n/a	1	50	0
1356.519	1	81	n/a	n/a	1	0	0
1356.719	1	81	n/a	n/a	1	0	0
1356.919	1	81	n/a	n/a	1	0	0
1357.119	1	81	n/a	n/a	1	0	0
1357.319	1	81	n/a	n/a	1	0	0
1357.519	1	81	n/a	n/a	1	0	0
1357.719	1	81	n/a	n/a	1	0	0
1357.919	1	81	n/a	n/a	1	0	0
1358.119	1	81	n/a	n/a	1	0	0
1358.319	1	81	n/a	n/a	1	0	0
1359.687	1	10	n/a	n/a	1	50	1
1360.987	1	10	n/a	n/a	1	50	2
1362.1202	1	10	n/a	n/a	1	50	3
1363.2534	1	21	n/a	n/a	1	50	0
1364.3534	1	10	n/a	n/a	1	50	1
1365.4534	1	10	n/a	n/a	1	50	2
1366.72	1	10	n/a	n/a	1	50	3
1367.8698	1	10	n/a	n/a	1	50	4
1368.9032	1	10	n/a	n/a	1	50	5
1369.9364	1	21	n/a	n/a	1	50	0
1370.9864	1	10	n/a	n/a	1	50	1
1372.1862	1	10	n/a	n/a	1	50	2
1373.3528	1	10	n/a	n/a	1	50	3
1374.4694	1	10	n/a	n/a	1	50	4
1375.586	1	10	n/a	n/a	1	50	5
1376.7026	1	21	n/a	n/a	1	50	0
1377.8026	1	10	n/a	n/a	1	50	1
1378.936	1	10	n/a	n/a	1	50	2
1380.0026	1	10	n/a	n/a	1	50	3
1381.1192	1	10	n/a	n/a	1	50	4
1382.0906	1	81	n/a	n/a	1	0	0
1382.2906	1	81	n/a	n/a	1	0	0
1382.4906	1	81	n/a	n/a	1	0	0
1382.6906	1	81	n/a	n/a	1	0	0
1382.8906	1	81	n/a	n/a	1	0	0
1383.0906	1	81	n/a	n/a	1	0	0
1383.2906	1	81	n/a	n/a	1	0	0
1383.4906	1	81	n/a	n/a	1	0	0
1383.6906	1	81	n/a	n/a	1	0	0
1383.8906	1	81	n/a	n/a	1	0	0
1385.1856	1	10	n/a	n/a	1	50	1
1386.5022	1	10	n/a	n/a	1	50	2
1387.602	1	10	n/a	n/a	1	50	3
1388.7686	1	10	n/a	n/a	1	50	4
1389.8352	1	10	n/a	n/a	1	50	5
1390.9018	1	21	n/a	n/a	1	50	0
1392.0018	1	10	n/a	n/a	1	50	1
1393.135	1	10	n/a	n/a	1	50	2
1394.435	1	10	n/a	n/a	1	50	3
1395.735	1	21	n/a	n/a	1	50	0
1396.8682	1	10	n/a	n/a	1	50	1
1397.9682	1	10	n/a	n/a	1	50	2
1399.0514	1	10	n/a	n/a	1	50	3
1400.2346	1	10	n/a	n/a	1	50	4
1401.268	1	10	n/a	n/a	1	50	5
1402.3012	1	21	n/a	n/a	1	50	0
1403.5844	1	10	n/a	n/a	1	50	1
1404.7678	1	10	n/a	n/a	1	50	2
1406.0176	1	10	n/a	n/a	1	50	3
1407.2676	1	21	n/a	n/a	1	50	0
1408.2982	1	81	n/a	n/a	1	0	0
1408.4982	1	81	n/a	n/a	1	0	0
1408.6982	1	81	n/a	n/a	1	0	0
1408.8982	1	81	n/a	n/a	1	0	0
1409.0982	1	81	n/a	n/a	1	0	0
1409.2982	1	81	n/a	n/a	1	0	0
1409.4982	1	81	n/a	n/a	1	0	0
1409.6982	1	81	n/a	n/a	1	0	0
1409.8982	1	81	n/a	n/a	1	0	0
1410.0982	1	81	n/a	n/a	1	0	0
1411.334	1	10	n/a	n/a	1	50	1
1412.484	1	10	n/a	n/a	1	50	2
1413.6838	1	10	n/a	n/a	1	50	3
1414.8838	1	21	n/a	n/a	1	50	0
1416.017	1	10	n/a	n/a	1	50	1
1417.2336	1	10	n/a	n/a	1	50	2
1418.4002	1	10	n/a	n/a	1	50	3
1419.5168	1	10	n/a	n/a	1	50	4
1420.6168	1	10	n/a	n/a	1	50	5
1421.7668	1	10	n/a	n/a	1	50	6
1423.0166	1	10	n/a	n/a	1	50	7
1424.2666	1	21	n/a	n/a	1	50	0
1425.5832	1	10	n/a	n/a	1	50	1
1426.6664	1	10	n/a	n/a	1	50	2
1427.6664	1	10	n/a	n/a	1	50	3
1428.833	1	10	n/a	n/a	1	50	4
1430.1496	1	10	n/a	n/a	1	50	5
1431.4662	1	21	n/a	n/a	1	50	0
1432.5494	1	10	n/a	n/a	1	50	1
1433.6326	1	10	n/a	n/a	1	50	2
1434.6824	1	81	n/a	n/a	1	0	0
1434.8824	1	81	n/a	n/a	1	0	0
1435.0824	1	81	n/a	n/a	1	0	0
1435.2824	1	81	n/a	n/a	1	0	0
1435.4824	1	81	n/a	n/a	1	0	0
1435.6824	1	81	n/a	n/a	1	0	0
1435.8824	1	81	n/a	n/a	1	0	0
1436.0824	1	81	n/a	n/a	1	0	0
1436.2824	1	81	n/a	n/a	1	0	0
1436.4824	1	81	n/a	n/a	1	0	0
1437.6492	1	10	n/a	n/a	1	50	1
1438.899	1	10	n/a	n/a	1	50	2
1440.199	1	10	n/a	n/a	1	50	3
1441.4322	1	10	n/a	n/a	1	50	4
1442.6822	1	10	n/a	n/a	1	50	5
1443.8154	1	10	n/a	n/a	1	50	6
1445.032	1	10	n/a	n/a	1	50	7
1446.2486	1	21	n/a	n/a	1	50	0
1447.3986	1	10	n/a	n/a	1	50	1
1448.5652	1	10	n/a	n/a	1	50	2
1449.865	1	10	n/a	n/a	1	50	3
1451.1316	1	10	n/a	n/a	1	50	4
1452.215	1	10	n/a	n/a	1	50	5
1453.2482	1	10	n/a	n/a	1	50	6
1454.5482	1	10	n/a	n/a	1	50	7
1455.848	1	21	n/a	n/a	1	50	0
1457.0814	1	10	n/a	n/a	1	50	1
1458.3146	1	21	n/a	n/a	1	50	0
1459.4478	1	10	n/a	n/a	1	50	1
1460.5812	1	21	n/a	n/a	1	50	0
1479.7518	1	81	n/a	n/a	1	0	0
1479.9518	1	81	n/a	n/a	1	0	0
1480.1518	1	81	n/a	n/a	1	0	0
1480.3518	1	81	n/a	n/a	1	0	0
1480.5518	1	81	n/a	n/a	1	0	0
1480.7518	1	81	n/a	n/a	1	0	0
1480.9518	1	81	n/a	n/a	1	0	0
1481.1518	1	81	n/a	n/a	1	0	0
1481.3518	1	81	n/a	n/a	1	0	0
1481.5518	1	81	n/a	n/a	1	0	0
1482.9464	1	10	n/a	n/a	1	51	1
1484.013	1	10	n/a	n/a	1	51	2
1485.163	1	10	n/a	n/a	1	51	3
1486.3962	1	10	n/a	n/a	1	51	4
1487.6628	1	10	n/a	n/a	1	51	5
1488.9294	1	21	n/a	n/a	1	51	0
1490.1128	1	10	n/a	n/a	1	51	1
1491.246	1	10	n/a	n/a	1	51	2
1492.3292	1	10	n/a	n/a	1	51	3
1493.3792	1	10	n/a	n/a	1	51	4
1494.4458	1	10	n/a	n/a	1	51	5
1495.4958	1	10	n/a	n/a	1	51	6
1496.529	1	10	n/a	n/a	1	51	7
1497.5622	1	21	n/a	n/a	1	51	0
1498.8622	1	10	n/a	n/a	1	51	1
1500.1622	1	21	n/a	n/a	1	51	0
1501.2788	1	10	n/a	n/a	1	51	1
1502.3954	1	21	n/a	n/a	1	51	0
1503.5286	1	10	n/a	n/a	1	51	1
1504.5952	1	10	n/a	n/a	1	51	2
1505.5276	1	81	n/a	n/a	1	0	0
1505.7276	1	81	n/a	n/a	1	0	0
1505.9276	1	81	n/a	n/a	1	0	0
1506.1276	1	81	n/a	n/a	1	0	0
1506.3276	1	81	n/a	n/a	1	0	0
1506.5276	1	81	n/a	n/a	1	0	0
1506.7276	1	81	n/a	n/a	1	0	0
1506.9276	1	81	n/a	n/a	1	0	0
1507.1276	1	81	n/a	n/a	1	0	0
1507.3276	1	81	n/a	n/a	1	0	0
1508.5284	1	10	n/a	n/a	1	51	1
1509.6282	1	21	n/a	n/a	1	51	0
1510.9282	1	10	n/a	n/a	1	51	1
1512.0114	1	10	n/a	n/a	1	51	2
1513.0614	1	10	n/a	n/a	1	51	3
1514.328	1	10	n/a	n/a	1	51	4
1515.5612	1	10	n/a	n/a	1	51	5
1516.6612	1	10	n/a	n/a	1	51	6
1517.911	1	10	n/a	n/a	1	51	7
1519.161	1	21	n/a	n/a	1	51	0
1520.211	1	10	n/a	n/a	1	51	1
1521.3442	1	10	n/a	n/a	1	51	2
1522.5776	1	10	n/a	n/a	1	51	3
1523.744	1	10	n/a	n/a	1	51	4
1525.0274	1	10	n/a	n/a	1	51	5
1526.2606	1	10	n/a	n/a	1	51	6
1527.4106	1	10	n/a	n/a	1	51	7
1528.5604	1	21	n/a	n/a	1	51	0
1529.7604	1	10	n/a	n/a	1	51	1
1531.0604	1	10	n/a	n/a	1	51	2
1532.1098	1	81	n/a	n/a	1	0	0
1532.3098	1	81	n/a	n/a	1	0	0
1532.5098	1	81	n/a	n/a	1	0	0
1532.7098	1	81	n/a	n/a	1	0	0
1532.9098	1	81	n/a	n/a	1	0	0
1533.1098	1	81	n/a	n/a	1	0	0
1533.3098	1	81	n/a	n/a	1	0	0
1533.5098	1	81	n/a	n/a	1	0	0
1533.7098	1	81	n/a	n/a	1	0	0
1533.9098	1	81	n/a	n/a	1	0	0
1535.1434	1	10	n/a	n/a	1	51	1
1536.21	1	10	n/a	n/a	1	51	2
1537.31	1	10	n/a	n/a	1	51	3
1538.5432	1	10	n/a	n/a	1	51	4
1539.7932	1	10	n/a	n/a	1	51	5
1541.0764	1	10	n/a	n/a	1	51	6
1542.1764	1	10	n/a	n/a	1	51	7
1543.2762	1	21	n/a	n/a	1	51	0
1544.3928	1	10	n/a	n/a	1	51	1
1545.6594	1	10	n/a	n/a	1	51	2
1546.926	1	10	n/a	n/a	1	51	3
1548.1926	1	21	n/a	n/a	1	51	0
1549.4592	1	10	n/a	n/a	1	51	1
1550.7258	1	21	n/a	n/a	1	51	0
1551.8092	1	10	n/a	n/a	1	51	1
1552.9258	1	10	n/a	n/a	1	51	2
1554.259	1	10	n/a	n/a	1	51	3
1555.5922	1	21	n/a	n/a	1	51	0
1556.8922	1	10	n/a	n/a	1	51	1
1558.092	1	10	n/a	n/a	1	51	2
1559.0236	1	81	n/a	n/a	1	0	0
1559.2236	1	81	n/a	n/a	1	0	0
1559.4236	1	81	n/a	n/a	1	0	0
1559.6236	1	81	n/a	n/a	1	0	0
1559.8236	1	81	n/a	n/a	1	0	0
1560.0236	1	81	n/a	n/a	1	0	0
1560.2236	1	81	n/a	n/a	1	0	0
1560.4236	1	81	n/a	n/a	1	0	0
1560.6236	1	81	n/a	n/a	1	0	0
1560.8236	1	81	n/a	n/a	1	0	0
1562.2084	1	10	n/a	n/a	1	51	1
1563.5084	1	21	n/a	n/a	1	51	0
1564.8416	1	10	n/a	n/a	1	51	1
1566.0082	1	10	n/a	n/a	1	51	2
1567.0916	1	10	n/a	n/a	1	51	3
1568.3582	1	10	n/a	n/a	1	51	4
1569.3914	1	10	n/a	n/a	1	51	5
1570.658	1	10	n/a	n/a	1	51	6
1571.6912	1	10	n/a	n/a	1	51	7
1572.7246	1	21	n/a	n/a	1	51	0
1573.9078	1	10	n/a	n/a	1	51	1
1575.141	1	10	n/a	n/a	1	51	2
1576.191	1	10	n/a	n/a	1	51	3
1577.4076	1	10	n/a	n/a	1	51	4
1578.4408	1	10	n/a	n/a	1	51	5
1579.4742	1	21	n/a	n/a	1	51	0
1580.6074	1	10	n/a	n/a	1	51	1
1581.6406	1	10	n/a	n/a	1	51	2
1582.9406	1	10	n/a	n/a	1	51	3
1584.0906	1	10	n/a	n/a	1	51	4
1585.13	1	81	n/a	n/a	1	0	0
1585.33	1	81	n/a	n/a	1	0	0
1585.53	1	81	n/a	n/a	1	0	0
1585.73	1	81	n/a	n/a	1	0	0
1585.93	1	81	n/a	n/a	1	0	0
1586.13	1	81	n/a	n/a	1	0	0
1586.33	1	81	n/a	n/a	1	0	0
1586.53	1	81	n/a	n/a	1	0	0
1586.73	1	81	n/a	n/a	1	0	0
1586.93	1	81	n/a	n/a	1	0	0
1588.057	1	10	n/a	n/a	1	51	1
1589.207	1	10	n/a	n/a	1	51	2
1590.4236	1	10	n/a	n/a	1	51	3
1591.7402	1	10	n/a	n/a	1	51	4
1592.99	1	10	n/a	n/a	1	51	5
1594.24	1	21	n/a	n/a	1	51	0
1595.4898	1	10	n/a	n/a	1	51	1
1596.7398	1	21	n/a	n/a	1	51	0
1598.0064	1	10	n/a	n/a	1	51	1
1599.073	1	10	n/a	n/a	1	51	2
1600.173	1	10	n/a	n/a	1	51	3
1601.2728	1	21	n/a	n/a	1	51	0
1602.3894	1	10	n/a	n/a	1	51	1
1603.5894	1	10	n/a	n/a	1	51	2
1604.6226	1	10	n/a	n/a	1	51	3
1605.656	1	21	n/a	n/a	1	51	0
1606.9058	1	10	n/a	n/a	1	51	1
1607.9558	1	10	n/a	n/a	1	51	2
1609.189	1	10	n/a	n/a	1	51	3
1610.3724	1	10	n/a	n/a	1	51	4
1678.0064	1	81	n/a	n/a	1	0	0
1678.2064	1	81	n/a	n/a	1	0	0
1678.4064	1	81	n/a	n/a	1	0	0
1678.6064	1	81	n/a	n/a	1	0	0
1678.8064	1	81	n/a	n/a	1	0	0
1679.0064	1	81	n/a	n/a	1	0	0
1679.2064	1	81	n/a	n/a	1	0	0
1679.4064	1	81	n/a	n/a	1	0	0
1679.6064	1	81	n/a	n/a	1	0	0
1679.8064	1	81	n/a	n/a	1	0	0
1680.9682	1	10	n/a	n/a	1	51	1
1682.2848	1	10	n/a	n/a	1	51	2
1683.5848	1	10	n/a	n/a	1	51	3
1684.818	1	10	n/a	n/a	1	51	4
1686.0512	1	10	n/a	n/a	1	51	5
1687.3346	1	10	n/a	n/a	1	51	6
1688.5012	1	10	n/a	n/a	1	51	7
1689.6676	1	21	n/a	n/a	1	51	0
1690.8676	1	10	n/a	n/a	1	51	1
1692.0842	1	10	n/a	n/a	1	51	2
1693.4008	1	10	n/a	n/a	1	51	3
1694.7174	1	21	n/a	n/a	1	51	0
1695.9674	1	10	n/a	n/a	1	51	1
1697.084	1	10	n/a	n/a	1	51	2
1698.4006	1	10	n/a	n/a	1	51	3
1699.5504	1	10	n/a	n/a	1	51	4
1700.7004	1	10	n/a	n/a	1	51	5
1701.967	1	10	n/a	n/a	1	51	6
1703.267	1	10	n/a	n/a	1	51	7
1704.5668	1	21	n/a	n/a	1	51	0
1705.3144	1	81	n/a	n/a	1	0	0
1705.5144	1	81	n/a	n/a	1	0	0
1705.7144	1	81	n/a	n/a	1	0	0
1705.9144	1	81	n/a	n/a	1	0	0
1706.1144	1	81	n/a	n/a	1	0	0
1706.3144	1	81	n/a	n/a	1	0	0
1706.5144	1	81	n/a	n/a	1	0	0
1706.7144	1	81	n/a	n/a	1	0	0
1706.9144	1	81	n/a	n/a	1	0	0
1707.1144	1	81	n/a	n/a	1	0	0
1708.3332	1	10	n/a	n/a	1	51	1
1709.4832	1	10	n/a	n/a	1	51	2
1710.6664	1	10	n/a	n/a	1	51	3
1711.8498	1	21	n/a	n/a	1	51	0
1712.8996	1	10	n/a	n/a	1	51	1
1713.9496	1	21	n/a	n/a	1	51	0
1715.1328	1	10	n/a	n/a	1	51	1
1716.3662	1	10	n/a	n/a	1	51	2
1717.5994	1	10	n/a	n/a	1	51	3
1718.8326	1	21	n/a	n/a	1	51	0
1720.016	1	10	n/a	n/a	1	51	1
1721.1158	1	10	n/a	n/a	1	51	2
1722.1492	1	10	n/a	n/a	1	51	3
1723.1824	1	21	n/a	n/a	1	51	0
1724.299	1	10	n/a	n/a	1	51	1
1725.599	1	10	n/a	n/a	1	51	2
1726.7322	1	10	n/a	n/a	1	51	3
1727.9154	1	10	n/a	n/a	1	51	4
1728.982	1	10	n/a	n/a	1	51	5
1730.0486	1	21	n/a	n/a	1	51	0
1730.8234	1	81	n/a	n/a	1	0	0
1731.0234	1	81	n/a	n/a	1	0	0
1731.2234	1	81	n/a	n/a	1	0	0
1731.4234	1	81	n/a	n/a	1	0	0
1731.6234	1	81	n/a	n/a	1	0	0
1731.8234	1	81	n/a	n/a	1	0	0
1732.0234	1	81	n/a	n/a	1	0	0
1732.2234	1	81	n/a	n/a	1	0	0
1732.4234	1	81	n/a	n/a	1	0	0
1732.6234	1	81	n/a	n/a	1	0	0
1733.7484	1	10	n/a	n/a	1	51	1
1735.065	1	10	n/a	n/a	1	51	2
1736.315	1	10	n/a	n/a	1	51	3
1737.3982	1	10	n/a	n/a	1	51	4
1738.5982	1	10	n/a	n/a	1	51	5
1739.898	1	10	n/a	n/a	1	51	6
1741.0646	1	10	n/a	n/a	1	51	7
1742.2312	1	21	n/a	n/a	1	51	0
1743.3978	1	10	n/a	n/a	1	51	1
1744.6812	1	10	n/a	n/a	1	51	2
1745.8478	1	10	n/a	n/a	1	51	3
1747.0976	1	10	n/a	n/a	1	51	4
1748.3476	1	10	n/a	n/a	1	51	5
1749.5976	1	21	n/a	n/a	1	51	0
1750.8474	1	10	n/a	n/a	1	51	1
1752.114	1	10	n/a	n/a	1	51	2
1753.1474	1	10	n/a	n/a	1	51	3
1754.1806	1	21	n/a	n/a	1	51	0
1755.2638	1	10	n/a	n/a	1	51	1
1756.3472	1	21	n/a	n/a	1	51	0
1757.0976	1	81	n/a	n/a	1	0	0
1757.2976	1	81	n/a	n/a	1	0	0
1757.4976	1	81	n/a	n/a	1	0	0
1757.6976	1	81	n/a	n/a	1	0	0
1757.8976	1	81	n/a	n/a	1	0	0
1758.0976	1	81	n/a	n/a	1	0	0
1758.2976	1	81	n/a	n/a	1	0	0
1758.4976	1	81	n/a	n/a	1	0	0
1758.6976	1	81	n/a	n/a	1	0	0
1758.8976	1	81	n/a	n/a	1	0	0
1760.2302	1	10	n/a	n/a	1	51	1
1761.4634	1	10	n/a	n/a	1	51	2
1762.5468	1	10	n/a	n/a	1	51	3
1763.58	1	21	n/a	n/a	1	51	0
1764.8966	1	10	n/a	n/a	1	51	1
1766.1132	1	10	n/a	n/a	1	51	2
1767.2132	1	10	n/a	n/a	1	51	3
1768.2964	1	10	n/a	n/a	1	51	4
1769.3464	1	10	n/a	n/a	1	51	5
1770.563	1	10	n/a	n/a	1	51	6
1771.8628	1	10	n/a	n/a	1	51	7
1773.1628	1	21	n/a	n/a	1	51	0
1774.196	1	10	n/a	n/a	1	51	1
1775.346	1	10	n/a	n/a	1	51	2
1776.4126	1	10	n/a	n/a	1	51	3
1777.5458	1	10	n/a	n/a	1	51	4
1778.7624	1	10	n/a	n/a	1	51	5
1779.979	1	21	n/a	n/a	1	51	0
1781.129	1	10	n/a	n/a	1	51	1
1782.429	1	10	n/a	n/a	1	51	2
1783.2814	1	81	n/a	n/a	1	0	0
1783.4814	1	81	n/a	n/a	1	0	0
1783.6814	1	81	n/a	n/a	1	0	0
1783.8814	1	81	n/a	n/a	1	0	0
1784.0814	1	81	n/a	n/a	1	0	0
1784.2814	1	81	n/a	n/a	1	0	0
1784.4814	1	81	n/a	n/a	1	0	0
1784.6814	1	81	n/a	n/a	1	0	0
1784.8814	1	81	n/a	n/a	1	0	0
1785.0814	1	81	n/a	n/a	1	0	0
1786.3454	1	10	n/a	n/a	1	51	1
1787.4786	1	10	n/a	n/a	1	51	2
1788.7952	1	10	n/a	n/a	1	51	3
1790.0452	1	10	n/a	n/a	1	51	4
1791.2118	1	10	n/a	n/a	1	51	5
1792.3784	1	21	n/a	n/a	1	51	0
1793.6782	1	10	n/a	n/a	1	51	1
1794.9782	1	21	n/a	n/a	1	51	0
1796.2282	1	10	n/a	n/a	1	51	1
1797.478	1	21	n/a	n/a	1	51	0
1798.7114	1	10	n/a	n/a	1	51	1
1799.878	1	10	n/a	n/a	1	51	2
1800.9778	1	10	n/a	n/a	1	51	3
1802.0112	1	10	n/a	n/a	1	51	4
1803.1444	1	10	n/a	n/a	1	51	5
1804.2276	1	10	n/a	n/a	1	51	6
1805.511	1	10	n/a	n/a	1	51	7
1806.7942	1	21	n/a	n/a	1	51	0
1808.0108	1	10	n/a	n/a	1	51	1
1809.144	1	10	n/a	n/a	1	51	2
1818.3186	1	81	n/a	n/a	1	0	0
1818.5186	1	81	n/a	n/a	1	0	0
1818.7186	1	81	n/a	n/a	1	0	0
1818.9186	1	81	n/a	n/a	1	0	0
1819.1186	1	81	n/a	n/a	1	0	0
1819.3186	1	81	n/a	n/a	1	0	0
1819.5186	1	81	n/a	n/a	1	0	0
1819.7186	1	81	n/a	n/a	1	0	0
1819.9186	1	81	n/a	n/a	1	0	0
1820.1186	1	81	n/a	n/a	1	0	0
1821.41	1	10	n/a	n/a	1	50	1
1822.61	1	10	n/a	n/a	1	50	2
1823.9266	1	10	n/a	n/a	1	50	3
1825.0264	1	10	n/a	n/a	1	50	4
1826.0598	1	10	n/a	n/a	1	50	5
1827.093	1	21	n/a	n/a	1	50	0
1828.1596	1	10	n/a	n/a	1	50	1
1829.3262	1	10	n/a	n/a	1	50	2
1830.5094	1	10	n/a	n/a	1	50	3
1831.676	1	10	n/a	n/a	1	50	4
1832.876	1	10	n/a	n/a	1	50	5
1834.1426	1	10	n/a	n/a	1	50	6
1835.3424	1	10	n/a	n/a	1	50	7
1836.5424	1	21	n/a	n/a	1	50	0
1837.7424	1	10	n/a	n/a	1	50	1
1839.0422	1	10	n/a	n/a	1	50	2
1840.1088	1	10	n/a	n/a	1	50	3
1841.3588	1	10	n/a	n/a	1	50	4
1842.542	1	10	n/a	n/a	1	50	5
1843.7254	1	21	n/a	n/a	1	50	0
1844.579	1	81	n/a	n/a	1	0	0
1844.779	1	81	n/a	n/a	1	0	0
1844.979	1	81	n/a	n/a	1	0	0
1845.179	1	81	n/a	n/a	1	0	0
1845.379	1	81	n/a	n/a	1	0	0
1845.579	1	81	n/a	n/a	1	0	0
1845.779	1	81	n/a	n/a	1	0	0
1845.979	1	81	n/a	n/a	1	0	0
1846.179	1	81	n/a	n/a	1	0	0
1846.379	1	81	n/a	n/a	1	0	0
1847.6252	1	10	n/a	n/a	1	50	1
1848.775	1	21	n/a	n/a	1	50	0
1849.8084	1	10	n/a	n/a	1	50	1
1851.0582	1	10	n/a	n/a	1	50	2
1852.1748	1	10	n/a	n/a	1	50	3
1853.3748	1	10	n/a	n/a	1	50	4
1854.558	1	10	n/a	n/a	1	50	5
1855.658	1	10	n/a	n/a	1	50	6
1856.858	1	10	n/a	n/a	1	50	7
1858.0578	1	21	n/a	n/a	1	50	0
1859.291	1	10	n/a	n/a	1	50	1
1860.3244	1	10	n/a	n/a	1	50	2
1861.5742	1	10	n/a	n/a	1	50	3
1862.8242	1	21	n/a	n/a	1	50	0
1864.0742	1	10	n/a	n/a	1	50	1
1865.1574	1	10	n/a	n/a	1	50	2
1866.3906	1	10	n/a	n/a	1	50	3
1867.5906	1	10	n/a	n/a	1	50	4
1868.6406	1	10	n/a	n/a	1	50	5
1869.6904	1	21	n/a	n/a	1	50	0
1870.4782	1	81	n/a	n/a	1	0	0
1870.6782	1	81	n/a	n/a	1	0	0
1870.8782	1	81	n/a	n/a	1	0	0
1871.0782	1	81	n/a	n/a	1	0	0
1871.2782	1	81	n/a	n/a	1	0	0
1871.4782	1	81	n/a	n/a	1	0	0
1871.6782	1	81	n/a	n/a	1	0	0
1871.8782	1	81	n/a	n/a	1	0	0
1872.0782	1	81	n/a	n/a	1	0	0
1872.2782	1	81	n/a	n/a	1	0	0
1873.457	1	10	n/a	n/a	1	50	1
1874.5402	1	10	n/a	n/a	1	50	2
1875.7902	1	10	n/a	n/a	1	50	3
1876.9234	1	10	n/a	n/a	1	50	4
1877.9566	1	10	n/a	n/a	1	50	5
1879.0066	1	10	n/a	n/a	1	50	6
1880.3066	1	10	n/a	n/a	1	50	7
1881.5898	1	21	n/a	n/a	1	50	0
1882.9064	1	10	n/a	n/a	1	50	1
1884.2064	1	10	n/a	n/a	1	50	2
1885.3562	1	10	n/a	n/a	1	50	3
1886.5894	1	10	n/a	n/a	1	50	4
1887.8394	1	10	n/a	n/a	1	50	5
1888.906	1	10	n/a	n/a	1	50	6
1890.2226	1	10	n/a	n/a	1	50	7
1891.5392	1	21	n/a	n/a	1	50	0
1892.6724	1	10	n/a	n/a	1	50	1
1893.8058	1	21	n/a	n/a	1	50	0
1894.939	1	10	n/a	n/a	1	50	1
1896.0722	1	10	n/a	n/a	1	50	2
1897.0016	1	81	n/a	n/a	1	0	0
1897.2016	1	81	n/a	n/a	1	0	0
1897.4016	1	81	n/a	n/a	1	0	0
1897.6016	1	81	n/a	n/a	1	0	0
1897.8016	1	81	n/a	n/a	1	0	0
1898.0016	1	81	n/a	n/a	1	0	0
1898.2016	1	81	n/a	n/a	1	0	0
1898.4016	1	81	n/a	n/a	1	0	0
1898.6016	1	81	n/a	n/a	1	0	0
1898.8016	1	81	n/a	n/a	1	0	0
1900.0888	1	10	n/a	n/a	1	50	1
1901.2886	1	21	n/a	n/a	1	50	0
1902.5886	1	10	n/a	n/a	1	50	1
1903.8052	1	10	n/a	n/a	1	50	2
1904.905	1	10	n/a	n/a	1	50	3
1906.005	1	21	n/a	n/a	1	50	0
1907.1716	1	10	n/a	n/a	1	50	1
1908.3716	1	10	n/a	n/a	1	50	2
1909.5714	1	10	n/a	n/a	1	50	3
1910.7048	1	10	n/a	n/a	1	50	4
1911.938	1	10	n/a	n/a	1	50	5
1913.1714	1	21	n/a	n/a	1	50	0
1914.4212	1	10	n/a	n/a	1	50	1
1915.5044	1	10	n/a	n/a	1	50	2
1916.8044	1	10	n/a	n/a	1	50	3
1917.921	1	10	n/a	n/a	1	50	4
1919.2376	1	10	n/a	n/a	1	50	5
1920.5542	1	21	n/a	n/a	1	50	0
1921.6542	1	10	n/a	n/a	1	50	1
1922.7874	1	10	n/a	n/a	1	50	2
1923.8778	1	81	n/a	n/a	1	0	0
1924.0778	1	81	n/a	n/a	1	0	0
1924.2778	1	81	n/a	n/a	1	0	0
1924.4778	1	81	n/a	n/a	1	0	0
1924.6778	1	81	n/a	n/a	1	0	0
1924.8778	1	81	n/a	n/a	1	0	0
1925.0778	1	81	n/a	n/a	1	0	0
1925.2778	1	81	n/a	n/a	1	0	0
1925.4778	1	81	n/a	n/a	1	0	0
1925.6778	1	81	n/a	n/a	1	0	0
1926.9372	1	10	n/a	n/a	1	50	1
1928.1204	1	10	n/a	n/a	1	50	2
1929.1704	1	10	n/a	n/a	1	50	3
1930.4202	1	10	n/a	n/a	1	50	4
1931.6036	1	10	n/a	n/a	1	50	5
1932.8034	1	10	n/a	n/a	1	50	6
1934.12	1	10	n/a	n/a	1	50	7
1935.4366	1	21	n/a	n/a	1	50	0
1936.52	1	10	n/a	n/a	1	50	1
1937.6198	1	10	n/a	n/a	1	50	2
1938.8532	1	10	n/a	n/a	1	50	3
1940.103	1	10	n/a	n/a	1	50	4
1941.3196	1	10	n/a	n/a	1	50	5
1942.5362	1	21	n/a	n/a	1	50	0
1943.6194	1	10	n/a	n/a	1	50	1
1944.8028	1	10	n/a	n/a	1	50	2
1946.036	1	10	n/a	n/a	1	50	3
1947.2692	1	21	n/a	n/a	1	50	0
1948.5192	1	10	n/a	n/a	1	50	1
1949.7692	1	21	n/a	n/a	1	50	0
1997.1958	1	82	n/a	n/a	1	0	0
1997.3648	1	82	n/a	n/a	1	0	0
1997.5868	1	82	n/a	n/a	1	0	0
1997.6388	1	82	n/a	n/a	1	0	0
1997.7188	1	82	n/a	n/a	1	0	0
1998.1958	1	82	n/a	n/a	1	0	0
1998.4198	1	82	n/a	n/a	1	0	0
1998.7088	1	82	n/a	n/a	1	0	0
1998.7998	1	82	n/a	n/a	1	0	0
1998.8258	1	82	n/a	n/a	1	0	0
2000.1662	1	10	n/a	n/a	1	52	1
2001.2662	1	10	n/a	n/a	1	52	2
2002.516	1	10	n/a	n/a	1	52	3
2003.7826	1	10	n/a	n/a	1	52	4
2005.0326	1	10	n/a	n/a	1	52	5
2006.1658	1	10	n/a	n/a	1	52	6
2007.4824	1	10	n/a	n/a	1	52	7
2008.799	1	21	n/a	n/a	1	52	0
2009.9156	1	10	n/a	n/a	1	52	1
2011.0822	1	10	n/a	n/a	1	52	2
2012.1488	1	10	n/a	n/a	1	52	3
2013.3988	1	10	n/a	n/a	1	52	4
2014.4986	1	10	n/a	n/a	1	52	5
2015.5986	1	21	n/a	n/a	1	52	0
2016.8652	1	10	n/a	n/a	1	52	1
2018.1318	1	21	n/a	n/a	1	52	0
2019.4484	1	10	n/a	n/a	1	52	1
2020.765	1	10	n/a	n/a	1	52	2
2021.865	1	10	n/a	n/a	1	52	3
2022.9648	1	21	n/a	n/a	1	52	0
2023.8076	1	82	n/a	n/a	1	0	0
2024.0966	1	82	n/a	n/a	1	0	0
2024.4316	1	82	n/a	n/a	1	0	0
2024.4616	1	82	n/a	n/a	1	0	0
2024.6046	1	82	n/a	n/a	1	0	0
2024.8076	1	82	n/a	n/a	1	0	0
2024.9556	1	82	n/a	n/a	1	0	0
2024.9926	1	82	n/a	n/a	1	0	0
2025.3586	1	82	n/a	n/a	1	0	0
2025.4406	1	82	n/a	n/a	1	0	0
2026.8312	1	10	n/a	n/a	1	52	1
2027.8812	1	10	n/a	n/a	1	52	2
2029.0644	1	10	n/a	n/a	1	52	3
2030.0978	1	10	n/a	n/a	1	52	4
2031.181	1	10	n/a	n/a	1	52	5
2032.4976	1	10	n/a	n/a	1	52	6
2033.6808	1	10	n/a	n/a	1	52	7
2034.8642	1	21	n/a	n/a	1	52	0
2036.1474	1	10	n/a	n/a	1	52	1
2037.4474	1	10	n/a	n/a	1	52	2
2038.514	1	10	n/a	n/a	1	52	3
2039.7138	1	10	n/a	n/a	1	52	4
2040.9304	1	10	n/a	n/a	1	52	5
2042.0138	1	10	n/a	n/a	1	52	6
2043.1136	1	10	n/a	n/a	1	52	7
2044.2136	1	21	n/a	n/a	1	52	0
2045.2468	1	10	n/a	n/a	1	52	1
2046.2802	1	10	n/a	n/a	1	52	2
2047.48	1	10	n/a	n/a	1	52	3
2048.68	1	21	n/a	n/a	1	52	0
2049.4418	1	82	n/a	n/a	1	0	0
2049.4748	1	82	n/a	n/a	1	0	0
2049.7468	1	82	n/a	n/a	1	0	0
2050.1668	1	82	n/a	n/a	1	0	0
2050.2728	1	82	n/a	n/a	1	0	0
2050.4418	1	82	n/a	n/a	1	0	0
2050.6858	1	82	n/a	n/a	1	0	0
2050.7378	1	82	n/a	n/a	1	0	0
2051.0128	1	82	n/a	n/a	1	0	0
2051.0428	1	82	n/a	n/a	1	0	0
2052.3632	1	10	n/a	n/a	1	52	1
2053.3964	1	21	n/a	n/a	1	52	0
2054.4464	1	10	n/a	n/a	1	52	1
2055.763	1	10	n/a	n/a	1	52	2
2056.8962	1	10	n/a	n/a	1	52	3
2058.0294	1	21	n/a	n/a	1	52	0
2059.2294	1	10	n/a	n/a	1	52	1
2060.396	1	10	n/a	n/a	1	52	2
2061.4626	1	10	n/a	n/a	1	52	3
2062.5292	1	21	n/a	n/a	1	52	0
2063.6458	1	10	n/a	n/a	1	52	1
2064.8458	1	10	n/a	n/a	1	52	2
2065.9624	1	10	n/a	n/a	1	52	3
2067.2622	1	10	n/a	n/a	1	52	4
2068.4122	1	10	n/a	n/a	1	52	5
2069.5622	1	21	n/a	n/a	1	52	0
2070.612	1	10	n/a	n/a	1	52	1
2071.6954	1	10	n/a	n/a	1	52	2
2072.7952	1	10	n/a	n/a	1	52	3
2073.8952	1	21	n/a	n/a	1	52	0
2074.898	1	82	n/a	n/a	1	0	0
2075.2328	1	82	n/a	n/a	1	0	0
2075.2658	1	82	n/a	n/a	1	0	0
2075.4878	1	82	n/a	n/a	1	0	0
2075.6308	1	82	n/a	n/a	1	0	0
2075.8988	1	82	n/a	n/a	1	0	0
2076.1938	1	82	n/a	n/a	1	0	0
2076.2928	1	82	n/a	n/a	1	0	0
2076.4748	1	82	n/a	n/a	1	0	0
2076.6978	1	82	n/a	n/a	1	0	0
2077.9616	1	10	n/a	n/a	1	52	1
2079.2448	1	10	n/a	n/a	1	52	2
2080.4948	1	10	n/a	n/a	1	52	3
2081.7448	1	21	n/a	n/a	1	52	0
2083.0114	1	10	n/a	n/a	1	52	1
2084.278	1	21	n/a	n/a	1	52	0
2085.4612	1	10	n/a	n/a	1	52	1
2086.7278	1	10	n/a	n/a	1	52	2
2087.7778	1	10	n/a	n/a	1	52	3
2088.8276	1	21	n/a	n/a	1	52	0
2089.861	1	10	n/a	n/a	1	52	1
2091.1276	1	10	n/a	n/a	1	52	2
2092.3274	1	10	n/a	n/a	1	52	3
2093.3774	1	10	n/a	n/a	1	52	4
2094.444	1	10	n/a	n/a	1	52	5
2095.5106	1	21	n/a	n/a	1	52	0
2096.6938	1	10	n/a	n/a	1	52	1
2097.8772	1	21	n/a	n/a	1	52	0
2098.927	1	10	n/a	n/a	1	52	1
2099.9936	1	10	n/a	n/a	1	52	2
2101.0442	1	82	n/a	n/a	1	0	0
2101.3532	1	82	n/a	n/a	1	0	0
2101.4292	1	82	n/a	n/a	1	0	0
2101.6712	1	82	n/a	n/a	1	0	0
2101.8002	1	82	n/a	n/a	1	0	0
2102.0442	1	82	n/a	n/a	1	0	0
2102.3372	1	82	n/a	n/a	1	0	0
2102.6872	1	82	n/a	n/a	1	0	0
2102.8232	1	82	n/a	n/a	1	0	0
2102.9232	1	82	n/a	n/a	1	0	0
2104.1268	1	10	n/a	n/a	1	52	1
2105.41	1	10	n/a	n/a	1	52	2
2106.4766	1	10	n/a	n/a	1	52	3
2107.5432	1	21	n/a	n/a	1	52	0
2108.5932	1	10	n/a	n/a	1	52	1
2109.643	1	21	n/a	n/a	1	52	0
2110.8098	1	10	n/a	n/a	1	52	1
2111.9264	1	10	n/a	n/a	1	52	2
2113.2262	1	10	n/a	n/a	1	52	3
2114.4094	1	10	n/a	n/a	1	52	4
2115.526	1	10	n/a	n/a	1	52	5
2116.6426	1	21	n/a	n/a	1	52	0
2117.826	1	10	n/a	n/a	1	52	1
2119.0258	1	10	n/a	n/a	1	52	2
2120.3258	1	10	n/a	n/a	1	52	3
2121.6258	1	21	n/a	n/a	1	52	0
2122.8424	1	10	n/a	n/a	1	52	1
2124.159	1	10	n/a	n/a	1	52	2
2125.2088	1	10	n/a	n/a	1	52	3
2126.2588	1	10	n/a	n/a	1	52	4
