onset	duration	value	response	rt	good	TMS	seq
176.0254	1	81	n/a	n/a	1	0	0
176.2254	1	81	n/a	n/a	1	0	0
176.4254	1	81	n/a	n/a	1	0	0
176.6254	1	81	n/a	n/a	1	0	0
176.8254	1	81	n/a	n/a	1	0	0
177.0254	1	81	n/a	n/a	1	0	0
177.2254	1	81	n/a	n/a	1	0	0
177.4254	1	81	n/a	n/a	1	0	0
177.6254	1	81	n/a	n/a	1	0	0
177.8254	1	81	n/a	n/a	1	0	0
178.9646	1	10	-99	-99	1	51	1
180.2812	1	10	-99	-99	1	51	2
181.4644	1	10	-99	-99	1	51	3
182.7144	1	10	-99	-99	1	51	4
183.981	1	10	-99	-99	1	51	5
185.1308	1	10	-99	-99	1	51	6
186.2142	1	10	-99	-99	1	51	7
187.2974	1	21	-99	-99	1	51	0
188.3974	1	10	-99	-99	1	51	1
189.4972	1	21	-99	-99	1	51	0
190.6638	1	10	-99	-99	1	51	1
191.9804	1	10	-99	-99	1	51	2
193.2636	1	10	-99	-99	1	51	3
194.347	1	10	-99	-99	1	51	4
195.4136	1	10	-99	-99	1	51	5
196.4802	1	21	-99	-99	1	51	0
197.7134	1	10	-99	-99	1	51	1
198.98	1	10	-99	-99	1	51	2
200.18	1	10	-99	-99	1	51	3
201.2966	1	10	-99	-99	1	51	4
202.3492	1	81	n/a	n/a	1	0	0
202.5492	1	81	n/a	n/a	1	0	0
202.7492	1	81	n/a	n/a	1	0	0
202.9492	1	81	n/a	n/a	1	0	0
203.1492	1	81	n/a	n/a	1	0	0
203.3492	1	81	n/a	n/a	1	0	0
203.5492	1	81	n/a	n/a	1	0	0
203.7492	1	81	n/a	n/a	1	0	0
203.9492	1	81	n/a	n/a	1	0	0
204.1492	1	81	n/a	n/a	1	0	0
205.413	1	10	-99	-99	1	51	1
206.5462	1	10	-99	-99	1	51	2
207.8128	1	10	-99	-99	1	51	3
209.0794	1	21	-99	-99	1	51	0
210.246	1	10	-99	-99	1	51	1
211.4292	1	10	-99	-99	1	51	2
212.6458	1	10	-99	-99	1	51	3
213.6958	1	10	-99	-99	1	51	4
214.8624	1	10	-99	-99	1	51	5
216.129	1	10	-99	-99	1	51	6
217.3456	1	10	-99	-99	1	51	7
218.5622	1	21	-99	-99	1	51	0
219.6622	1	10	-99	-99	1	51	1
220.812	1	10	-99	-99	1	51	2
221.8786	1	10	-99	-99	1	51	3
222.9452	1	21	-99	-99	1	51	0
224.2118	1	10	-99	-99	1	51	1
225.4784	1	21	-99	-99	1	51	0
226.5784	1	10	-99	-99	1	51	1
227.7282	1	10	-99	-99	1	51	2
228.623	1	81	n/a	n/a	1	0	0
228.823	1	81	n/a	n/a	1	0	0
229.023	1	81	n/a	n/a	1	0	0
229.223	1	81	n/a	n/a	1	0	0
229.423	1	81	n/a	n/a	1	0	0
229.623	1	81	n/a	n/a	1	0	0
229.823	1	81	n/a	n/a	1	0	0
230.023	1	81	n/a	n/a	1	0	0
230.223	1	81	n/a	n/a	1	0	0
230.423	1	81	n/a	n/a	1	0	0
231.628	1	10	-99	-99	1	51	1
232.7446	1	21	-99	-99	1	51	0
234.0612	1	10	-99	-99	1	51	1
235.2112	1	10	-99	-99	1	51	2
236.4612	1	10	-99	-99	1	51	3
237.711	1	21	-99	-99	1	51	0
238.8944	1	10	-99	-99	1	51	1
239.961	1	10	-99	-99	1	51	2
241.2776	1	10	-99	-99	1	51	3
242.594	1	21	-99	-99	1	51	0
243.644	1	10	-99	-99	1	51	1
244.7772	1	10	-99	-99	1	51	2
245.8438	1	10	-99	-99	1	51	3
247.1604	1	10	-99	-99	1	51	4
248.427	1	10	-99	-99	1	51	5
249.6936	1	21	-99	-99	1	51	0
250.9436	1	10	-99	-99	1	51	1
252.2602	1	10	-99	-99	1	51	2
253.4602	1	10	-99	-99	1	51	3
254.66	1	21	-99	-99	1	51	0
255.6116	1	81	n/a	n/a	1	0	0
255.8116	1	81	n/a	n/a	1	0	0
256.0116	1	81	n/a	n/a	1	0	0
256.2116	1	81	n/a	n/a	1	0	0
256.4116	1	81	n/a	n/a	1	0	0
256.6118	1	81	n/a	n/a	1	0	0
256.8116	1	81	n/a	n/a	1	0	0
257.0116	1	81	n/a	n/a	1	0	0
257.2116	1	81	n/a	n/a	1	0	0
257.4116	1	81	n/a	n/a	1	0	0
258.5598	1	10	-99	-99	1	51	1
259.6764	1	10	-99	-99	1	51	2
260.8096	1	10	-99	-99	1	51	3
261.9096	1	10	-99	-99	1	51	4
263.1596	1	10	-99	-99	1	51	5
264.4762	1	10	-99	-99	1	51	6
265.526	1	10	-99	-99	1	51	7
266.576	1	21	-99	-99	1	51	0
267.626	1	10	-99	-99	1	51	1
268.6926	1	10	-99	-99	1	51	2
269.9592	1	10	-99	-99	1	51	3
271.1258	1	10	-99	-99	1	51	4
272.2256	1	10	-99	-99	1	51	5
273.3256	1	21	-99	-99	1	51	0
274.5588	1	10	-99	-99	1	51	1
275.8088	1	10	-99	-99	1	51	2
277.0754	1	10	-99	-99	1	51	3
278.3586	1	10	-99	-99	1	51	4
279.6752	1	10	-99	-99	1	51	5
280.7918	1	10	-99	-99	1	51	6
281.8454	1	81	n/a	n/a	1	0	0
282.0454	1	81	n/a	n/a	1	0	0
282.2454	1	81	n/a	n/a	1	0	0
282.4454	1	81	n/a	n/a	1	0	0
282.6454	1	81	n/a	n/a	1	0	0
282.8454	1	81	n/a	n/a	1	0	0
283.0454	1	81	n/a	n/a	1	0	0
283.2454	1	81	n/a	n/a	1	0	0
283.4454	1	81	n/a	n/a	1	0	0
283.6454	1	81	n/a	n/a	1	0	0
285.0082	1	10	-99	-99	1	51	1
286.0916	1	10	-99	-99	1	51	2
287.3082	1	10	-99	-99	1	51	3
288.5246	1	10	-99	-99	1	51	4
289.8412	1	10	-99	-99	1	51	5
291.1578	1	21	-99	-99	1	51	0
292.4578	1	10	-99	-99	1	51	1
293.7744	1	10	-99	-99	1	51	2
294.9076	1	10	-99	-99	1	51	3
295.941	1	10	-99	-99	1	51	4
297.1242	1	10	-99	-99	1	51	5
298.2408	1	10	-99	-99	1	51	6
299.324	1	10	-99	-99	1	51	7
300.4074	1	21	-99	-99	1	51	0
301.6572	1	10	-99	-99	1	51	1
302.7072	1	10	-99	-99	1	51	2
303.9738	1	10	-99	-99	1	51	3
305.0904	1	10	-99	-99	1	51	4
306.3404	1	10	-99	-99	1	51	5
307.5902	1	21	-99	-99	1	51	0
340.2654	1	81	n/a	n/a	1	0	0
340.4654	1	81	n/a	n/a	1	0	0
340.6654	1	81	n/a	n/a	1	0	0
340.8654	1	81	n/a	n/a	1	0	0
341.0654	1	81	n/a	n/a	1	0	0
341.2654	1	81	n/a	n/a	1	0	0
341.4654	1	81	n/a	n/a	1	0	0
341.6654	1	81	n/a	n/a	1	0	0
341.8654	1	81	n/a	n/a	1	0	0
342.0654	1	81	n/a	n/a	1	0	0
343.2714	1	10	-99	-99	1	50	1
344.588	1	10	-99	-99	1	50	2
345.788	1	10	-99	-99	1	50	3
346.988	1	21	-99	-99	1	50	0
348.2212	1	10	-99	-99	1	50	1
349.2878	1	10	-99	-99	1	50	2
350.4544	1	10	-99	-99	1	50	3
351.671	1	10	-99	-99	1	50	4
352.7042	1	10	-99	-99	1	50	5
353.7376	1	21	-99	-99	1	50	0
354.9042	1	10	-99	-99	1	50	1
356.1706	1	10	-99	-99	1	50	2
357.3706	1	10	-99	-99	1	50	3
358.5706	1	21	-99	-99	1	50	0
359.6038	1	10	-99	-99	1	50	1
360.6704	1	10	-99	-99	1	50	2
361.9704	1	10	-99	-99	1	50	3
363.137	1	10	-99	-99	1	50	4
364.1702	1	10	-99	-99	1	50	5
365.2368	1	10	-99	-99	1	50	6
366.2574	1	81	n/a	n/a	1	0	0
366.4574	1	81	n/a	n/a	1	0	0
366.6574	1	81	n/a	n/a	1	0	0
366.8574	1	81	n/a	n/a	1	0	0
367.0574	1	81	n/a	n/a	1	0	0
367.2574	1	81	n/a	n/a	1	0	0
367.4574	1	81	n/a	n/a	1	0	0
367.6574	1	81	n/a	n/a	1	0	0
367.8574	1	81	n/a	n/a	1	0	0
368.0574	1	81	n/a	n/a	1	0	0
369.1866	1	10	-99	-99	1	50	1
370.2198	1	10	-99	-99	1	50	2
371.4532	1	10	-99	-99	1	50	3
372.7364	1	10	-99	-99	1	50	4
373.803	1	10	-99	-99	1	50	5
374.8696	1	21	-99	-99	1	50	0
376.0696	1	10	-99	-99	1	50	1
377.3694	1	10	-99	-99	1	50	2
378.4528	1	10	-99	-99	1	50	3
379.6026	1	10	-99	-99	1	50	4
380.736	1	10	-99	-99	1	50	5
381.9026	1	10	-99	-99	1	50	6
383.1358	1	10	-99	-99	1	50	7
384.369	1	21	-99	-99	1	50	0
385.5856	1	10	-99	-99	1	50	1
386.8022	1	10	-99	-99	1	50	2
387.9688	1	10	-99	-99	1	50	3
389.1854	1	10	-99	-99	1	50	4
390.2686	1	10	-99	-99	1	50	5
391.5852	1	10	-99	-99	1	50	6
392.395	1	81	n/a	n/a	1	0	0
392.595	1	81	n/a	n/a	1	0	0
392.795	1	81	n/a	n/a	1	0	0
392.995	1	81	n/a	n/a	1	0	0
393.195	1	81	n/a	n/a	1	0	0
393.395	1	81	n/a	n/a	1	0	0
393.595	1	81	n/a	n/a	1	0	0
393.795	1	81	n/a	n/a	1	0	0
393.995	1	81	n/a	n/a	1	0	0
394.195	1	81	n/a	n/a	1	0	0
395.385	1	10	-99	-99	1	50	1
396.7016	1	10	-99	-99	1	50	2
397.9848	1	10	-99	-99	1	50	3
399.1014	1	10	-99	-99	1	50	4
400.3348	1	10	-99	-99	1	50	5
401.568	1	21	-99	-99	1	50	0
402.768	1	10	-99	-99	1	50	1
404.0512	1	10	-99	-99	1	50	2
405.2012	1	10	-99	-99	1	50	3
406.351	1	21	-99	-99	1	50	0
407.551	1	10	-99	-99	1	50	1
408.801	1	10	-99	-99	1	50	2
410.1008	1	10	-99	-99	1	50	3
411.1342	1	10	-99	-99	1	50	4
412.3508	1	10	-99	-99	1	50	5
413.5672	1	21	-99	-99	1	50	0
414.7338	1	10	-99	-99	1	50	1
415.9004	1	21	-99	-99	1	50	0
417.0004	1	10	-99	-99	1	50	1
418.0504	1	10	-99	-99	1	50	2
418.774	1	81	n/a	n/a	1	0	0
418.974	1	81	n/a	n/a	1	0	0
419.174	1	81	n/a	n/a	1	0	0
419.374	1	81	n/a	n/a	1	0	0
419.574	1	81	n/a	n/a	1	0	0
419.774	1	81	n/a	n/a	1	0	0
419.974	1	81	n/a	n/a	1	0	0
420.174	1	81	n/a	n/a	1	0	0
420.374	1	81	n/a	n/a	1	0	0
420.574	1	81	n/a	n/a	1	0	0
421.7834	1	10	-99	-99	1	50	1
422.8168	1	10	-99	-99	1	50	2
424.05	1	10	-99	-99	1	50	3
425.2832	1	21	-99	-99	1	50	0
426.4332	1	10	-99	-99	1	50	1
427.6998	1	10	-99	-99	1	50	2
428.8498	1	10	-99	-99	1	50	3
429.9996	1	21	-99	-99	1	50	0
431.233	1	10	-99	-99	1	50	1
432.4662	1	21	-99	-99	1	50	0
433.5162	1	10	-99	-99	1	50	1
434.666	1	10	-99	-99	1	50	2
435.7826	1	10	-99	-99	1	50	3
436.9826	1	10	-99	-99	1	50	4
438.1658	1	10	-99	-99	1	50	5
439.3492	1	21	-99	-99	1	50	0
440.5656	1	10	-99	-99	1	50	1
441.849	1	10	-99	-99	1	50	2
442.9988	1	10	-99	-99	1	50	3
444.3154	1	10	-99	-99	1	50	4
445.4322	1	81	n/a	n/a	1	0	0
445.6322	1	81	n/a	n/a	1	0	0
445.8322	1	81	n/a	n/a	1	0	0
446.0322	1	81	n/a	n/a	1	0	0
446.2322	1	81	n/a	n/a	1	0	0
446.4322	1	81	n/a	n/a	1	0	0
446.6322	1	81	n/a	n/a	1	0	0
446.8322	1	81	n/a	n/a	1	0	0
447.0322	1	81	n/a	n/a	1	0	0
447.2322	1	81	n/a	n/a	1	0	0
448.6486	1	10	-99	-99	1	50	1
449.8818	1	10	-99	-99	1	50	2
451.0818	1	10	-99	-99	1	50	3
452.215	1	10	-99	-99	1	50	4
453.3316	1	10	-99	-99	1	50	5
454.4816	1	10	-99	-99	1	50	6
455.7648	1	10	-99	-99	1	50	7
457.048	1	21	-99	-99	1	50	0
458.3146	1	10	-99	-99	1	50	1
459.3646	1	10	-99	-99	1	50	2
460.6646	1	10	-99	-99	1	50	3
461.9644	1	21	-99	-99	1	50	0
463.0478	1	10	-99	-99	1	50	1
464.081	1	10	-99	-99	1	50	2
465.3976	1	10	-99	-99	1	50	3
466.4808	1	10	-99	-99	1	50	4
467.7474	1	10	-99	-99	1	50	5
468.8474	1	10	-99	-99	1	50	6
470.0306	1	10	-99	-99	1	50	7
471.2138	1	21	-99	-99	1	50	0
586.4266	1	82	n/a	n/a	1	0	0
586.4906	1	82	n/a	n/a	1	0	0
586.8736	1	82	n/a	n/a	1	0	0
586.9726	1	82	n/a	n/a	1	0	0
587.2126	1	82	n/a	n/a	1	0	0
587.4266	1	82	n/a	n/a	1	0	0
587.4566	1	82	n/a	n/a	1	0	0
587.5676	1	82	n/a	n/a	1	0	0
587.9376	1	82	n/a	n/a	1	0	0
588.1906	1	82	n/a	n/a	1	0	0
589.5736	1	10	-99	-99	1	52	1
590.8402	1	10	-99	-99	1	52	2
592.0402	1	10	267.3	267.3	1	52	3
593.24	1	21	-99	-99	1	52	0
594.3734	1	10	238	238	1	52	1
595.5232	1	10	256.1	256.1	1	52	2
596.5732	1	10	246.1	246.1	1	52	3
597.6232	1	21	-99	-99	1	52	0
598.7398	1	10	239.5	239.5	1	52	1
599.873	1	21	-99	-99	1	52	0
601.0062	1	10	212.9	212.9	1	52	1
602.1728	1	21	-99	-99	1	52	0
603.4394	1	10	211.7	211.7	1	52	1
604.706	1	21	-99	-99	1	52	0
606.0226	1	10	268.4	268.4	1	52	1
607.356	1	10	-99	-99	1	52	2
608.4392	1	10	299.9	299.9	1	52	3
609.5558	1	21	-99	-99	1	52	0
610.689	1	10	274	274	1	52	1
611.8556	1	10	387.3	387.3	1	52	2
612.6402	1	82	n/a	n/a	1	0	0
612.7602	1	82	n/a	n/a	1	0	0
612.8342	1	82	n/a	n/a	1	0	0
613.1972	1	82	n/a	n/a	1	0	0
613.6012	1	82	n/a	n/a	1	0	0
613.6402	1	82	n/a	n/a	1	0	0
613.8852	1	82	n/a	n/a	1	0	0
614.2512	1	82	n/a	n/a	1	0	0
614.4562	1	82	n/a	n/a	1	0	0
614.5082	1	82	n/a	n/a	1	0	0
615.622	1	10	-99	-99	1	52	1
616.8054	1	10	-99	-99	1	52	2
617.9052	1	10	-99	-99	1	52	3
619.1052	1	10	273.6	273.6	1	52	4
620.1884	1	10	-99	-99	1	52	5
621.2718	1	21	-99	-99	1	52	0
622.4716	1	10	-99	-99	1	52	1
623.6716	1	21	-99	-99	1	52	0
624.9048	1	10	265.8	265.8	1	52	1
626.1382	1	21	-99	-99	1	52	0
627.2214	1	10	221.2	221.2	1	52	1
628.4214	1	10	269.3	269.3	1	52	2
629.688	1	10	250.7	250.7	1	52	3
630.7712	1	10	239.4	239.4	1	52	4
631.9044	1	10	242.1	242.1	1	52	5
633.0378	1	21	-99	-99	1	52	0
634.0876	1	10	234.8	234.8	1	52	1
635.1542	1	21	-99	-99	1	52	0
636.4708	1	10	219.6	219.6	1	52	1
637.6874	1	10	266.9	266.9	1	52	2
638.4638	1	82	n/a	n/a	1	0	0
638.4978	1	82	n/a	n/a	1	0	0
638.5678	1	82	n/a	n/a	1	0	0
638.8358	1	82	n/a	n/a	1	0	0
639.1888	1	82	n/a	n/a	1	0	0
639.4638	1	82	n/a	n/a	1	0	0
639.6208	1	82	n/a	n/a	1	0	0
639.9758	1	82	n/a	n/a	1	0	0
640.2378	1	82	n/a	n/a	1	0	0
640.3568	1	82	n/a	n/a	1	0	0
641.4372	1	10	-99	-99	1	52	1
642.6872	1	10	-99	-99	1	52	2
643.787	1	10	231.2	231.2	1	52	3
644.887	1	21	-99	-99	1	52	0
646.1036	1	10	266.6	266.6	1	52	1
647.3868	1	10	247.3	247.3	1	52	2
648.5702	1	10	360.1	360.1	1	52	3
649.62	1	10	638	638	1	52	4
650.8866	1	10	-99	-99	1	52	5
652.1532	1	21	-99	-99	1	52	0
653.2032	1	10	222.9	222.9	1	52	1
654.2532	1	10	244.9	244.9	1	52	2
655.2864	1	10	235.7	235.7	1	52	3
656.3196	1	21	258.3	258.3	1	52	0
657.553	1	10	209	209	1	52	1
658.7696	1	10	272.4	272.4	1	52	2
660.0528	1	10	285.1	285.1	1	52	3
661.1694	1	10	240.5	240.5	1	52	4
662.2026	1	10	263.2	263.2	1	52	5
663.4192	1	10	326.5	326.5	1	52	6
664.2338	1	82	n/a	n/a	1	0	0
664.3638	1	82	n/a	n/a	1	0	0
664.6308	1	82	n/a	n/a	1	0	0
664.8198	1	82	n/a	n/a	1	0	0
665.0568	1	82	n/a	n/a	1	0	0
665.2338	1	82	n/a	n/a	1	0	0
665.4598	1	82	n/a	n/a	1	0	0
665.6348	1	82	n/a	n/a	1	0	0
665.7648	1	82	n/a	n/a	1	0	0
666.1298	1	82	n/a	n/a	1	0	0
667.269	1	10	-99	-99	1	52	1
668.4856	1	10	220.1	220.1	1	52	2
669.5188	1	10	-99	-99	1	52	3
670.5522	1	10	265.5	265.5	1	52	4
671.852	1	10	357.6	357.6	1	52	5
673.0686	1	10	245	245	1	52	6
674.3352	1	10	226.3	226.3	1	52	7
675.6018	1	21	-99	-99	1	52	0
676.7518	1	10	209.7	209.7	1	52	1
678.0018	1	10	399.8	399.8	1	52	2
679.0684	1	10	245.2	245.2	1	52	3
680.2848	1	10	228.6	228.6	1	52	4
681.4014	1	10	231.9	231.9	1	52	5
682.6014	1	10	231.9	231.9	1	52	6
683.8846	1	10	196.7	196.7	1	52	7
685.168	1	21	-99	-99	1	52	0
686.2346	1	10	246.8	246.8	1	52	1
687.4178	1	10	295.5	295.5	1	52	2
688.701	1	10	260.1	260.1	1	52	3
689.9844	1	21	-99	-99	1	52	0
690.826	1	82	n/a	n/a	1	0	0
690.921	1	82	n/a	n/a	1	0	0
691.311	1	82	n/a	n/a	1	0	0
691.735	1	82	n/a	n/a	1	0	0
691.786	1	82	n/a	n/a	1	0	0
691.826	1	82	n/a	n/a	1	0	0
691.986	1	82	n/a	n/a	1	0	0
692.055	1	82	n/a	n/a	1	0	0
692.088	1	82	n/a	n/a	1	0	0
692.431	1	82	n/a	n/a	1	0	0
693.9174	1	10	-99	-99	1	52	1
695.0006	1	10	248.4	248.4	1	52	2
696.1172	1	10	235.8	235.8	1	52	3
697.3172	1	10	235.8	235.8	1	52	4
698.6338	1	10	215.2	215.2	1	52	5
699.8838	1	10	245.2	245.2	1	52	6
700.917	1	10	251.9	251.9	1	52	7
701.9502	1	21	242.6	242.6	1	52	0
703.0836	1	10	151.1	151.1	1	52	1
704.1668	1	10	250.1	250.1	1	52	2
705.4334	1	10	231.5	231.5	1	52	3
706.5834	1	10	265.5	265.5	1	52	4
707.75	1	10	282.8	282.8	1	52	5
708.9166	1	21	-99	-99	1	52	0
710.0164	1	10	256.3	256.3	1	52	1
711.1164	1	21	244.3	244.3	1	52	0
712.4164	1	10	240.4	240.4	1	52	1
713.6996	1	10	397.1	397.1	1	52	2
714.7496	1	10	339.1	339.1	1	52	3
715.7994	1	21	-99	-99	1	52	0
834.9382	1	82	n/a	n/a	1	0	0
835.2462	1	82	n/a	n/a	1	0	0
835.6512	1	82	n/a	n/a	1	0	0
835.6772	1	82	n/a	n/a	1	0	0
835.7662	1	82	n/a	n/a	1	0	0
835.9382	1	82	n/a	n/a	1	0	0
836.0092	1	82	n/a	n/a	1	0	0
836.1382	1	82	n/a	n/a	1	0	0
836.3542	1	82	n/a	n/a	1	0	0
836.6472	1	82	n/a	n/a	1	0	0
837.8756	1	10	490.3	490.3	1	52	1
839.1422	1	10	375.6	375.6	1	52	2
840.192	1	10	381.7	381.7	1	52	3
841.242	1	21	-99	-99	1	52	0
842.5252	1	10	288.5	288.5	1	52	1
843.5918	1	10	261.8	261.8	1	52	2
844.8418	1	10	275.9	275.9	1	52	3
846.0916	1	21	-99	-99	1	52	0
847.125	1	10	-99	-99	1	52	1
848.1582	1	21	-99	-99	1	52	0
849.2582	1	10	227.4	227.4	1	52	1
850.4748	1	10	242.8	242.8	1	52	2
851.658	1	10	323.5	323.5	1	52	3
852.9746	1	10	270.8	270.8	1	52	4
854.1412	1	10	320.2	320.2	1	52	5
855.4244	1	10	252.9	252.9	1	52	6
856.5078	1	10	257.7	257.7	1	52	7
857.591	1	21	-99	-99	1	52	0
858.8242	1	10	261	261	1	52	1
860.0076	1	10	-99	-99	1	52	2
860.979	1	82	n/a	n/a	1	0	0
861.007	1	82	n/a	n/a	1	0	0
861.153	1	82	n/a	n/a	1	0	0
861.476	1	82	n/a	n/a	1	0	0
861.892	1	82	n/a	n/a	1	0	0
861.979	1	82	n/a	n/a	1	0	0
862.411	1	82	n/a	n/a	1	0	0
862.674	1	82	n/a	n/a	1	0	0
862.858	1	82	n/a	n/a	1	0	0
862.927	1	82	n/a	n/a	1	0	0
863.9906	1	10	342.5	342.5	1	52	1
865.2406	1	10	340.6	340.6	1	52	2
866.3904	1	10	294.6	294.6	1	52	3
867.5404	1	21	-99	-99	1	52	0
868.8404	1	10	-99	-99	1	52	1
870.1402	1	21	-99	-99	1	52	0
871.4068	1	10	334.1	334.1	1	52	1
872.5068	1	10	-99	-99	1	52	2
873.7734	1	10	-99	-99	1	52	3
874.8566	1	10	-99	-99	1	52	4
876.0566	1	10	-99	-99	1	52	5
877.3566	1	10	-99	-99	1	52	6
878.4398	1	10	293.1	293.1	1	52	7
879.523	1	21	-99	-99	1	52	0
880.823	1	10	-99	-99	1	52	1
882.0896	1	10	-99	-99	1	52	2
883.3062	1	10	258.6	258.6	1	52	3
884.3894	1	10	263.3	263.3	1	52	4
885.4394	1	10	269.3	269.3	1	52	5
886.4892	1	10	-99	-99	1	52	6
887.428	1	82	n/a	n/a	1	0	0
887.774	1	82	n/a	n/a	1	0	0
887.852	1	82	n/a	n/a	1	0	0
888.061	1	82	n/a	n/a	1	0	0
888.209	1	82	n/a	n/a	1	0	0
888.428	1	82	n/a	n/a	1	0	0
888.657	1	82	n/a	n/a	1	0	0
889.04	1	82	n/a	n/a	1	0	0
889.205	1	82	n/a	n/a	1	0	0
889.266	1	82	n/a	n/a	1	0	0
890.5058	1	10	258.8	258.8	1	52	1
891.539	1	10	-99	-99	1	52	2
892.689	1	10	-99	-99	1	52	3
893.8388	1	21	253.7	253.7	1	52	0
895.1054	1	10	-99	-99	1	52	1
896.222	1	10	-99	-99	1	52	2
897.5054	1	10	-99	-99	1	52	3
898.7886	1	21	-99	-99	1	52	0
899.9718	1	10	248.6	248.6	1	52	1
901.155	1	10	-99	-99	1	52	2
902.455	1	10	261.3	261.3	1	52	3
903.7716	1	10	240.7	240.7	1	52	4
904.9382	1	10	-99	-99	1	52	5
906.2214	1	10	-99	-99	1	52	6
907.3214	1	10	-99	-99	1	52	7
908.4214	1	21	262.9	262.9	1	52	0
909.538	1	10	202.2	202.2	1	52	1
910.6546	1	21	-99	-99	1	52	0
911.7212	1	10	-99	-99	1	52	1
912.921	1	10	355	355	1	52	2
913.8796	1	82	n/a	n/a	1	0	0
914.2996	1	82	n/a	n/a	1	0	0
914.4056	1	82	n/a	n/a	1	0	0
914.6716	1	82	n/a	n/a	1	0	0
914.6966	1	82	n/a	n/a	1	0	0
914.8796	1	82	n/a	n/a	1	0	0
914.9476	1	82	n/a	n/a	1	0	0
915.3786	1	82	n/a	n/a	1	0	0
915.7486	1	82	n/a	n/a	1	0	0
915.7756	1	82	n/a	n/a	1	0	0
916.9042	1	10	-99	-99	1	52	1
918.0374	1	21	-99	-99	1	52	0
919.1706	1	10	-99	-99	1	52	1
920.304	1	21	-99	-99	1	52	0
921.5706	1	10	-99	-99	1	52	1
922.8372	1	21	-99	-99	1	52	0
924.0038	1	10	-99	-99	1	52	1
925.0704	1	10	333.5	333.5	1	52	2
926.137	1	10	306.9	306.9	1	52	3
927.4368	1	10	-99	-99	1	52	4
928.7702	1	10	-99	-99	1	52	5
930.1034	1	21	-99	-99	1	52	0
931.2366	1	10	-99	-99	1	52	1
932.4032	1	10	-99	-99	1	52	2
933.6532	1	10	262.5	262.5	1	52	3
934.7864	1	10	-99	-99	1	52	4
936.053	1	10	326.5	326.5	1	52	5
937.353	1	21	242.6	242.6	1	52	0
938.5028	1	10	-99	-99	1	52	1
939.7028	1	10	-99	-99	1	52	2
940.5606	1	82	n/a	n/a	1	0	0
940.7876	1	82	n/a	n/a	1	0	0
941.1086	1	82	n/a	n/a	1	0	0
941.1594	1	82	n/a	n/a	1	0	0
941.4274	1	82	n/a	n/a	1	0	0
941.5606	1	82	n/a	n/a	1	0	0
941.6146	1	82	n/a	n/a	1	0	0
941.9896	1	82	n/a	n/a	1	0	0
942.1686	1	82	n/a	n/a	1	0	0
942.2656	1	82	n/a	n/a	1	0	0
943.7026	1	10	292.8	292.8	1	52	1
944.8026	1	10	232.9	232.9	1	52	2
946.0024	1	10	248.9	248.9	1	52	3
947.2024	1	21	-99	-99	1	52	0
948.4356	1	10	263.6	263.6	1	52	1
949.7522	1	10	275	275	1	52	2
951.0688	1	10	286.4	286.4	1	52	3
952.302	1	10	-99	-99	1	52	4
953.602	1	10	297.1	297.1	1	52	5
954.652	1	10	-99	-99	1	52	6
955.7686	1	10	-99	-99	1	52	7
956.8852	1	21	-99	-99	1	52	0
958.0184	1	10	-99	-99	1	52	1
959.1684	1	10	234.8	234.8	1	52	2
960.4682	1	10	278.7	278.7	1	52	3
961.5848	1	10	298.1	298.1	1	52	4
962.9014	1	10	277.5	277.5	1	52	5
964.218	1	21	-99	-99	1	52	0
965.5012	1	10	253.7	253.7	1	52	1
966.7846	1	10	-99	-99	1	52	2
984.0902	1	82	n/a	n/a	1	0	0
984.1792	1	82	n/a	n/a	1	0	0
984.5152	1	82	n/a	n/a	1	0	0
984.5832	1	82	n/a	n/a	1	0	0
984.8792	1	82	n/a	n/a	1	0	0
985.0902	1	82	n/a	n/a	1	0	0
985.1142	1	82	n/a	n/a	1	0	0
985.4922	1	82	n/a	n/a	1	0	0
985.6512	1	82	n/a	n/a	1	0	0
985.7712	1	82	n/a	n/a	1	0	0
987.1334	1	10	333	333	1	50	1
988.2666	1	10	255.8	255.8	1	50	2
989.5166	1	10	317.9	317.9	1	50	3
990.7832	1	10	283.2	283.2	1	50	4
991.9164	1	10	301.9	301.9	1	50	5
993.0496	1	21	-99	-99	1	50	0
994.2828	1	10	239.3	239.3	1	50	1
995.5162	1	21	-99	-99	1	50	0
996.766	1	10	236.1	236.1	1	50	1
997.916	1	10	238.1	238.1	1	50	2
999.1492	1	10	236.8	236.8	1	50	3
1000.4158	1	10	234.2	234.2	1	50	4
1001.5824	1	10	315.6	315.6	1	50	5
1002.749	1	21	-99	-99	1	50	0
1003.899	1	10	239.1	239.1	1	50	1
1004.9822	1	10	229.5	229.5	1	50	2
1006.0822	1	10	-99	-99	1	50	3
1007.2154	1	21	-99	-99	1	50	0
1008.4154	1	10	202.5	202.5	1	50	1
1009.7486	1	10	-99	-99	1	50	2
1010.806	1	82	n/a	n/a	1	0	0
1011.082	1	82	n/a	n/a	1	0	0
1011.181	1	82	n/a	n/a	1	0	0
1011.517	1	82	n/a	n/a	1	0	0
1011.566	1	82	n/a	n/a	1	0	0
1011.806	1	82	n/a	n/a	1	0	0
1012.08	1	82	n/a	n/a	1	0	0
1012.121	1	82	n/a	n/a	1	0	0
1012.248	1	82	n/a	n/a	1	0	0
1012.352	1	82	n/a	n/a	1	0	0
1013.8984	1	10	303.4	303.4	1	50	1
1015.0984	1	21	-99	-99	1	50	0
1016.265	1	10	-99	-99	1	50	1
1017.4316	1	21	-99	-99	1	50	0
1018.6148	1	10	274.9	274.9	1	50	1
1019.7148	1	10	278.9	278.9	1	50	2
1020.948	1	10	277.7	277.7	1	50	3
1022.2146	1	10	307	307	1	50	4
1023.2812	1	10	297.4	297.4	1	50	5
1024.3312	1	21	-99	-99	1	50	0
1025.431	1	10	290.5	290.5	1	50	1
1026.531	1	21	-99	-99	1	50	0
1027.731	1	10	262.6	262.6	1	50	1
1028.9308	1	21	-99	-99	1	50	0
1030.0808	1	10	360.6	360.6	1	50	1
1031.2308	1	21	-99	-99	1	50	0
1032.4972	1	10	264.1	264.1	1	50	1
1033.764	1	21	-99	-99	1	50	0
1035.0804	1	10	272.8	272.8	1	50	1
1036.2304	1	10	562.8	562.8	1	50	2
1037.0568	1	82	n/a	n/a	1	0	0
1037.2878	1	82	n/a	n/a	1	0	0
1037.3518	1	82	n/a	n/a	1	0	0
1037.5518	1	82	n/a	n/a	1	0	0
1037.6838	1	82	n/a	n/a	1	0	0
1038.0568	1	82	n/a	n/a	1	0	0
1038.3908	1	82	n/a	n/a	1	0	0
1038.4108	1	82	n/a	n/a	1	0	0
1038.5988	1	82	n/a	n/a	1	0	0
1038.9728	1	82	n/a	n/a	1	0	0
1039.9968	1	10	268.3	268.3	1	50	1
1041.2968	1	10	312.4	312.4	1	50	2
1042.63	1	10	307	307	1	50	3
1043.9632	1	21	-99	-99	1	50	0
1045.0466	1	10	450.5	450.5	1	50	1
1046.0964	1	10	296.6	296.6	1	50	2
1047.2464	1	10	394.6	394.6	1	50	3
1048.3964	1	21	-99	-99	1	50	0
1049.5962	1	10	268.6	268.6	1	50	1
1050.6296	1	10	307.4	307.4	1	50	2
1051.8962	1	10	288.8	288.8	1	50	3
1053.1794	1	10	333.5	333.5	1	50	4
1054.446	1	10	-99	-99	1	50	5
1055.7626	1	10	-99	-99	1	50	6
1057.0458	1	10	210.9	210.9	1	50	7
1058.329	1	21	-99	-99	1	50	0
1059.579	1	10	253.7	253.7	1	50	1
1060.7956	1	10	269	269	1	50	2
1062.0288	1	10	251.8	251.8	1	50	3
1063.2622	1	21	-99	-99	1	50	0
1064.1658	1	82	n/a	n/a	1	0	0
1064.2738	1	82	n/a	n/a	1	0	0
1064.6518	1	82	n/a	n/a	1	0	0
1064.9098	1	82	n/a	n/a	1	0	0
1064.9488	1	82	n/a	n/a	1	0	0
1065.1658	1	82	n/a	n/a	1	0	0
1065.2828	1	82	n/a	n/a	1	0	0
1065.7198	1	82	n/a	n/a	1	0	0
1065.8828	1	82	n/a	n/a	1	0	0
1065.9778	1	82	n/a	n/a	1	0	0
1067.0952	1	10	337.3	337.3	1	50	1
1068.3452	1	10	287.3	287.3	1	50	2
1069.6784	1	10	299.8	299.8	1	50	3
1070.9784	1	10	262.1	262.1	1	50	4
1072.0282	1	10	284.2	284.2	1	50	5
1073.0782	1	21	-99	-99	1	50	0
1074.2948	1	10	225.5	225.5	1	50	1
1075.5114	1	21	272.9	272.9	1	50	0
1076.728	1	10	256.3	256.3	1	50	1
1078.0112	1	10	237.1	237.1	1	50	2
1079.3278	1	10	280.4	280.4	1	50	3
1080.5944	1	10	309.8	309.8	1	50	4
1081.911	1	10	289.2	289.2	1	50	5
1083.161	1	10	287.2	287.2	1	50	6
1084.4776	1	10	282.6	282.6	1	50	7
1085.7942	1	21	-99	-99	1	50	0
1086.9774	1	10	262.7	262.7	1	50	1
1088.1606	1	21	247.4	247.4	1	50	0
1089.294	1	10	282.1	282.1	1	50	1
1090.4272	1	21	-99	-99	1	50	0
1091.165	1	82	n/a	n/a	1	0	0
1091.342	1	82	n/a	n/a	1	0	0
1091.68	1	82	n/a	n/a	1	0	0
1091.941	1	82	n/a	n/a	1	0	0
1092.041	1	82	n/a	n/a	1	0	0
1092.165	1	82	n/a	n/a	1	0	0
1092.459	1	82	n/a	n/a	1	0	0
1092.552	1	82	n/a	n/a	1	0	0
1092.881	1	82	n/a	n/a	1	0	0
1093.02	1	82	n/a	n/a	1	0	0
1094.127	1	10	-99	-99	1	50	1
1095.2102	1	10	221.7	221.7	1	50	2
1096.5268	1	10	281.1	281.1	1	50	3
1097.8434	1	21	-99	-99	1	50	0
1099.11	1	10	385.8	385.8	1	50	1
1100.3766	1	21	-99	-99	1	50	0
1101.5766	1	10	271.2	271.2	1	50	1
1102.8598	1	10	-99	-99	1	50	2
1104.1098	1	10	250	250	1	50	3
1105.3596	1	10	-99	-99	1	50	4
1106.6428	1	10	308.7	308.7	1	50	5
1107.8428	1	10	308.8	308.8	1	50	6
1108.926	1	10	297.5	297.5	1	50	7
1110.0094	1	21	-99	-99	1	50	0
1111.2592	1	10	332.2	332.2	1	50	1
1112.5092	1	21	-99	-99	1	50	0
1113.5592	1	10	272.3	272.3	1	50	1
1114.609	1	21	-99	-99	1	50	0
1115.8256	1	10	245.8	245.8	1	50	1
1117.0422	1	10	229.2	229.2	1	50	2
1136.9114	1	81	n/a	n/a	1	0	0
1137.1114	1	81	n/a	n/a	1	0	0
1137.3114	1	81	n/a	n/a	1	0	0
1137.5114	1	81	n/a	n/a	1	0	0
1137.7114	1	81	n/a	n/a	1	0	0
1137.9114	1	81	n/a	n/a	1	0	0
1138.1114	1	81	n/a	n/a	1	0	0
1138.3114	1	81	n/a	n/a	1	0	0
1138.5114	1	81	n/a	n/a	1	0	0
1138.7114	1	81	n/a	n/a	1	0	0
1140.0576	1	10	333.3	333.3	1	51	1
1141.3408	1	10	266	266	1	51	2
1142.5742	1	10	232.8	232.8	1	51	3
1143.7906	1	10	216.1	216.1	1	51	4
1144.9406	1	10	266.1	266.1	1	51	5
1146.0906	1	21	-99	-99	1	51	0
1147.3238	1	10	250.9	250.9	1	51	1
1148.5738	1	10	232.9	232.9	1	51	2
1149.6404	1	10	286.3	286.3	1	51	3
1150.707	1	21	-99	-99	1	51	0
1151.8236	1	10	231.1	231.1	1	51	1
1153.0234	1	10	311.1	311.1	1	51	2
1154.1234	1	10	331.2	331.2	1	51	3
1155.39	1	10	296.5	296.5	1	51	4
1156.64	1	10	310.5	310.5	1	51	5
1157.8898	1	21	-99	-99	1	51	0
1159.1232	1	10	211.3	211.3	1	51	1
1160.3064	1	10	244.1	244.1	1	51	2
1161.4064	1	10	264.1	264.1	1	51	3
1162.6562	1	10	310.1	310.1	1	51	4
1163.5526	1	81	n/a	n/a	1	0	0
1163.7526	1	81	n/a	n/a	1	0	0
1163.9526	1	81	n/a	n/a	1	0	0
1164.1526	1	81	n/a	n/a	1	0	0
1164.3526	1	81	n/a	n/a	1	0	0
1164.5526	1	81	n/a	n/a	1	0	0
1164.7526	1	81	n/a	n/a	1	0	0
1164.9526	1	81	n/a	n/a	1	0	0
1165.1526	1	81	n/a	n/a	1	0	0
1165.3526	1	81	n/a	n/a	1	0	0
1166.756	1	10	290.3	290.3	1	51	1
1168.006	1	10	256.3	256.3	1	51	2
1169.1558	1	10	290.3	290.3	1	51	3
1170.3224	1	10	291.7	291.7	1	51	4
1171.5224	1	10	291.8	291.8	1	51	5
1172.789	1	10	305.2	305.2	1	51	6
1174.0222	1	10	271.8	271.8	1	51	7
1175.2554	1	21	-99	-99	1	51	0
1176.4554	1	10	254.6	254.6	1	51	1
1177.6554	1	21	-99	-99	1	51	0
1178.7052	1	10	276.7	276.7	1	51	1
1179.9052	1	10	260.8	260.8	1	51	2
1181.0718	1	10	278.1	278.1	1	51	3
1182.1218	1	10	300.1	300.1	1	51	4
1183.2216	1	10	320.2	320.2	1	51	5
1184.355	1	10	290.9	290.9	1	51	6
1185.6216	1	10	288.3	288.3	1	51	7
1186.8882	1	21	-99	-99	1	51	0
1188.188	1	10	233.7	233.7	1	51	1
1189.488	1	21	245.8	245.8	1	51	0
1190.3874	1	81	n/a	n/a	1	0	0
1190.5874	1	81	n/a	n/a	1	0	0
1190.7874	1	81	n/a	n/a	1	0	0
1190.9874	1	81	n/a	n/a	1	0	0
1191.1874	1	81	n/a	n/a	1	0	0
1191.3874	1	81	n/a	n/a	1	0	0
1191.5876	1	81	n/a	n/a	1	0	0
1191.7876	1	81	n/a	n/a	1	0	0
1191.9874	1	81	n/a	n/a	1	0	0
1192.1874	1	81	n/a	n/a	1	0	0
1193.3878	1	10	297.9	297.9	1	51	1
1194.4544	1	10	303.2	303.2	1	51	2
1195.7542	1	10	379.3	379.3	1	51	3
1197.0542	1	21	-99	-99	1	51	0
1198.0874	1	10	238.1	238.1	1	51	1
1199.3708	1	10	346.7	346.7	1	51	2
1200.5874	1	10	378.1	378.1	1	51	3
1201.6372	1	10	320.2	320.2	1	51	4
1202.7706	1	10	338.9	338.9	1	51	5
1203.9038	1	21	-99	-99	1	51	0
1204.937	1	10	220.4	220.4	1	51	1
1205.9704	1	21	-99	-99	1	51	0
1207.2036	1	10	241.7	241.7	1	51	1
1208.2536	1	10	215.8	215.8	1	51	2
1209.5534	1	10	291.8	291.8	1	51	3
1210.87	1	10	255.2	255.2	1	51	4
1211.97	1	10	307.3	307.3	1	51	5
1213.07	1	21	-99	-99	1	51	0
1214.2032	1	10	234	234	1	51	1
1215.4032	1	10	266	266	1	51	2
1216.3716	1	81	n/a	n/a	1	0	0
1216.5716	1	81	n/a	n/a	1	0	0
1216.7716	1	81	n/a	n/a	1	0	0
1216.9716	1	81	n/a	n/a	1	0	0
1217.1716	1	81	n/a	n/a	1	0	0
1217.3716	1	81	n/a	n/a	1	0	0
1217.5716	1	81	n/a	n/a	1	0	0
1217.7716	1	81	n/a	n/a	1	0	0
1217.9716	1	81	n/a	n/a	1	0	0
1218.1716	1	81	n/a	n/a	1	0	0
1219.4362	1	10	280.8	280.8	1	51	1
1220.6862	1	10	246.9	246.9	1	51	2
1221.7528	1	10	236.3	236.3	1	51	3
1222.8194	1	21	257.7	257.7	1	51	0
1223.936	1	10	228.9	228.9	1	51	1
1225.2192	1	10	257.7	257.7	1	51	2
1226.3524	1	10	260.4	260.4	1	51	3
1227.4858	1	10	263.1	263.1	1	51	4
1228.719	1	10	213.9	213.9	1	51	5
1229.9522	1	21	-99	-99	1	51	0
1231.2188	1	10	241.9	241.9	1	51	1
1232.5022	1	10	350.6	350.6	1	51	2
1233.7354	1	10	269.4	269.4	1	51	3
1234.8186	1	10	274.1	274.1	1	51	4
1235.9186	1	10	246	246	1	51	5
1237.1686	1	10	260.2	260.2	1	51	6
1238.2684	1	10	296.2	296.2	1	51	7
1239.3684	1	21	-99	-99	1	51	0
1240.5016	1	10	238.9	238.9	1	51	1
1241.635	1	21	-99	-99	1	51	0
1242.6576	1	81	n/a	n/a	1	0	0
1242.8576	1	81	n/a	n/a	1	0	0
1243.0576	1	81	n/a	n/a	1	0	0
1243.2576	1	81	n/a	n/a	1	0	0
1243.4576	1	81	n/a	n/a	1	0	0
1243.6576	1	81	n/a	n/a	1	0	0
1243.8576	1	81	n/a	n/a	1	0	0
1244.0576	1	81	n/a	n/a	1	0	0
1244.2576	1	81	n/a	n/a	1	0	0
1244.4576	1	81	n/a	n/a	1	0	0
1245.818	1	10	378.5	378.5	1	51	1
1247.1012	1	21	-99	-99	1	51	0
1248.2178	1	10	266.6	266.6	1	51	1
1249.3012	1	10	351.3	351.3	1	51	2
1250.3678	1	10	244.6	244.6	1	51	3
1251.4344	1	21	218	218	1	51	0
1252.5176	1	10	222.7	222.7	1	51	1
1253.7008	1	10	287.4	287.4	1	51	2
1254.9008	1	10	271.5	271.5	1	51	3
1256.1008	1	21	-99	-99	1	51	0
1257.4174	1	10	250.9	250.9	1	51	1
1258.484	1	10	368.3	368.3	1	51	2
1259.8004	1	10	331.7	331.7	1	51	3
1260.967	1	10	317	317	1	51	4
1262.1504	1	10	317.8	317.8	1	51	5
1263.3336	1	21	-99	-99	1	51	0
1264.6502	1	10	297.8	297.8	1	51	1
1265.7002	1	10	351.9	351.9	1	51	2
1266.95	1	10	301.9	301.9	1	51	3
1268.2	1	10	236	236	1	51	4
1342.8084	1	81	n/a	n/a	1	0	0
1343.0084	1	81	n/a	n/a	1	0	0
1343.2084	1	81	n/a	n/a	1	0	0
1343.4084	1	81	n/a	n/a	1	0	0
1343.6084	1	81	n/a	n/a	1	0	0
1343.8084	1	81	n/a	n/a	1	0	0
1344.0084	1	81	n/a	n/a	1	0	0
1344.2084	1	81	n/a	n/a	1	0	0
1344.4084	1	81	n/a	n/a	1	0	0
1344.6084	1	81	n/a	n/a	1	0	0
1345.8924	1	10	315.3	315.3	1	51	1
1347.0758	1	21	-99	-99	1	51	0
1348.2256	1	10	254	254	1	51	1
1349.2922	1	10	307.4	307.4	1	51	2
1350.4256	1	10	230.2	230.2	1	51	3
1351.5588	1	21	-99	-99	1	51	0
1352.7088	1	10	234.9	234.9	1	51	1
1353.942	1	10	281.6	281.6	1	51	2
1355.242	1	10	261.7	261.7	1	51	3
1356.5418	1	21	289.7	289.7	1	51	0
1357.7418	1	10	129.8	129.8	1	51	1
1358.9416	1	21	-99	-99	1	51	0
1360.125	1	10	210.5	210.5	1	51	1
1361.2916	1	10	211.9	211.9	1	51	2
1362.5582	1	10	241.3	241.3	1	51	3
1363.708	1	10	227.3	227.3	1	51	4
1364.7414	1	10	281.9	281.9	1	51	5
1365.7746	1	10	304.7	304.7	1	51	6
1367.0746	1	10	316.7	316.7	1	51	7
1368.3744	1	21	-99	-99	1	51	0
1369.4772	1	81	n/a	n/a	1	0	0
1369.6772	1	81	n/a	n/a	1	0	0
1369.8772	1	81	n/a	n/a	1	0	0
1370.0772	1	81	n/a	n/a	1	0	0
1370.2772	1	81	n/a	n/a	1	0	0
1370.4772	1	81	n/a	n/a	1	0	0
1370.6772	1	81	n/a	n/a	1	0	0
1370.8772	1	81	n/a	n/a	1	0	0
1371.0772	1	81	n/a	n/a	1	0	0
1371.2772	1	81	n/a	n/a	1	0	0
1372.4408	1	10	278.2	278.2	1	51	1
1373.7242	1	10	275	275	1	51	2
1374.8408	1	10	246.4	246.4	1	51	3
1375.9574	1	21	233.8	233.8	1	51	0
1377.2072	1	10	231.8	231.8	1	51	1
1378.4738	1	10	261.1	261.1	1	51	2
1379.6738	1	10	309.2	309.2	1	51	3
1380.9904	1	10	304.6	304.6	1	51	4
1382.1404	1	10	338.7	338.7	1	51	5
1383.2902	1	21	-99	-99	1	51	0
1384.4236	1	10	263.3	263.3	1	51	1
1385.6068	1	10	280.1	280.1	1	51	2
1386.8566	1	10	246.1	246.1	1	51	3
1388.1566	1	10	306.2	306.2	1	51	4
1389.3732	1	10	225.6	225.6	1	51	5
1390.5732	1	10	353.6	353.6	1	51	6
1391.7564	1	10	338.3	338.3	1	51	7
1392.9396	1	21	-99	-99	1	51	0
1394.1896	1	10	225.1	225.1	1	51	1
1395.3896	1	10	257.2	257.2	1	51	2
1396.159	1	81	n/a	n/a	1	0	0
1396.359	1	81	n/a	n/a	1	0	0
1396.559	1	81	n/a	n/a	1	0	0
1396.759	1	81	n/a	n/a	1	0	0
1396.959	1	81	n/a	n/a	1	0	0
1397.159	1	81	n/a	n/a	1	0	0
1397.359	1	81	n/a	n/a	1	0	0
1397.559	1	81	n/a	n/a	1	0	0
1397.759	1	81	n/a	n/a	1	0	0
1397.959	1	81	n/a	n/a	1	0	0
1399.256	1	10	294.6	294.6	1	51	1
1400.4558	1	10	246.6	246.6	1	51	2
1401.6724	1	10	262	262	1	51	3
1402.8058	1	10	216.7	216.7	1	51	4
1404.0056	1	10	40.7	40.7	1	51	5
1405.2056	1	21	-99	-99	1	51	0
1406.5222	1	10	244.2	244.2	1	51	1
1407.8388	1	10	303.6	303.6	1	51	2
1408.8888	1	10	261.5	261.5	1	51	3
1410.2054	1	10	240.9	240.9	1	51	4
1411.5386	1	10	267.7	267.7	1	51	5
1412.8718	1	21	262.4	262.4	1	51	0
1414.005	1	10	217.1	217.1	1	51	1
1415.2384	1	10	231.9	231.9	1	51	2
1416.3382	1	10	267.8	267.8	1	51	3
1417.4382	1	21	-99	-99	1	51	0
1418.5214	1	10	292.6	292.6	1	51	1
1419.7048	1	10	229.3	229.3	1	51	2
1420.8214	1	10	248.7	248.7	1	51	3
1421.938	1	21	-99	-99	1	51	0
1423.0096	1	81	n/a	n/a	1	0	0
1423.2096	1	81	n/a	n/a	1	0	0
1423.4096	1	81	n/a	n/a	1	0	0
1423.6096	1	81	n/a	n/a	1	0	0
1423.8096	1	81	n/a	n/a	1	0	0
1424.0096	1	81	n/a	n/a	1	0	0
1424.2096	1	81	n/a	n/a	1	0	0
1424.4096	1	81	n/a	n/a	1	0	0
1424.6096	1	81	n/a	n/a	1	0	0
1424.8096	1	81	n/a	n/a	1	0	0
1426.1544	1	10	307.6	307.6	1	51	1
1427.371	1	10	259	259	1	51	2
1428.4542	1	10	247.6	247.6	1	51	3
1429.5876	1	10	282.3	282.3	1	51	4
1430.8874	1	10	262.4	262.4	1	51	5
1431.954	1	10	315.8	315.8	1	51	6
1433.054	1	10	271.8	271.8	1	51	7
1434.154	1	21	-99	-99	1	51	0
1435.2706	1	10	359.2	359.2	1	51	1
1436.4038	1	21	-99	-99	1	51	0
1437.6536	1	10	216	216	1	51	1
1438.937	1	21	-99	-99	1	51	0
1440.2036	1	10	242.1	242.1	1	51	1
1441.4868	1	10	206.7	206.7	1	51	2
1442.5534	1	10	260.1	260.1	1	51	3
1443.62	1	21	-99	-99	1	51	0
1444.7532	1	10	268.3	268.3	1	51	1
1446.0532	1	10	232.3	232.3	1	51	2
1447.2364	1	10	248.9	248.9	1	51	3
1448.503	1	10	294.4	294.4	1	51	4
1449.3698	1	81	n/a	n/a	1	0	0
1449.5698	1	81	n/a	n/a	1	0	0
1449.7698	1	81	n/a	n/a	1	0	0
1449.9698	1	81	n/a	n/a	1	0	0
1450.1698	1	81	n/a	n/a	1	0	0
1450.3698	1	81	n/a	n/a	1	0	0
1450.5698	1	81	n/a	n/a	1	0	0
1450.7698	1	81	n/a	n/a	1	0	0
1450.9698	1	81	n/a	n/a	1	0	0
1451.1698	1	81	n/a	n/a	1	0	0
1452.3694	1	10	299.9	299.9	1	51	1
1453.486	1	10	303.2	303.2	1	51	2
1454.5694	1	10	339.9	339.9	1	51	3
1455.6694	1	10	312	312	1	51	4
1456.8692	1	10	360	360	1	51	5
1458.0024	1	10	250.7	250.7	1	51	6
1459.319	1	10	230.1	230.1	1	51	7
1460.6356	1	21	-99	-99	1	51	0
1461.7856	1	10	259.5	259.5	1	51	1
1463.0022	1	10	242.9	242.9	1	51	2
1464.1354	1	10	245.6	245.6	1	51	3
1465.2688	1	21	-99	-99	1	51	0
1466.3186	1	10	286.3	286.3	1	51	1
1467.4352	1	10	241.7	241.7	1	51	2
1468.7352	1	10	237.8	237.8	1	51	3
1470.0352	1	21	-99	-99	1	51	0
1471.1684	1	10	268.6	268.6	1	51	1
1472.3016	1	21	287.2	287.2	1	51	0
1473.4016	1	10	227.2	227.2	1	51	1
1474.5682	1	10	260.6	260.6	1	51	2
1486.3888	1	81	n/a	n/a	1	0	0
1486.5888	1	81	n/a	n/a	1	0	0
1486.7888	1	81	n/a	n/a	1	0	0
1486.9888	1	81	n/a	n/a	1	0	0
1487.1888	1	81	n/a	n/a	1	0	0
1487.3888	1	81	n/a	n/a	1	0	0
1487.5888	1	81	n/a	n/a	1	0	0
1487.7888	1	81	n/a	n/a	1	0	0
1487.9888	1	81	n/a	n/a	1	0	0
1488.1888	1	81	n/a	n/a	1	0	0
1489.4174	1	10	307.2	307.2	1	50	1
1490.7506	1	10	238	238	1	50	2
1491.9172	1	10	255.2	255.2	1	50	3
1493.0838	1	21	-99	-99	1	50	0
1494.4004	1	10	236	236	1	50	1
1495.717	1	21	-99	-99	1	50	0
1496.8002	1	10	300.2	300.2	1	50	1
1497.8834	1	21	-99	-99	1	50	0
1499.1334	1	10	222.9	222.9	1	50	1
1500.3834	1	21	-99	-99	1	50	0
1501.4832	1	10	257	257	1	50	1
1502.6832	1	10	288.9	288.9	1	50	2
1503.7998	1	10	260.3	260.3	1	50	3
1505.033	1	10	291.1	291.1	1	50	4
1506.083	1	10	281.1	281.1	1	50	5
1507.133	1	21	-99	-99	1	50	0
1508.1996	1	10	196.6	196.6	1	50	1
1509.2662	1	21	249.9	249.9	1	50	0
1510.3328	1	10	239.2	239.2	1	50	1
1511.6326	1	10	235.3	235.3	1	50	2
1512.483	1	81	n/a	n/a	1	0	0
1512.683	1	81	n/a	n/a	1	0	0
1512.883	1	81	n/a	n/a	1	0	0
1513.083	1	81	n/a	n/a	1	0	0
1513.283	1	81	n/a	n/a	1	0	0
1513.483	1	81	n/a	n/a	1	0	0
1513.683	1	81	n/a	n/a	1	0	0
1513.883	1	81	n/a	n/a	1	0	0
1514.083	1	81	n/a	n/a	1	0	0
1514.283	1	81	n/a	n/a	1	0	0
1515.5158	1	10	336.2	336.2	1	50	1
1516.599	1	10	260.8	260.8	1	50	2
1517.6656	1	10	234.2	234.2	1	50	3
1518.9322	1	10	263.6	263.6	1	50	4
1520.0154	1	10	300.3	300.3	1	50	5
1521.0988	1	21	-99	-99	1	50	0
1522.2654	1	10	258.4	258.4	1	50	1
1523.532	1	10	287.7	287.7	1	50	2
1524.7318	1	10	255.8	255.8	1	50	3
1525.9318	1	21	223.9	223.9	1	50	0
1527.1318	1	10	-99	-99	1	50	1
1528.315	1	10	320.5	320.5	1	50	2
1529.515	1	10	288.6	288.6	1	50	3
1530.5482	1	10	311.3	311.3	1	50	4
1531.8148	1	10	292.7	292.7	1	50	5
1532.9814	1	10	326.1	326.1	1	50	6
1534.0646	1	10	250.8	250.8	1	50	7
1535.148	1	21	-99	-99	1	50	0
1536.2978	1	10	273.5	273.5	1	50	1
1537.4144	1	10	260.9	260.9	1	50	2
1538.403	1	81	n/a	n/a	1	0	0
1538.603	1	81	n/a	n/a	1	0	0
1538.803	1	81	n/a	n/a	1	0	0
1539.003	1	81	n/a	n/a	1	0	0
1539.203	1	81	n/a	n/a	1	0	0
1539.403	1	81	n/a	n/a	1	0	0
1539.603	1	81	n/a	n/a	1	0	0
1539.803	1	81	n/a	n/a	1	0	0
1540.003	1	81	n/a	n/a	1	0	0
1540.203	1	81	n/a	n/a	1	0	0
1541.3976	1	10	309.8	309.8	1	50	1
1542.4976	1	21	265.7	265.7	1	50	0
1543.7808	1	10	262.5	262.5	1	50	1
1545.064	1	21	-99	-99	1	50	0
1546.364	1	10	271.3	271.3	1	50	1
1547.6306	1	10	349.8	349.8	1	50	2
1548.7304	1	10	288.6	288.6	1	50	3
1549.8638	1	21	-99	-99	1	50	0
1551.0636	1	10	243.4	243.4	1	50	1
1552.3636	1	10	255.5	255.5	1	50	2
1553.3968	1	10	262.2	262.2	1	50	3
1554.4302	1	10	236.8	236.8	1	50	4
1555.48	1	10	242.9	242.9	1	50	5
1556.53	1	21	-99	-99	1	50	0
1557.7466	1	10	264.3	264.3	1	50	1
1559.0466	1	10	244.4	244.4	1	50	2
1560.1298	1	10	282.9	282.9	1	50	3
1561.3964	1	10	246.4	246.4	1	50	4
1562.4796	1	10	251.2	251.2	1	50	5
1563.563	1	21	-99	-99	1	50	0
1564.4396	1	81	n/a	n/a	1	0	0
1564.6396	1	81	n/a	n/a	1	0	0
1564.8396	1	81	n/a	n/a	1	0	0
1565.0396	1	81	n/a	n/a	1	0	0
1565.2396	1	81	n/a	n/a	1	0	0
1565.4396	1	81	n/a	n/a	1	0	0
1565.6396	1	81	n/a	n/a	1	0	0
1565.8396	1	81	n/a	n/a	1	0	0
1566.0396	1	81	n/a	n/a	1	0	0
1566.2396	1	81	n/a	n/a	1	0	0
1567.496	1	10	370.7	370.7	1	50	1
1568.6626	1	21	-99	-99	1	50	0
1569.7126	1	10	298.1	298.1	1	50	1
1570.7626	1	21	-99	-99	1	50	0
1571.8958	1	10	258.9	258.9	1	50	1
1573.1624	1	10	240.3	240.3	1	50	2
1574.3122	1	10	274.2	274.2	1	50	3
1575.4956	1	10	275	275	1	50	4
1576.6454	1	10	277	277	1	50	5
1577.7788	1	10	231.8	231.8	1	50	6
1578.812	1	10	270.5	270.5	1	50	7
1579.8454	1	21	-99	-99	1	50	0
1581.0286	1	10	261.8	261.8	1	50	1
1582.2452	1	10	277.2	277.2	1	50	2
1583.445	1	10	229.3	229.3	1	50	3
1584.5784	1	10	312	312	1	50	4
1585.7782	1	10	328.1	328.1	1	50	5
1586.9782	1	21	-99	-99	1	50	0
1588.1448	1	10	233.4	233.4	1	50	1
1589.2114	1	10	254.8	254.8	1	50	2
1589.9538	1	81	n/a	n/a	1	0	0
1590.1538	1	81	n/a	n/a	1	0	0
1590.3538	1	81	n/a	n/a	1	0	0
1590.5538	1	81	n/a	n/a	1	0	0
1590.7538	1	81	n/a	n/a	1	0	0
1590.9538	1	81	n/a	n/a	1	0	0
1591.1538	1	81	n/a	n/a	1	0	0
1591.3538	1	81	n/a	n/a	1	0	0
1591.5538	1	81	n/a	n/a	1	0	0
1591.7538	1	81	n/a	n/a	1	0	0
1593.1112	1	10	402.9	402.9	1	50	1
1594.3112	1	10	307	307	1	50	2
1595.461	1	10	261	261	1	50	3
1596.6944	1	10	259.8	259.8	1	50	4
1597.8442	1	10	261.8	261.8	1	50	5
1599.1108	1	10	259.1	259.1	1	50	6
1600.3774	1	10	272.5	272.5	1	50	7
1601.644	1	21	-99	-99	1	50	0
1602.8106	1	10	255.3	255.3	1	50	1
1604.0106	1	10	239.4	239.4	1	50	2
1605.2438	1	10	254	254	1	50	3
1606.477	1	21	-99	-99	1	50	0
1607.6104	1	10	255.5	255.5	1	50	1
1608.7436	1	21	-99	-99	1	50	0
1609.9936	1	10	240.3	240.3	1	50	1
1611.2434	1	21	-99	-99	1	50	0
1612.56	1	10	281.6	281.6	1	50	1
1613.76	1	10	377.7	377.7	1	50	2
1614.9932	1	10	376.4	376.4	1	50	3
1616.1264	1	10	267.2	267.2	1	50	4
1636.8188	1	82	n/a	n/a	1	0	0
1637.2458	1	82	n/a	n/a	1	0	0
1637.6368	1	82	n/a	n/a	1	0	0
1637.6698	1	82	n/a	n/a	1	0	0
1637.7358	1	82	n/a	n/a	1	0	0
1637.8188	1	82	n/a	n/a	1	0	0
1638.1708	1	82	n/a	n/a	1	0	0
1638.4558	1	82	n/a	n/a	1	0	0
1638.4988	1	82	n/a	n/a	1	0	0
1638.7438	1	82	n/a	n/a	1	0	0
1639.9084	1	10	372.7	372.7	1	52	1
1641.175	1	10	290.1	290.1	1	52	2
1642.2416	1	10	247.4	247.4	1	52	3
1643.3082	1	21	-99	-99	1	52	0
1644.5748	1	10	234.1	234.1	1	52	1
1645.858	1	10	262.9	262.9	1	52	2
1646.958	1	10	234.9	234.9	1	52	3
1648.0746	1	10	238.3	238.3	1	52	4
1649.1578	1	10	242.9	242.9	1	52	5
1650.2412	1	21	-99	-99	1	52	0
1651.5578	1	10	227.1	227.1	1	52	1
1652.8744	1	21	270.5	270.5	1	52	0
1654.1742	1	10	218.5	218.5	1	52	1
1655.4742	1	21	-99	-99	1	52	0
1656.6074	1	10	265.2	265.2	1	52	1
1657.7408	1	21	-99	-99	1	52	0
1658.924	1	10	252.7	252.7	1	52	1
1660.0072	1	10	257.4	257.4	1	52	2
1661.2072	1	10	225.5	225.5	1	52	3
1662.4072	1	21	-99	-99	1	52	0
1663.3748	1	82	n/a	n/a	1	0	0
1663.6258	1	82	n/a	n/a	1	0	0
1663.9728	1	82	n/a	n/a	1	0	0
1664.1988	1	82	n/a	n/a	1	0	0
1664.3228	1	82	n/a	n/a	1	0	0
1664.3748	1	82	n/a	n/a	1	0	0
1664.6478	1	82	n/a	n/a	1	0	0
1664.6778	1	82	n/a	n/a	1	0	0
1664.8668	1	82	n/a	n/a	1	0	0
1664.9788	1	82	n/a	n/a	1	0	0
1666.3902	1	10	290.3	290.3	1	52	1
1667.6568	1	10	271.7	271.7	1	52	2
1668.8568	1	10	303.7	303.7	1	52	3
1670.0066	1	10	305.7	305.7	1	52	4
1671.1232	1	10	325.1	325.1	1	52	5
1672.2398	1	21	-99	-99	1	52	0
1673.4398	1	10	264.5	264.5	1	52	1
1674.7564	1	10	259.9	259.9	1	52	2
1675.9896	1	10	242.6	242.6	1	52	3
1677.1228	1	10	293.3	293.3	1	52	4
1678.2394	1	10	312.7	312.7	1	52	5
1679.3894	1	10	250.8	250.8	1	52	6
1680.606	1	10	282.1	282.1	1	52	7
1681.8226	1	21	-99	-99	1	52	0
1682.8892	1	10	254.9	254.9	1	52	1
1684.2058	1	10	266.3	266.3	1	52	2
1685.3724	1	10	251.7	251.7	1	52	3
1686.6056	1	10	234.4	234.4	1	52	4
1687.689	1	10	255	255	1	52	5
1688.7722	1	21	-99	-99	1	52	0
1689.725	1	82	n/a	n/a	1	0	0
1689.752	1	82	n/a	n/a	1	0	0
1690.048	1	82	n/a	n/a	1	0	0
1690.166	1	82	n/a	n/a	1	0	0
1690.505	1	82	n/a	n/a	1	0	0
1690.725	1	82	n/a	n/a	1	0	0
1690.803	1	82	n/a	n/a	1	0	0
1691.03	1	82	n/a	n/a	1	0	0
1691.227	1	82	n/a	n/a	1	0	0
1691.52	1	82	n/a	n/a	1	0	0
1692.722	1	10	293.9	293.9	1	52	1
1693.822	1	21	265.9	265.9	1	52	0
1694.9052	1	10	222.6	222.6	1	52	1
1695.9884	1	10	275.3	275.3	1	52	2
1697.2718	1	10	240.1	240.1	1	52	3
1698.4884	1	10	255.5	255.5	1	52	4
1699.5382	1	10	245.5	245.5	1	52	5
1700.6048	1	10	250.8	250.8	1	52	6
1701.9048	1	10	278.9	278.9	1	52	7
1703.2046	1	21	243	243	1	52	0
1704.288	1	10	87.7	87.7	1	52	1
1705.3712	1	21	-99	-99	1	52	0
1706.6878	1	10	231.7	231.7	1	52	1
1707.8878	1	10	263.8	263.8	1	52	2
1709.0044	1	10	267.2	267.2	1	52	3
1710.3042	1	10	311.2	311.2	1	52	4
1711.5708	1	10	276.6	276.6	1	52	5
1712.8374	1	21	-99	-99	1	52	0
1713.8708	1	10	264.6	264.6	1	52	1
1715.104	1	10	247.4	247.4	1	52	2
1715.8434	1	82	n/a	n/a	1	0	0
1716.2094	1	82	n/a	n/a	1	0	0
1716.3704	1	82	n/a	n/a	1	0	0
1716.5774	1	82	n/a	n/a	1	0	0
1716.6704	1	82	n/a	n/a	1	0	0
1716.8436	1	82	n/a	n/a	1	0	0
1716.8644	1	82	n/a	n/a	1	0	0
1716.9794	1	82	n/a	n/a	1	0	0
1717.3204	1	82	n/a	n/a	1	0	0
1717.5994	1	82	n/a	n/a	1	0	0
1718.8372	1	10	290.1	290.1	1	52	1
1719.937	1	10	262.2	262.2	1	52	2
1721.1536	1	10	277.6	277.6	1	52	3
1722.3702	1	21	-99	-99	1	52	0
1723.4702	1	10	329	329	1	52	1
1724.6034	1	10	235.8	235.8	1	52	2
1725.92	1	10	311.1	311.1	1	52	3
1727.2366	1	21	-99	-99	1	52	0
1728.5032	1	10	255.9	255.9	1	52	1
1729.6198	1	10	275.3	275.3	1	52	2
1730.7698	1	10	261.3	261.3	1	52	3
1731.9696	1	10	261.3	261.3	1	52	4
1733.1196	1	10	231.3	231.3	1	52	5
1734.2696	1	21	-99	-99	1	52	0
1735.5028	1	10	248.1	248.1	1	52	1
1736.786	1	10	292.9	292.9	1	52	2
1737.886	1	10	296.9	296.9	1	52	3
1739.0026	1	10	220.2	220.2	1	52	4
1740.0526	1	10	210.3	210.3	1	52	5
1741.1024	1	21	232.3	232.3	1	52	0
1742.2158	1	82	n/a	n/a	1	0	0
1742.5778	1	82	n/a	n/a	1	0	0
1742.6588	1	82	n/a	n/a	1	0	0
1742.6818	1	82	n/a	n/a	1	0	0
1743.0098	1	82	n/a	n/a	1	0	0
1743.2166	1	82	n/a	n/a	1	0	0
1743.3956	1	82	n/a	n/a	1	0	0
1743.4466	1	82	n/a	n/a	1	0	0
1743.7856	1	82	n/a	n/a	1	0	0
1744.0756	1	82	n/a	n/a	1	0	0
1745.3188	1	10	-99	-99	1	52	1
1746.4522	1	10	242.5	242.5	1	52	2
1747.7688	1	10	365.9	365.9	1	52	3
1748.8686	1	10	-99	-99	1	52	4
1750.1352	1	10	191.4	191.4	1	52	5
1751.4018	1	21	-99	-99	1	52	0
1752.4852	1	10	273.4	273.4	1	52	1
1753.6184	1	10	228.1	228.1	1	52	2
1754.6516	1	10	250.8	250.8	1	52	3
1755.9182	1	10	296.2	296.2	1	52	4
1757.0348	1	10	251.5	251.5	1	52	5
1758.1014	1	10	224.9	224.9	1	52	6
1759.4014	1	10	237	237	1	52	7
1760.7014	1	21	217	217	1	52	0
1761.9846	1	10	-99	-99	1	52	1
1763.0178	1	10	316.4	316.4	1	52	2
1764.2178	1	10	220.5	220.5	1	52	3
1765.3844	1	10	253.9	253.9	1	52	4
1766.5176	1	10	272.6	272.6	1	52	5
1767.651	1	21	-99	-99	1	52	0
1861.9942	1	82	n/a	n/a	1	0	0
1862.2952	1	82	n/a	n/a	1	0	0
1862.5562	1	82	n/a	n/a	1	0	0
1862.7382	1	82	n/a	n/a	1	0	0
1862.8792	1	82	n/a	n/a	1	0	0
1862.9942	1	82	n/a	n/a	1	0	0
1863.1252	1	82	n/a	n/a	1	0	0
1863.4002	1	82	n/a	n/a	1	0	0
1863.5662	1	82	n/a	n/a	1	0	0
1863.8092	1	82	n/a	n/a	1	0	0
1864.9286	1	10	355.5	355.5	1	52	1
1865.9784	1	21	-99	-99	1	52	0
1867.0284	1	10	335.5	335.5	1	52	1
1868.0784	1	21	-99	-99	1	52	0
1869.1616	1	10	282.3	282.3	1	52	1
1870.4116	1	10	280.3	280.3	1	52	2
1871.6614	1	10	230.4	230.4	1	52	3
1872.8448	1	10	263.1	263.1	1	52	4
1873.878	1	10	237.8	237.8	1	52	5
1875.1112	1	10	252.5	252.5	1	52	6
1876.2778	1	10	221.8	221.8	1	52	7
1877.4444	1	21	-99	-99	1	52	0
1878.5944	1	10	241.3	241.3	1	52	1
1879.761	1	10	306.7	306.7	1	52	2
1881.0276	1	10	256.1	256.1	1	52	3
1882.2942	1	21	-99	-99	1	52	0
1883.4274	1	10	256.1	256.1	1	52	1
1884.694	1	10	253.5	253.5	1	52	2
1885.944	1	10	219.6	219.6	1	52	3
1887.0438	1	10	303.6	303.6	1	52	4
1887.7934	1	82	n/a	n/a	1	0	0
1888.2024	1	82	n/a	n/a	1	0	0
1888.4814	1	82	n/a	n/a	1	0	0
1888.5184	1	82	n/a	n/a	1	0	0
1888.7434	1	82	n/a	n/a	1	0	0
1888.7934	1	82	n/a	n/a	1	0	0
1888.8584	1	82	n/a	n/a	1	0	0
1889.1464	1	82	n/a	n/a	1	0	0
1889.2864	1	82	n/a	n/a	1	0	0
1889.3154	1	82	n/a	n/a	1	0	0
1890.9104	1	10	245.1	245.1	1	52	1
1891.9602	1	10	251.1	251.1	1	52	2
1893.1936	1	10	249.8	249.8	1	52	3
1894.4268	1	21	-99	-99	1	52	0
1895.7434	1	10	259.9	259.9	1	52	1
1897.0766	1	10	238.6	238.6	1	52	2
1898.1932	1	10	242	242	1	52	3
1899.2432	1	10	248.1	248.1	1	52	4
1900.2764	1	10	238.8	238.8	1	52	5
1901.3098	1	21	-99	-99	1	52	0
1902.3764	1	10	234.8	234.8	1	52	1
1903.543	1	10	268.2	268.2	1	52	2
1904.6428	1	10	240.2	240.2	1	52	3
1905.8428	1	10	256.3	256.3	1	52	4
1907.0926	1	10	238.4	238.4	1	52	5
1908.376	1	10	251.1	251.1	1	52	6
1909.4758	1	10	255	255	1	52	7
1910.5758	1	21	-99	-99	1	52	0
1911.859	1	10	239.8	239.8	1	52	1
1913.1424	1	21	204.6	204.6	1	52	0
1913.9188	1	82	n/a	n/a	1	0	0
1914.0608	1	82	n/a	n/a	1	0	0
1914.2988	1	82	n/a	n/a	1	0	0
1914.3468	1	82	n/a	n/a	1	0	0
1914.5148	1	82	n/a	n/a	1	0	0
1914.9188	1	82	n/a	n/a	1	0	0
1915.0378	1	82	n/a	n/a	1	0	0
1915.3708	1	82	n/a	n/a	1	0	0
1915.5918	1	82	n/a	n/a	1	0	0
1915.6808	1	82	n/a	n/a	1	0	0
1917.0088	1	10	258	258	1	52	1
1918.2088	1	21	-99	-99	1	52	0
1919.4754	1	10	239.5	239.5	1	52	1
1920.6918	1	10	318.8	318.8	1	52	2
1921.9084	1	10	318.2	318.2	1	52	3
1923.125	1	21	-99	-99	1	52	0
1924.275	1	10	239.6	239.6	1	52	1
1925.425	1	21	241.7	241.7	1	52	0
1926.4748	1	10	247.7	247.7	1	52	1
1927.5582	1	10	300.4	300.4	1	52	2
1928.5914	1	10	275.1	275.1	1	52	3
1929.6746	1	10	295.8	295.8	1	52	4
1930.8746	1	10	311.9	311.9	1	52	5
1932.1246	1	10	309.9	309.9	1	52	6
1933.2578	1	10	328.6	328.6	1	52	7
1934.391	1	21	-99	-99	1	52	0
1935.7076	1	10	326.7	326.7	1	52	1
1937.0242	1	21	242.1	242.1	1	52	0
1938.0576	1	10	296.8	296.8	1	52	1
1939.2574	1	10	232.9	232.9	1	52	2
1940.0808	1	82	n/a	n/a	1	0	0
1940.2478	1	82	n/a	n/a	1	0	0
1940.5028	1	82	n/a	n/a	1	0	0
1940.7308	1	82	n/a	n/a	1	0	0
1940.8418	1	82	n/a	n/a	1	0	0
1941.0808	1	82	n/a	n/a	1	0	0
1941.1488	1	82	n/a	n/a	1	0	0
1941.2568	1	82	n/a	n/a	1	0	0
1941.6608	1	82	n/a	n/a	1	0	0
1941.9008	1	82	n/a	n/a	1	0	0
1943.174	1	10	300.3	300.3	1	52	1
1944.4738	1	10	296.4	296.4	1	52	2
1945.6904	1	10	263.8	263.8	1	52	3
1946.857	1	10	233.1	233.1	1	52	4
1948.0402	1	10	281.8	281.8	1	52	5
1949.2236	1	21	-99	-99	1	52	0
1950.5234	1	10	246.6	246.6	1	52	1
1951.7568	1	10	261.3	261.3	1	52	2
1953.0566	1	10	257.3	257.3	1	52	3
1954.3566	1	21	221.4	221.4	1	52	0
1955.6566	1	10	233.4	233.4	1	52	1
1956.7064	1	10	335.5	335.5	1	52	2
1958.0396	1	10	250.1	250.1	1	52	3
1959.373	1	21	-99	-99	1	52	0
1960.6896	1	10	272.2	272.2	1	52	1
1961.8728	1	10	241	241	1	52	2
1962.906	1	10	279.7	279.7	1	52	3
1963.9394	1	21	-99	-99	1	52	0
1964.9726	1	10	293.1	293.1	1	52	1
1966.0392	1	10	266.4	266.4	1	52	2
1966.8046	1	82	n/a	n/a	1	0	0
1967.1406	1	82	n/a	n/a	1	0	0
1967.2566	1	82	n/a	n/a	1	0	0
1967.5286	1	82	n/a	n/a	1	0	0
1967.5906	1	82	n/a	n/a	1	0	0
1967.8046	1	82	n/a	n/a	1	0	0
1967.8886	1	82	n/a	n/a	1	0	0
1968.2336	1	82	n/a	n/a	1	0	0
1968.3406	1	82	n/a	n/a	1	0	0
1968.7606	1	82	n/a	n/a	1	0	0
1969.939	1	10	318.6	318.6	1	52	1
1971.0556	1	10	274	274	1	52	2
1972.1056	1	10	248	248	1	52	3
1973.1554	1	10	286	286	1	52	4
1974.4054	1	10	348.1	348.1	1	52	5
1975.6554	1	21	266.2	266.2	1	52	0
1976.9052	1	10	280.2	280.2	1	52	1
1978.1552	1	21	-99	-99	1	52	0
1979.3218	1	10	311.6	311.6	1	52	1
1980.3884	1	10	317	317	1	52	2
1981.655	1	10	298.4	298.4	1	52	3
1982.8382	1	10	299.1	299.1	1	52	4
1983.9048	1	10	320.4	320.4	1	52	5
1984.9714	1	21	-99	-99	1	52	0
1986.1548	1	10	278.5	278.5	1	52	1
1987.238	1	10	365	365	1	52	2
1988.488	1	10	281.3	281.3	1	52	3
1989.6878	1	10	265.4	265.4	1	52	4
1991.0044	1	10	244.7	244.7	1	52	5
1992.321	1	21	-99	-99	1	52	0
2008.9878	1	82	n/a	n/a	1	0	0
2009.1008	1	82	n/a	n/a	1	0	0
2009.1278	1	82	n/a	n/a	1	0	0
2009.3208	1	82	n/a	n/a	1	0	0
2009.5948	1	82	n/a	n/a	1	0	0
2009.9878	1	82	n/a	n/a	1	0	0
2010.3948	1	82	n/a	n/a	1	0	0
2010.4818	1	82	n/a	n/a	1	0	0
2010.5958	1	82	n/a	n/a	1	0	0
2010.8968	1	82	n/a	n/a	1	0	0
2011.9698	1	10	446.8	446.8	1	50	1
2013.0198	1	10	292.8	292.8	1	50	2
2014.2698	1	10	242.9	242.9	1	50	3
2015.5196	1	21	-99	-99	1	50	0
2016.803	1	10	221.6	221.6	1	50	1
2018.0362	1	10	316.3	316.3	1	50	2
2019.2694	1	10	251.1	251.1	1	50	3
2020.3528	1	10	289.6	289.6	1	50	4
2021.4694	1	10	259.2	259.2	1	50	5
2022.6192	1	21	277.1	277.1	1	50	0
2023.7358	1	10	248.5	248.5	1	50	1
2024.7858	1	10	286.6	286.6	1	50	2
2025.9024	1	10	274	274	1	50	3
2027.0024	1	10	278	278	1	50	4
2028.2356	1	10	260.7	260.7	1	50	5
2029.4854	1	10	290.7	290.7	1	50	6
2030.5688	1	10	295.4	295.4	1	50	7
2031.652	1	21	-99	-99	1	50	0
2032.7186	1	10	241.6	241.6	1	50	1
2033.7852	1	21	247	247	1	50	0
2034.5086	1	82	n/a	n/a	1	0	0
2034.7566	1	82	n/a	n/a	1	0	0
2035.1086	1	82	n/a	n/a	1	0	0
2035.1606	1	82	n/a	n/a	1	0	0
2035.3076	1	82	n/a	n/a	1	0	0
2035.5086	1	82	n/a	n/a	1	0	0
2035.5536	1	82	n/a	n/a	1	0	0
2035.6776	1	82	n/a	n/a	1	0	0
2035.9106	1	82	n/a	n/a	1	0	0
2036.2336	1	82	n/a	n/a	1	0	0
2037.635	1	10	301	301	1	50	1
2038.8682	1	21	-99	-99	1	50	0
2040.0182	1	10	253.8	253.8	1	50	1
2041.1348	1	10	369.1	369.1	1	50	2
2042.3014	1	10	306.5	306.5	1	50	3
2043.468	1	21	-99	-99	1	50	0
2044.5512	1	10	248.6	248.6	1	50	1
2045.6346	1	21	-99	-99	1	50	0
2046.8178	1	10	238.1	238.1	1	50	1
2048.001	1	21	-99	-99	1	50	0
2049.251	1	10	284.8	284.8	1	50	1
2050.3176	1	10	258.2	258.2	1	50	2
2051.6342	1	10	285.6	285.6	1	50	3
2052.9342	1	10	233.6	233.6	1	50	4
2054.1508	1	10	248.9	248.9	1	50	5
2055.384	1	21	-99	-99	1	50	0
2056.6338	1	10	293.7	293.7	1	50	1
2057.9172	1	21	-99	-99	1	50	0
2059.1504	1	10	289.2	289.2	1	50	1
2060.367	1	10	400.5	400.5	1	50	2
2061.4364	1	82	n/a	n/a	1	0	0
2061.5814	1	82	n/a	n/a	1	0	0
2061.8844	1	82	n/a	n/a	1	0	0
2062.0634	1	82	n/a	n/a	1	0	0
2062.1274	1	82	n/a	n/a	1	0	0
2062.4364	1	82	n/a	n/a	1	0	0
2062.5194	1	82	n/a	n/a	1	0	0
2062.8724	1	82	n/a	n/a	1	0	0
2062.9214	1	82	n/a	n/a	1	0	0
2063.3434	1	82	n/a	n/a	1	0	0
2064.4834	1	10	316	316	1	50	1
2065.7666	1	10	264.8	264.8	1	50	2
2066.9	1	10	267.4	267.4	1	50	3
2068.0332	1	21	-99	-99	1	50	0
2069.0998	1	10	275.5	275.5	1	50	1
2070.1664	1	21	-99	-99	1	50	0
2071.483	1	10	276.3	276.3	1	50	1
2072.533	1	10	-99	-99	1	50	2
2073.7328	1	10	234.3	234.3	1	50	3
2074.9162	1	10	267.1	267.1	1	50	4
2076.1494	1	10	233.8	233.8	1	50	5
2077.2494	1	10	221.8	221.8	1	50	6
2078.366	1	10	241.2	241.2	1	50	7
2079.4826	1	21	228.5	228.5	1	50	0
2080.5658	1	10	105.2	105.2	1	50	1
2081.8658	1	10	-99	-99	1	50	2
2083.1824	1	10	224.7	224.7	1	50	3
2084.5156	1	21	-99	-99	1	50	0
2085.7822	1	10	232.8	232.8	1	50	1
2087.0822	1	21	-99	-99	1	50	0
2087.8928	1	82	n/a	n/a	1	0	0
2088.0268	1	82	n/a	n/a	1	0	0
2088.2788	1	82	n/a	n/a	1	0	0
2088.3078	1	82	n/a	n/a	1	0	0
2088.7118	1	82	n/a	n/a	1	0	0
2088.8928	1	82	n/a	n/a	1	0	0
2088.9908	1	82	n/a	n/a	1	0	0
2089.3488	1	82	n/a	n/a	1	0	0
2089.3898	1	82	n/a	n/a	1	0	0
2089.8008	1	82	n/a	n/a	1	0	0
2090.8152	1	10	271.7	271.7	1	50	1
2091.9818	1	10	-99	-99	1	50	2
2093.165	1	10	257.7	257.7	1	50	3
2094.2316	1	10	247.1	247.1	1	50	4
2095.4816	1	10	277.2	277.2	1	50	5
2096.5482	1	10	298.5	298.5	1	50	6
2097.8482	1	10	262.5	262.5	1	50	7
2099.148	1	21	-99	-99	1	50	0
2100.348	1	10	242.6	242.6	1	50	1
2101.398	1	10	296.7	296.7	1	50	2
2102.6646	1	10	246.1	246.1	1	50	3
2103.9312	1	21	-99	-99	1	50	0
2105.031	1	10	279.5	279.5	1	50	1
2106.1976	1	10	232.9	232.9	1	50	2
2107.2642	1	10	286.2	286.2	1	50	3
2108.5142	1	10	252.3	252.3	1	50	4
2109.5974	1	10	257	257	1	50	5
2110.8808	1	10	269.7	269.7	1	50	6
2112.164	1	10	282.4	282.4	1	50	7
2113.4472	1	21	-99	-99	1	50	0
2114.446	1	82	n/a	n/a	1	0	0
2114.796	1	82	n/a	n/a	1	0	0
2114.879	1	82	n/a	n/a	1	0	0
2115.106	1	82	n/a	n/a	1	0	0
2115.356	1	82	n/a	n/a	1	0	0
2115.446	1	82	n/a	n/a	1	0	0
2115.475	1	82	n/a	n/a	1	0	0
2115.559	1	82	n/a	n/a	1	0	0
2115.799	1	82	n/a	n/a	1	0	0
2115.938	1	82	n/a	n/a	1	0	0
2117.4636	1	10	358.6	358.6	1	50	1
2118.7302	1	10	244	244	1	50	2
2119.7802	1	10	298	298	1	50	3
2120.8302	1	21	-99	-99	1	50	0
2121.9468	1	10	243.5	243.5	1	50	1
2123.0466	1	10	247.4	247.4	1	50	2
2124.2466	1	10	247.5	247.5	1	50	3
2125.2966	1	10	301.5	301.5	1	50	4
2126.3964	1	10	257.6	257.6	1	50	5
2127.4464	1	10	263.7	263.7	1	50	6
2128.4964	1	10	269.6	269.6	1	50	7
2129.5462	1	21	243.7	243.7	1	50	0
2130.7628	1	10	-99	-99	1	50	1
2131.9794	1	21	274.5	274.5	1	50	0
2133.1128	1	10	21.2	21.2	1	50	1
2134.196	1	10	265.9	265.9	1	50	2
2135.496	1	10	245.9	245.9	1	50	3
2136.5292	1	10	268.6	268.6	1	50	4
2137.7292	1	10	220.7	220.7	1	50	5
2138.8624	1	10	271.4	271.4	1	50	6
2175.705	1	81	n/a	n/a	1	0	0
2175.905	1	81	n/a	n/a	1	0	0
2176.105	1	81	n/a	n/a	1	0	0
2176.305	1	81	n/a	n/a	1	0	0
2176.505	1	81	n/a	n/a	1	0	0
2176.705	1	81	n/a	n/a	1	0	0
2176.905	1	81	n/a	n/a	1	0	0
2177.105	1	81	n/a	n/a	1	0	0
2177.305	1	81	n/a	n/a	1	0	0
2177.505	1	81	n/a	n/a	1	0	0
2178.8934	1	10	255.5	255.5	1	51	1
2180.1934	1	21	267.5	267.5	1	51	0
2181.4932	1	10	231.6	231.6	1	51	1
2182.6098	1	10	331	331	1	51	2
2183.8598	1	10	329	329	1	51	3
2184.993	1	10	331.7	331.7	1	51	4
2186.243	1	10	313.7	313.7	1	51	5
2187.4928	1	10	311.8	311.8	1	51	6
2188.7762	1	10	356.5	356.5	1	51	7
2190.0594	1	21	-99	-99	1	51	0
2191.3426	1	10	238	238	1	51	1
2192.476	1	10	336.6	336.6	1	51	2
2193.5926	1	10	260	260	1	51	3
2194.7092	1	21	-99	-99	1	51	0
2195.7424	1	10	222.1	222.1	1	51	1
2196.8256	1	10	322.8	322.8	1	51	2
2198.0422	1	10	322.2	322.2	1	51	3
2199.2588	1	21	-99	-99	1	51	0
2200.4922	1	10	240.2	240.2	1	51	1
2201.642	1	10	226.3	226.3	1	51	2
2202.5564	1	81	n/a	n/a	1	0	0
2202.7564	1	81	n/a	n/a	1	0	0
2202.9564	1	81	n/a	n/a	1	0	0
2203.1564	1	81	n/a	n/a	1	0	0
2203.3564	1	81	n/a	n/a	1	0	0
2203.5564	1	81	n/a	n/a	1	0	0
2203.7564	1	81	n/a	n/a	1	0	0
2203.9564	1	81	n/a	n/a	1	0	0
2204.1564	1	81	n/a	n/a	1	0	0
2204.3564	1	81	n/a	n/a	1	0	0
2205.5752	1	10	325.1	325.1	1	51	1
2206.8584	1	10	289.8	289.8	1	51	2
2208.175	1	10	253.2	253.2	1	51	3
2209.325	1	10	255.3	255.3	1	51	4
2210.6248	1	10	235.3	235.3	1	51	5
2211.9248	1	21	-99	-99	1	51	0
2213.2248	1	10	259.4	259.4	1	51	1
2214.5246	1	21	-99	-99	1	51	0
2215.7412	1	10	238.8	238.8	1	51	1
2216.9912	1	10	-99	-99	1	51	2
2218.1078	1	10	272.2	272.2	1	51	3
2219.4076	1	10	252.3	252.3	1	51	4
2220.4742	1	10	289.7	289.7	1	51	5
2221.5408	1	21	1287	1287	1	51	0
2222.8574	1	10	-99	-99	1	51	1
2224.0574	1	10	290.4	290.4	1	51	2
2225.224	1	10	227.8	227.8	1	51	3
2226.4572	1	10	290.5	290.5	1	51	4
2227.6738	1	10	321.9	321.9	1	51	5
2228.9238	1	10	320	320	1	51	6
2229.8252	1	81	n/a	n/a	1	0	0
2230.0252	1	81	n/a	n/a	1	0	0
2230.2252	1	81	n/a	n/a	1	0	0
2230.4252	1	81	n/a	n/a	1	0	0
2230.6252	1	81	n/a	n/a	1	0	0
2230.8252	1	81	n/a	n/a	1	0	0
2231.0252	1	81	n/a	n/a	1	0	0
2231.2252	1	81	n/a	n/a	1	0	0
2231.4252	1	81	n/a	n/a	1	0	0
2231.6252	1	81	n/a	n/a	1	0	0
2232.9902	1	10	317.4	317.4	1	51	1
2234.0902	1	10	273.5	273.5	1	51	2
2235.24	1	10	259.6	259.6	1	51	3
2236.4066	1	10	244.9	244.9	1	51	4
2237.4732	1	10	282.2	282.2	1	51	5
2238.5398	1	10	255.6	255.6	1	51	6
2239.7732	1	10	302.4	302.4	1	51	7
2241.0064	1	21	-99	-99	1	51	0
2242.323	1	10	264.5	264.5	1	51	1
2243.6396	1	21	-99	-99	1	51	0
2244.8396	1	10	275.9	275.9	1	51	1
2245.9894	1	10	309.9	309.9	1	51	2
2247.156	1	10	439.3	439.3	1	51	3
2248.3226	1	21	-99	-99	1	51	0
2249.5726	1	10	278.7	278.7	1	51	1
2250.8224	1	21	-99	-99	1	51	0
2251.8558	1	10	299.5	299.5	1	51	1
2253.039	1	10	284.2	284.2	1	51	2
2254.1056	1	10	-99	-99	1	51	3
2255.1722	1	21	-99	-99	1	51	0
2256.0608	1	81	n/a	n/a	1	0	0
2256.2608	1	81	n/a	n/a	1	0	0
2256.4608	1	81	n/a	n/a	1	0	0
2256.6608	1	81	n/a	n/a	1	0	0
2256.8608	1	81	n/a	n/a	1	0	0
2257.061	1	81	n/a	n/a	1	0	0
2257.261	1	81	n/a	n/a	1	0	0
2257.461	1	81	n/a	n/a	1	0	0
2257.6608	1	81	n/a	n/a	1	0	0
2257.861	1	81	n/a	n/a	1	0	0
2259.0554	1	10	395.7	395.7	1	51	1
2260.322	1	10	249.1	249.1	1	51	2
2261.4718	1	10	235.2	235.2	1	51	3
2262.5384	1	10	272.5	272.5	1	51	4
2263.6384	1	10	292.5	292.5	1	51	5
2264.755	1	10	375.9	375.9	1	51	6
2265.805	1	10	254	254	1	51	7
2266.8548	1	21	-99	-99	1	51	0
2268.1214	1	10	273.4	273.4	1	51	1
2269.388	1	21	270.7	270.7	1	51	0
2270.638	1	10	252.8	252.8	1	51	1
2271.8546	1	10	268.2	268.2	1	51	2
2273.0546	1	10	300.3	300.3	1	51	3
2274.2878	1	10	380.7	380.7	1	51	4
2275.4544	1	10	316.3	316.3	1	51	5
2276.571	1	10	-99	-99	1	51	6
2277.6376	1	10	-99	-99	1	51	7
2278.7042	1	21	-99	-99	1	51	0
2280.0208	1	10	261.8	261.8	1	51	1
2281.304	1	10	258.5	258.5	1	51	2
2282.1944	1	81	n/a	n/a	1	0	0
2282.3944	1	81	n/a	n/a	1	0	0
2282.5944	1	81	n/a	n/a	1	0	0
2282.7944	1	81	n/a	n/a	1	0	0
2282.9944	1	81	n/a	n/a	1	0	0
2283.1944	1	81	n/a	n/a	1	0	0
2283.3944	1	81	n/a	n/a	1	0	0
2283.5944	1	81	n/a	n/a	1	0	0
2283.7944	1	81	n/a	n/a	1	0	0
2283.9944	1	81	n/a	n/a	1	0	0
2285.3372	1	10	337.4	337.4	1	51	1
2286.6538	1	10	364.8	364.8	1	51	2
2287.9036	1	10	250.7	250.7	1	51	3
2288.987	1	10	303.4	303.4	1	51	4
2290.1202	1	10	274.2	274.2	1	51	5
2291.2534	1	21	-99	-99	1	51	0
2292.2868	1	10	251.6	251.6	1	51	1
2293.37	1	10	304.3	304.3	1	51	2
2294.67	1	10	236.3	236.3	1	51	3
2295.8366	1	10	269.7	269.7	1	51	4
2297.1532	1	10	281.1	281.1	1	51	5
2298.2864	1	10	363.8	363.8	1	51	6
2299.6196	1	10	376.4	376.4	1	51	7
2300.9028	1	21	-99	-99	1	51	0
2302.0362	1	10	229.9	229.9	1	51	1
2303.1694	1	21	-99	-99	1	51	0
2304.4694	1	10	68.7	68.7	1	51	1
2305.586	1	10	232.1	232.1	1	51	2
2306.6858	1	10	284.1	284.1	1	51	3
2307.7858	1	21	-99	-99	1	51	0
