onset	duration	value	response	rt	good	TMS	delta	fixed	seq
60.5124	1	81	n/a	n/a	1	0	0	0	0
60.7124	1	81	n/a	n/a	1	0	0	0	0
60.9124	1	81	n/a	n/a	1	0	0	0	0
61.1124	1	81	n/a	n/a	1	0	0	0	0
61.3124	1	81	n/a	n/a	1	0	0	0	0
61.5126	1	81	n/a	n/a	1	0	0.1	0	0
61.7126	1	81	n/a	n/a	1	0	0	0	0
61.9126	1	81	n/a	n/a	1	0	0	0	0
62.1126	1	81	n/a	n/a	1	0	0	0	0
62.3126	1	81	n/a	n/a	1	0	0	0	0
63.6546	1	10	351.2	351.2	1	51	0	0	1
64.6878	1	10	261.8	261.8	1	51	-0.1	0	2
66.0044	1	10	273.2	273.2	1	51	0	0	3
67.1878	1	10	258	258	1	51	0.2	0	4
68.4876	1	10	253.9	253.9	1	51	-0.2	0	5
69.5376	1	10	244	244	1	51	0.1	0	6
70.6708	1	10	198.7	198.7	1	51	-0.1	0	7
71.804	1	21	233.5	233.5	1	51	0	0	0
73.1374	1	10	277.9	277.9	1	51	17.9	0	1
74.204	1	10	345.5	345.5	1	51	-17.8	0	2
75.2706	1	10	254.9	254.9	1	51	0	0	3
76.3372	1	21	228.2	228.2	1	51	-1.4552e-11	0	0
77.4538	1	10	279.6	279.6	1	51	0	0	1
78.5704	1	21	251	251	1	51	0	0	0
79.737	1	10	236.4	236.4	1	51	0	0	1
80.8036	1	10	241.7	241.7	1	51	1.4552e-11	0	2
82.1368	1	10	316.5	316.5	1	51	0	0	3
83.2368	1	10	368.5	368.5	1	51	0	0	4
84.3034	1	10	277.8	277.8	1	51	-1.4552e-11	0	5
85.5532	1	10	307.9	307.9	1	51	-0.1	0	6
86.3428	1	81	n/a	n/a	1	0	0.1	0	0
86.5428	1	81	n/a	n/a	1	0	0	0	0
86.7428	1	81	n/a	n/a	1	0	0	0	0
86.9428	1	81	n/a	n/a	1	0	0	0	0
87.1428	1	81	n/a	n/a	1	0	0	0	0
87.3428	1	81	n/a	n/a	1	0	0	0	0
87.5428	1	81	n/a	n/a	1	0	0	0	0
87.7428	1	81	n/a	n/a	1	0	0	0	0
87.9428	1	81	n/a	n/a	1	0	0	0	0
88.1428	1	81	n/a	n/a	1	0	0	0	0
89.3864	1	10	394.7	394.7	1	51	-1.4552e-11	0	1
90.6864	1	10	310.8	310.8	1	51	0.1	0	2
91.7196	1	10	285.5	285.5	1	51	-0.1	0	3
92.8196	1	10	321.5	321.5	1	51	0.1	0	4
93.9694	1	10	243.6	243.6	1	51	-0.1	0	5
95.086	1	10	311	311	1	51	0	0	6
96.1526	1	10	284.4	284.4	1	51	1.4552e-11	0	7
97.2192	1	21	225.7	225.7	1	51	-1.4552e-11	0	0
98.5358	1	10	237.1	237.1	1	51	0	0	1
99.8524	1	21	-99	-99	1	51	0	0	0
101.1524	1	10	324.5	324.5	1	51	0.1	0	1
102.419	1	10	369.9	369.9	1	51	1.4552e-11	0	2
103.5022	1	10	310.6	310.6	1	51	-0.1	0	3
104.8022	1	10	290.7	290.7	1	51	0.1	0	4
105.8854	1	10	247.3	247.3	1	51	-0.1	0	5
106.9686	1	21	-99	-99	1	51	1.4552e-11	0	0
108.2352	1	10	313.5	313.5	1	51	-1.4552e-11	0	1
109.5352	1	10	245.4	245.4	1	51	0	0	2
110.8352	1	10	241.5	241.5	1	51	0.1	0	3
112.0516	1	10	288.9	288.9	1	51	-0.2	0	4
112.9782	1	81	n/a	n/a	1	0	0.2	0	0
113.1782	1	81	n/a	n/a	1	0	0	0	0
113.3782	1	81	n/a	n/a	1	0	0	0	0
113.5782	1	81	n/a	n/a	1	0	0	0	0
113.7782	1	81	n/a	n/a	1	0	0	0	0
113.9782	1	81	n/a	n/a	1	0	-0.1	0	0
114.1782	1	81	n/a	n/a	1	0	0	0	0
114.3782	1	81	n/a	n/a	1	0	0	0	0
114.5782	1	81	n/a	n/a	1	0	0	0	0
114.7782	1	81	n/a	n/a	1	0	0	0	0
116.0514	1	10	353.1	353.1	1	51	0	0	1
117.0848	1	10	295.8	295.8	1	51	0.1	0	2
118.4014	1	10	211.1	211.1	1	51	-1.4552e-11	0	3
119.7346	1	10	301.9	301.9	1	51	1.4552e-11	0	4
121.0344	1	10	265.9	265.9	1	51	-0.2	0	5
122.3344	1	21	101	101	1	51	0.1	0	0
123.401	1	10	283.3	283.3	1	51	0	0	1
124.551	1	10	-99	-99	1	51	0.1	0	2
125.7008	1	10	239.5	239.5	1	51	-0.1	0	3
126.8508	1	21	-99	-99	1	51	0	0	0
128.1008	1	10	207.5	207.5	1	51	0.1	0	1
129.1506	1	10	533.6	533.6	1	51	-0.1	0	2
130.2506	1	10	313.5	313.5	1	51	0	0	3
131.4506	1	10	361.6	361.6	1	51	0.1	0	4
132.6672	1	10	329	329	1	51	0	0	5
133.817	1	10	315.1	315.1	1	51	-0.1	0	6
134.9836	1	10	220.4	220.4	1	51	0	0	7
136.1502	1	21	-99	-99	1	51	0	0	0
137.3502	1	10	333.8	333.8	1	51	0.1	0	1
138.5168	1	10	527.2	527.2	1	51	-2.9104e-11	0	2
139.3972	1	81	n/a	n/a	1	0	-0.1	0	0
139.5972	1	81	n/a	n/a	1	0	0	0	0
139.7972	1	81	n/a	n/a	1	0	0	0	0
139.9972	1	81	n/a	n/a	1	0	0	0	0
140.1972	1	81	n/a	n/a	1	0	0	0	0
140.3972	1	81	n/a	n/a	1	0	0	0	0
140.5972	1	81	n/a	n/a	1	0	0	0	0
140.7972	1	81	n/a	n/a	1	0	0	0	0
140.9972	1	81	n/a	n/a	1	0	0	0	0
141.1972	1	81	n/a	n/a	1	0	0	0	0
142.4666	1	10	369.3	369.3	1	51	0.1	0	1
143.6498	1	21	-99	-99	1	51	-2.9104e-11	0	0
144.983	1	10	252.8	252.8	1	51	-0.1	0	1
146.083	1	10	384.9	384.9	1	51	0.1	0	2
147.4162	1	10	267.5	267.5	1	51	-0.1	0	3
148.6328	1	10	378.9	378.9	1	51	-2.9104e-11	0	4
149.7662	1	10	333.7	333.7	1	51	0.2	0	5
151.0494	1	10	314.3	314.3	1	51	-0.1	0	6
152.1494	1	10	350.4	350.4	1	51	0.1	0	7
153.2492	1	21	-99	-99	1	51	-0.2	0	0
154.3992	1	10	212.5	212.5	1	51	0.1	0	1
155.5658	1	21	-99	-99	1	51	-2.9104e-11	0	0
156.7656	1	10	245.9	245.9	1	51	-0.1	0	1
157.8824	1	10	425.3	425.3	1	51	0.2	0	2
159.0156	1	10	379.9	379.9	1	51	-0.1	0	3
160.1822	1	10	269.3	269.3	1	51	0	0	4
161.4988	1	10	296.7	296.7	1	51	-2.9104e-11	0	5
162.6986	1	10	312.8	312.8	1	51	-0.1	0	6
163.7652	1	10	494.1	494.1	1	51	0	0	7
164.8318	1	21	-99	-99	1	51	-2.9104e-11	0	0
165.6806	1	81	n/a	n/a	1	0	0.1	0	0
165.8806	1	81	n/a	n/a	1	0	0	0	0
166.0806	1	81	n/a	n/a	1	0	0	0	0
166.2806	1	81	n/a	n/a	1	0	0	0	0
166.4806	1	81	n/a	n/a	1	0	0	0	0
166.6806	1	81	n/a	n/a	1	0	0	0	0
166.8806	1	81	n/a	n/a	1	0	0	0	0
167.0806	1	81	n/a	n/a	1	0	0	0	0
167.2806	1	81	n/a	n/a	1	0	0	0	0
167.4806	1	81	n/a	n/a	1	0	0	0	0
168.7984	1	10	277	277	1	51	0.1	0	1
170.0316	1	21	-99	-99	1	51	-0.1	0	0
171.1316	1	10	263.7	263.7	1	51	0.1	0	1
172.2314	1	21	-99	-99	1	51	-0.1	0	0
173.3314	1	10	255.8	255.8	1	51	0	0	1
174.4314	1	21	1251.8	1251.8	1	51	0.1	0	0
175.748	1	10	-99	-99	1	51	0	0	1
176.8978	1	10	465.3	465.3	1	51	-0.1	0	2
177.9478	1	10	343.3	343.3	1	51	0	0	3
179.1976	1	10	309.3	309.3	1	51	-0.1	0	4
180.4142	1	10	340.7	340.7	1	51	0	0	5
181.6308	1	21	-99	-99	1	51	-2.9104e-11	0	0
182.8808	1	10	530.2	530.2	1	51	0.1	0	1
183.9808	1	10	326.2	326.2	1	51	0.1	0	2
185.014	1	10	444.9	444.9	1	51	-0.1	0	3
186.0806	1	10	274.3	274.3	1	51	0	0	4
187.2138	1	10	277	277	1	51	-0.1	0	5
188.2638	1	10	331	331	1	51	0.1	0	6
189.5304	1	10	280.4	280.4	1	51	0	0	7
190.797	1	21	-99	-99	1	51	0	0	0
227.8618	1	82	n/a	n/a	1	0	0	0	0
228.1018	1	82	n/a	n/a	1	0	0	0	0
228.3848	1	82	n/a	n/a	1	0	0	0	0
228.5578	1	82	n/a	n/a	1	0	0	0	0
228.6218	1	82	n/a	n/a	1	0	0	0	0
228.862	1	82	n/a	n/a	1	0	0.1	0	0
229.099	1	82	n/a	n/a	1	0	0	0	0
229.126	1	82	n/a	n/a	1	0	0	0	0
229.332	1	82	n/a	n/a	1	0	0	0	0
229.613	1	82	n/a	n/a	1	0	0	0	0
231.0446	1	10	365.3	365.3	1	50	0	0	1
232.2612	1	10	268.7	268.7	1	50	0	0	2
233.4444	1	10	237.3	237.3	1	50	-0.1	0	3
234.6278	1	21	-99	-99	1	50	0.2	0	0
235.8444	1	10	269.5	269.5	1	50	2.9104e-11	0	1
237.061	1	21	-99	-99	1	50	0	0	0
238.2608	1	10	252.8	252.8	1	50	-0.2	0	1
239.4608	1	21	-99	-99	1	50	0.1	0	0
240.544	1	10	225.7	225.7	1	50	0	0	1
241.7274	1	10	498.3	498.3	1	50	0.1	0	2
243.0106	1	10	287	287	1	50	-0.1	0	3
244.2272	1	10	286.4	286.4	1	50	0	0	4
245.2938	1	10	323.7	323.7	1	50	0	0	5
246.3604	1	21	-99	-99	1	50	0	0	0
247.627	1	10	246.6	246.6	1	50	0.1	0	1
248.7602	1	10	505.3	505.3	1	50	-0.1	0	2
250.0268	1	10	342.6	342.6	1	50	0	0	3
251.2268	1	10	310.7	310.7	1	50	0.1	0	4
252.4934	1	10	308.1	308.1	1	50	2.9104e-11	0	5
253.6432	1	10	294	294	1	50	-0.2	0	6
254.5108	1	82	n/a	n/a	1	0	0.2	0	0
254.6798	1	82	n/a	n/a	1	0	0	0	0
254.9258	1	82	n/a	n/a	1	0	0	0	0
255.1338	1	82	n/a	n/a	1	0	0	0	0
255.4028	1	82	n/a	n/a	1	0	0	0	0
255.5108	1	82	n/a	n/a	1	0	-0.1	0	0
255.6078	1	82	n/a	n/a	1	0	0	0	0
255.9038	1	82	n/a	n/a	1	0	0	0	0
255.9658	1	82	n/a	n/a	1	0	0	0	0
255.9938	1	82	n/a	n/a	1	0	0	0	0
257.7096	1	10	355.5	355.5	1	50	-0.1	0	1
259.0096	1	21	-99	-99	1	50	0.1	0	0
260.1428	1	10	242.3	242.3	1	50	-0.1	0	1
261.2762	1	21	-99	-99	1	50	0.2	0	0
262.5428	1	10	258.4	258.4	1	50	-2.9104e-11	0	1
263.8426	1	10	334.5	334.5	1	50	-0.1	0	2
265.076	1	10	253.2	253.2	1	50	0.1	0	3
266.3092	1	21	-99	-99	1	50	0	0	0
267.4758	1	10	237.3	237.3	1	50	0	0	1
268.7756	1	10	313.3	313.3	1	50	-0.2	0	2
269.909	1	10	268	268	1	50	0.2	0	3
271.1088	1	10	316	316	1	50	-0.2	0	4
272.4254	1	10	311.5	311.5	1	50	0.1	0	5
273.5588	1	10	250.2	250.2	1	50	0.1	0	6
274.8254	1	10	343.5	343.5	1	50	5.8208e-11	0	7
276.092	1	21	244.9	244.9	1	50	-5.8208e-11	0	0
277.3918	1	10	321	321	1	50	-0.1	0	1
278.5752	1	10	273.6	273.6	1	50	0.1	0	2
279.725	1	10	323.7	323.7	1	50	-0.1	0	3
281.0416	1	10	287.1	287.1	1	50	0	0	4
282.0952	1	82	n/a	n/a	1	0	0.1	0	0
282.1352	1	82	n/a	n/a	1	0	0	0	0
282.2172	1	82	n/a	n/a	1	0	0	0	0
282.5462	1	82	n/a	n/a	1	0	0	0	0
282.9242	1	82	n/a	n/a	1	0	0	0	0
283.0952	1	82	n/a	n/a	1	0	0	0	0
283.1422	1	82	n/a	n/a	1	0	0	0	0
283.3042	1	82	n/a	n/a	1	0	0	0	0
283.4182	1	82	n/a	n/a	1	0	0	0	0
283.8192	1	82	n/a	n/a	1	0	0	0	0
285.1914	1	10	297.3	297.3	1	50	0	0	1
286.408	1	10	216.6	216.6	1	50	-5.8208e-11	0	2
287.708	1	10	324.7	324.7	1	50	0.1	0	3
288.8412	1	10	279.4	279.4	1	50	-0.1	0	4
289.9078	1	10	316.8	316.8	1	50	-5.8208e-11	0	5
290.9744	1	21	-99	-99	1	50	5.8208e-11	0	0
292.091	1	10	229.5	229.5	1	50	-5.8208e-11	0	1
293.291	1	10	309.6	309.6	1	50	0.1	0	2
294.3408	1	10	283.6	283.6	1	50	-0.2	0	3
295.3908	1	21	1105.6	1105.6	1	50	0.1	0	0
296.6408	1	10	-99	-99	1	50	0.1	0	1
297.8574	1	10	463.1	463.1	1	50	0	0	2
298.9906	1	10	-99	-99	1	50	-0.1	0	3
300.1904	1	10	321.8	321.8	1	50	-0.1	0	4
301.3738	1	10	242.5	242.5	1	50	0.1	0	5
302.5904	1	10	305.9	305.9	1	50	5.8208e-11	0	6
303.6902	1	10	309.9	309.9	1	50	-0.1	0	7
304.7902	1	21	-99	-99	1	50	0.1	0	0
306.0734	1	10	262.7	262.7	1	50	-0.1	0	1
307.3568	1	21	-99	-99	1	50	0.1	0	0
308.1774	1	82	n/a	n/a	1	0	-0.1	0	0
308.4304	1	82	n/a	n/a	1	0	0	0	0
308.4744	1	82	n/a	n/a	1	0	0	0	0
308.5444	1	82	n/a	n/a	1	0	0	0	0
308.9774	1	82	n/a	n/a	1	0	0	0	0
309.1774	1	82	n/a	n/a	1	0	0	0	0
309.4264	1	82	n/a	n/a	1	0	0	0	0
309.7604	1	82	n/a	n/a	1	0	0	0	0
309.9884	1	82	n/a	n/a	1	0	0	0	0
310.0914	1	82	n/a	n/a	1	0	0	0	0
311.2232	1	10	296.9	296.9	1	50	0.1	0	1
312.3732	1	21	-99	-99	1	50	0.1	0	0
313.4398	1	10	208.3	208.3	1	50	0	0	1
314.5396	1	10	-99	-99	1	50	-0.1	0	2
315.6896	1	10	278.3	278.3	1	50	0	0	3
316.9396	1	10	-99	-99	1	50	0.1	0	4
318.1394	1	10	228.5	228.5	1	50	-0.1	0	5
319.3394	1	21	-99	-99	1	50	0	0	0
320.6226	1	10	209.2	209.2	1	50	-5.8208e-11	0	1
321.9226	1	10	253.3	253.3	1	50	0.1	0	2
323.2392	1	10	232.7	232.7	1	50	5.8208e-11	0	3
324.3058	1	10	366	366	1	50	0	0	4
325.3724	1	10	339.4	339.4	1	50	0	0	5
326.4222	1	10	249.4	249.4	1	50	-0.2	0	6
327.6888	1	10	262.8	262.8	1	50	0.1	0	7
328.9554	1	21	244.2	244.2	1	50	5.8208e-11	0	0
330.0388	1	10	-99	-99	1	50	0.1	0	1
331.1386	1	10	253	253	1	50	-0.1	0	2
332.2886	1	10	254.9	254.9	1	50	0	0	3
333.3386	1	10	405	405	1	50	0.1	0	4
334.456	1	82	n/a	n/a	1	0	-0.2	0	0
334.707	1	82	n/a	n/a	1	0	0	0	0
334.728	1	82	n/a	n/a	1	0	0	0	0
334.797	1	82	n/a	n/a	1	0	0	0	0
334.931	1	82	n/a	n/a	1	0	0	0	0
335.456	1	82	n/a	n/a	1	0	0	0	0
335.73	1	82	n/a	n/a	1	0	0	0	0
335.795	1	82	n/a	n/a	1	0	0	0	0
335.965	1	82	n/a	n/a	1	0	0	0	0
336.393	1	82	n/a	n/a	1	0	0	0	0
337.405	1	10	274.5	274.5	1	50	0.2	0	1
338.6882	1	10	319.2	319.2	1	50	-0.1	0	2
340.0048	1	10	330.5	330.5	1	50	0	0	3
341.088	1	10	383.3	383.3	1	50	0	0	4
342.2546	1	10	288.7	288.7	1	50	0	0	5
343.4212	1	21	290.1	290.1	1	50	0	0	0
344.5046	1	10	278.7	278.7	1	50	0.1	0	1
345.6212	1	10	314.1	314.1	1	50	5.8208e-11	0	2
346.871	1	10	296.2	296.2	1	50	-0.1	0	3
348.121	1	21	-99	-99	1	50	0.1	0	0
349.2876	1	10	119.6	119.6	1	50	-5.8208e-11	0	1
350.5542	1	10	485	485	1	50	5.8208e-11	0	2
351.5874	1	10	331.7	331.7	1	50	-0.1	0	3
352.8208	1	10	266.3	266.3	1	50	0.1	0	4
353.9872	1	10	347.8	347.8	1	50	-0.1	0	5
355.1038	1	10	287.2	287.2	1	50	0	0	6
356.1538	1	10	357.2	357.2	1	50	0	0	7
357.2038	1	21	155.2	155.2	1	50	0.1	0	0
358.2704	1	10	224.6	224.6	1	50	5.8208e-11	0	1
359.487	1	10	64	64	1	50	0	0	2
384.5812	1	82	n/a	n/a	1	0	-0.1	0	0
384.9362	1	82	n/a	n/a	1	0	0	0	0
385.3132	1	82	n/a	n/a	1	0	0	0	0
385.4182	1	82	n/a	n/a	1	0	0	0	0
385.4752	1	82	n/a	n/a	1	0	0	0	0
385.5812	1	82	n/a	n/a	1	0	0	0	0
385.7262	1	82	n/a	n/a	1	0	0	0	0
386.0592	1	82	n/a	n/a	1	0	0	0	0
386.4242	1	82	n/a	n/a	1	0	0	0	0
386.4952	1	82	n/a	n/a	1	0	0	0	0
387.602	1	10	252.3	252.3	1	52	0.1	0	1
388.652	1	10	258.4	258.4	1	52	0.1	0	2
389.8352	1	10	259	259	1	52	-0.1	0	3
390.8852	1	10	249.1	249.1	1	52	0.1	0	4
392.0684	1	10	281.8	281.8	1	52	-0.1	0	5
393.2516	1	21	218.6	218.6	1	52	-5.8208e-11	0	0
394.335	1	10	255.2	255.2	1	52	0.1	0	1
395.4848	1	10	225.3	225.3	1	52	-0.1	0	2
396.7514	1	10	270.7	270.7	1	52	5.8208e-11	0	3
398.018	1	21	-99	-99	1	52	0	0	0
399.218	1	10	220.1	220.1	1	52	0.1	0	1
400.4178	1	21	236.1	236.1	1	52	-0.2	0	0
401.6678	1	10	298.1	298.1	1	52	0.1	0	1
402.9178	1	10	312.2	312.2	1	52	0.1	0	2
403.9844	1	10	349.6	349.6	1	52	0	0	3
405.1842	1	10	333.7	333.7	1	52	-0.1	0	4
406.4676	1	10	266.3	266.3	1	52	0.1	0	5
407.7508	1	21	-99	-99	1	52	-0.1	0	0
409.0008	1	10	245.1	245.1	1	52	0.1	0	1
410.2506	1	21	-99	-99	1	52	-0.1	0	0
411.1044	1	82	n/a	n/a	1	0	0.1	0	0
411.3374	1	82	n/a	n/a	1	0	0	0	0
411.4444	1	82	n/a	n/a	1	0	0	0	0
411.5974	1	82	n/a	n/a	1	0	0	0	0
411.7274	1	82	n/a	n/a	1	0	0	0	0
412.1044	1	82	n/a	n/a	1	0	0	0	0
412.1584	1	82	n/a	n/a	1	0	0	0	0
412.2754	1	82	n/a	n/a	1	0	0	0	0
412.6264	1	82	n/a	n/a	1	0	0	0	0
413.0354	1	82	n/a	n/a	1	0	0	0	0
414.117	1	10	408.7	408.7	1	52	-0.1	0	1
415.1504	1	10	319.3	319.3	1	52	0.1	0	2
416.2002	1	10	261.4	261.4	1	52	-0.1	0	3
417.2502	1	21	267.4	267.4	1	52	0	0	0
418.5668	1	10	54.7	54.7	1	52	-5.8208e-11	0	1
419.8	1	10	501.5	501.5	1	52	5.8208e-11	0	2
421.1334	1	10	304.2	304.2	1	52	0.1	0	3
422.4666	1	21	-99	-99	1	52	0	0	0
423.7832	1	10	198.3	198.3	1	52	0	0	1
425.033	1	10	324.4	324.4	1	52	-0.1	0	2
426.1996	1	10	277.7	277.7	1	52	-5.8208e-11	0	3
427.3162	1	10	233.1	233.1	1	52	5.8208e-11	0	4
428.5496	1	10	247.8	247.8	1	52	0.1	0	5
429.7662	1	10	199.2	199.2	1	52	0	0	6
431.0328	1	10	324.5	324.5	1	52	0	0	7
432.2994	1	21	225.9	225.9	1	52	0	0	0
433.5326	1	10	208.7	208.7	1	52	0	0	1
434.7658	1	21	-99	-99	1	52	-0.1	0	0
435.9158	1	10	241.4	241.4	1	52	0.1	0	1
437.0658	1	21	-99	-99	1	52	0.1	0	0
438.1714	1	82	n/a	n/a	1	0	-0.2	0	0
438.5584	1	82	n/a	n/a	1	0	0	0	0
438.8134	1	82	n/a	n/a	1	0	0	0	0
438.9834	1	82	n/a	n/a	1	0	0	0	0
439.0734	1	82	n/a	n/a	1	0	0	0	0
439.1714	1	82	n/a	n/a	1	0	0	0	0
439.2194	1	82	n/a	n/a	1	0	0	0	0
439.2954	1	82	n/a	n/a	1	0	0	0	0
439.5194	1	82	n/a	n/a	1	0	0	0	0
439.8474	1	82	n/a	n/a	1	0	0	0	0
441.1822	1	10	302.9	302.9	1	52	0.1	0	1
442.2988	1	10	322.3	322.3	1	52	0	0	2
443.5154	1	10	241.7	241.7	1	52	0.1	0	3
444.732	1	21	257.1	257.1	1	52	-5.8208e-11	0	0
445.9986	1	10	238.5	238.5	1	52	0	0	1
447.1152	1	10	321.8	321.8	1	52	5.8208e-11	0	2
448.415	1	10	285.9	285.9	1	52	-0.1	0	3
449.715	1	21	-99	-99	1	52	0	0	0
451.0148	1	10	230	230	1	52	-0.1	0	1
452.1648	1	10	488	488	1	52	0.1	0	2
453.4648	1	10	244.1	244.1	1	52	0.1	0	3
454.5314	1	10	297.5	297.5	1	52	5.8208e-11	0	4
455.5812	1	10	319.4	319.4	1	52	-0.2	0	5
456.8646	1	10	268.2	268.2	1	52	0.2	0	6
457.9478	1	10	336.9	336.9	1	52	-0.1	0	7
459.031	1	21	-99	-99	1	52	-0.1	0	0
460.331	1	10	257.6	257.6	1	52	0.1	0	1
461.581	1	10	239.7	239.7	1	52	0.1	0	2
462.8976	1	10	235.1	235.1	1	52	0	0	3
464.214	1	10	246.4	246.4	1	52	-0.2	0	4
464.9346	1	82	n/a	n/a	1	0	0.1	0	0
465.0576	1	82	n/a	n/a	1	0	0	0	0
465.4236	1	82	n/a	n/a	1	0	0	0	0
465.4606	1	82	n/a	n/a	1	0	0	0	0
465.5346	1	82	n/a	n/a	1	0	0	0	0
465.9346	1	82	n/a	n/a	1	0	0	0	0
466.2066	1	82	n/a	n/a	1	0	0	0	0
466.2426	1	82	n/a	n/a	1	0	0	0	0
466.4416	1	82	n/a	n/a	1	0	0	0	0
466.8726	1	82	n/a	n/a	1	0	0	0	0
467.9138	1	10	258.5	258.5	1	52	-0.1	0	1
469.1138	1	10	226.6	226.6	1	52	0.1	0	2
470.197	1	10	215.3	215.3	1	52	-0.1	0	3
471.2804	1	21	252.1	252.1	1	52	0.2	0	0
472.4636	1	10	188.7	188.7	1	52	-0.1	0	1
473.6136	1	10	238.8	238.8	1	52	0.1	0	2
474.8634	1	10	348.9	348.9	1	52	-0.1	0	3
476.0134	1	10	302.8	302.8	1	52	0	0	4
477.1966	1	10	351.6	351.6	1	52	0	0	5
478.3966	1	10	319.6	319.6	1	52	0	0	6
479.4298	1	10	310.4	310.4	1	52	0	0	7
480.4632	1	21	-99	-99	1	52	0.1	0	0
481.563	1	10	209.1	209.1	1	52	-0.1	0	1
482.663	1	10	229.1	229.1	1	52	0	0	2
483.713	1	10	235.2	235.2	1	52	0.1	0	3
484.7628	1	21	241.2	241.2	1	52	-0.1	0	0
485.9128	1	10	195.2	195.2	1	52	0	0	1
487.0628	1	21	-99	-99	1	52	0.1	0	0
488.2626	1	10	165.3	165.3	1	52	-0.1	0	1
489.4126	1	10	215.3	215.3	1	52	0	0	2
490.151	1	82	n/a	n/a	1	0	-0.1	0	0
490.284	1	82	n/a	n/a	1	0	0	0	0
490.632	1	82	n/a	n/a	1	0	0	0	0
491.0122	1	82	n/a	n/a	1	0	0.2	0	0
491.057	1	82	n/a	n/a	1	0	-0.2	0	0
491.1512	1	82	n/a	n/a	1	0	0.2	0	0
491.2782	1	82	n/a	n/a	1	0	0	0	0
491.3592	1	82	n/a	n/a	1	0	0	0	0
491.6132	1	82	n/a	n/a	1	0	0	0	0
491.7702	1	82	n/a	n/a	1	0	0	0	0
493.3624	1	10	345.5	345.5	1	52	0	0	1
494.679	1	21	-99	-99	1	52	-5.8208e-11	0	0
495.7788	1	10	249	249	1	52	-0.1	0	1
496.8122	1	10	543.6	543.6	1	52	0.1	0	2
497.8954	1	10	308.3	308.3	1	52	-0.1	0	3
499.0954	1	10	244.4	244.4	1	52	0.1	0	4
500.162	1	10	265.8	265.8	1	52	-5.8208e-11	0	5
501.2952	1	10	236.4	236.4	1	52	-0.1	0	6
502.5784	1	10	409.2	409.2	1	52	0	0	7
503.8618	1	21	-99	-99	1	52	0.1	0	0
505.1784	1	10	241.2	241.2	1	52	5.8208e-11	0	1
506.2282	1	10	263.3	263.3	1	52	-0.1	0	2
507.4448	1	10	166.7	166.7	1	52	0	0	3
508.6614	1	21	-99	-99	1	52	0	0	0
509.9448	1	10	194.8	194.8	1	52	0.2	0	1
511.178	1	10	81.5	81.5	1	52	-0.1	0	2
512.278	1	10	85.6	85.6	1	52	0.1	0	3
513.3778	1	21	153.5	153.5	1	52	-0.2	0	0
514.6112	1	10	120.3	120.3	1	52	0.2	0	1
515.7778	1	10	25.7	25.7	1	52	0	0	2
633.1146	1	82	n/a	n/a	1	0	0	0	0
633.1376	1	82	n/a	n/a	1	0	-250	0	0
633.2696	1	82	n/a	n/a	1	0	109	0	0
633.6606	1	82	n/a	n/a	1	0	259	0	0
633.8416	1	82	n/a	n/a	1	0	-210	0	0
634.1566	1	82	n/a	n/a	1	0	134	0	0
634.3176	1	82	n/a	n/a	1	0	-154	0	0
634.4436	1	82	n/a	n/a	1	0	-35	0	0
634.4646	1	82	n/a	n/a	1	0	-105	0	0
634.9896	1	82	n/a	n/a	1	0	1476	1	0
635.9616	1	10	327.5	327.5	1	52	-21	0	1
636.9948	1	10	270.2	270.2	1	52	-0.1	0	2
638.1782	1	10	319	319	1	52	0.2	0	3
639.278	1	10	243	243	1	52	-0.2	0	4
640.4614	1	10	275.8	275.8	1	52	0.2	0	5
641.5112	1	10	265.7	265.7	1	52	-0.2	0	6
642.7778	1	10	343.1	343.1	1	52	1.1642e-10	0	7
644.0444	1	21	244.5	244.5	1	52	0	0	0
645.311	1	10	225.9	225.9	1	52	0.1	0	1
646.5776	1	10	287.3	287.3	1	52	0	0	2
647.7776	1	10	239.3	239.3	1	52	0	0	3
649.0774	1	10	299.3	299.3	1	52	-0.1	0	4
650.1108	1	10	370	370	1	52	0.1	0	5
651.4274	1	10	301.5	301.5	1	52	0.1	0	6
652.7106	1	10	266.2	266.2	1	52	-0.1	0	7
653.9938	1	21	262.8	262.8	1	52	-0.1	0	0
655.0272	1	10	301.6	301.6	1	52	0.2	0	1
656.0604	1	21	436.3	436.3	1	52	-0.1	0	0
657.3104	1	10	210.3	210.3	1	52	0.1	0	1
658.5602	1	21	-99	-99	1	52	-0.1	0	0
659.291	1	82	n/a	n/a	1	0	1.1642e-10	0	0
659.569	1	82	n/a	n/a	1	0	0	0	0
659.94	1	82	n/a	n/a	1	0	0	0	0
660.059	1	82	n/a	n/a	1	0	0	0	0
660.103	1	82	n/a	n/a	1	0	0	0	0
660.291	1	82	n/a	n/a	1	0	0	0	0
660.539	1	82	n/a	n/a	1	0	0	0	0
660.618	1	82	n/a	n/a	1	0	0	0	0
660.781	1	82	n/a	n/a	1	0	0	0	0
660.912	1	82	n/a	n/a	1	0	0	0	0
662.36	1	10	328.5	328.5	1	52	0	0	1
663.66	1	10	340.6	340.6	1	52	0.1	0	2
664.7432	1	10	297.3	297.3	1	52	-0.1	0	3
665.8264	1	21	-99	-99	1	52	-0.1	0	0
666.9098	1	10	210.7	210.7	1	52	0.2	0	1
667.993	1	21	-99	-99	1	52	-0.1	0	0
669.0762	1	10	172.1	172.1	1	52	-0.1	0	1
670.1596	1	21	-99	-99	1	52	0.2	0	0
671.3928	1	10	159.5	159.5	1	52	-0.1	0	1
672.6094	1	10	462.9	462.9	1	52	0	0	2
673.6926	1	10	307.5	307.5	1	52	-0.1	0	3
674.7426	1	10	297.6	297.6	1	52	0.1	0	4
675.9926	1	10	327.7	327.7	1	52	0.1	0	5
677.2424	1	21	-99	-99	1	52	-0.1	0	0
678.4758	1	10	276.4	276.4	1	52	0.1	0	1
679.609	1	10	231.1	231.1	1	52	-0.1	0	2
680.6422	1	10	301.9	301.9	1	52	-1.1642e-10	0	3
681.6756	1	21	-99	-99	1	52	0.1	0	0
682.8088	1	10	247.2	247.2	1	52	-0.1	0	1
683.8588	1	10	221.3	221.3	1	52	0.1	0	2
684.7424	1	82	n/a	n/a	1	0	0	0	0
684.8034	1	82	n/a	n/a	1	0	0	0	0
685.0914	1	82	n/a	n/a	1	0	0	0	0
685.4714	1	82	n/a	n/a	1	0	0	0	0
685.5584	1	82	n/a	n/a	1	0	0	0	0
685.7424	1	82	n/a	n/a	1	0	-0.1	0	0
685.7754	1	82	n/a	n/a	1	0	0	0	0
686.0974	1	82	n/a	n/a	1	0	0	0	0
686.5304	1	82	n/a	n/a	1	0	0	0	0
686.6564	1	82	n/a	n/a	1	0	0	0	0
687.7252	1	10	242.8	242.8	1	52	0.1	0	1
688.8252	1	10	246.8	246.8	1	52	0	0	2
689.9918	1	10	296.2	296.2	1	52	0	0	3
691.1916	1	10	248.2	248.2	1	52	-0.1	0	4
692.4582	1	10	261.6	261.6	1	52	-1.1642e-10	0	5
693.7582	1	10	305.7	305.7	1	52	0.1	0	6
694.8914	1	10	276.3	276.3	1	52	-0.1	0	7
696.0246	1	21	-99	-99	1	52	0	0	0
697.208	1	10	135.8	135.8	1	52	0.1	0	1
698.4746	1	10	485.1	485.1	1	52	0	0	2
699.7744	1	10	273.2	273.2	1	52	-0.1	0	3
701.0578	1	10	317.9	317.9	1	52	0.1	0	4
702.2576	1	10	318	318	1	52	-0.1	0	5
703.4742	1	10	285.3	285.3	1	52	-1.1642e-10	0	6
704.5408	1	10	226.7	226.7	1	52	1.1642e-10	0	7
705.6074	1	21	216.1	216.1	1	52	0	0	0
706.774	1	10	217.4	217.4	1	52	0	0	1
707.9074	1	10	316.2	316.2	1	52	0.2	0	2
709.0572	1	10	254.2	254.2	1	52	-0.2	0	3
710.2406	1	10	159	159	1	52	0.2	0	4
711.211	1	82	n/a	n/a	1	0	-0.1	0	0
711.239	1	82	n/a	n/a	1	0	0	0	0
711.296	1	82	n/a	n/a	1	0	0	0	0
711.516	1	82	n/a	n/a	1	0	0	0	0
711.8	1	82	n/a	n/a	1	0	0	0	0
712.211	1	82	n/a	n/a	1	0	-0.1	0	0
712.261	1	82	n/a	n/a	1	0	0	0	0
712.593	1	82	n/a	n/a	1	0	0	0	0
712.683	1	82	n/a	n/a	1	0	0	0	0
712.86	1	82	n/a	n/a	1	0	0	0	0
714.1736	1	10	305.8	305.8	1	52	0.1	0	1
715.4068	1	10	208.4	208.4	1	52	-0.1	0	2
716.5068	1	10	308.5	308.5	1	52	0.1	0	3
717.6068	1	10	296.5	296.5	1	52	0	0	4
718.7566	1	10	282.6	282.6	1	52	-0.1	0	5
719.99	1	10	297.3	297.3	1	52	0.2	0	6
721.0732	1	10	318	318	1	52	-0.1	0	7
722.1564	1	21	-99	-99	1	52	-0.1	0	0
723.323	1	10	84	84	1	52	0	0	1
724.4896	1	21	-99	-99	1	52	0	0	0
725.6896	1	10	133.5	133.5	1	52	0.1	0	1
726.9062	1	10	452.9	452.9	1	52	0	0	2
728.1228	1	10	276.2	276.2	1	52	0	0	3
729.4394	1	10	303.6	303.6	1	52	0	0	4
730.656	1	10	271	271	1	52	0	0	5
731.8726	1	21	-99	-99	1	52	0	0	0
732.9892	1	10	225.7	225.7	1	52	0	0	1
734.1224	1	10	340.5	340.5	1	52	0	0	2
735.3724	1	10	274.6	274.6	1	52	0.1	0	3
736.4722	1	10	326.5	326.5	1	52	-0.2	0	4
737.3018	1	82	n/a	n/a	1	0	0.2	0	0
737.4058	1	82	n/a	n/a	1	0	0	0	0
737.6588	1	82	n/a	n/a	1	0	0	0	0
737.8208	1	82	n/a	n/a	1	0	0	0	0
738.2208	1	82	n/a	n/a	1	0	0	0	0
738.3018	1	82	n/a	n/a	1	0	-0.1	0	0
738.5788	1	82	n/a	n/a	1	0	0	0	0
738.6998	1	82	n/a	n/a	1	0	0	0	0
738.7678	1	82	n/a	n/a	1	0	0	0	0
739.1868	1	82	n/a	n/a	1	0	0	0	0
740.322	1	10	300.7	300.7	1	52	0	0	1
741.4554	1	10	239.4	239.4	1	52	0.1	0	2
742.6552	1	10	239.5	239.5	1	52	-0.1	0	3
743.9718	1	10	-99	-99	1	52	0	0	4
745.0718	1	10	206.8	206.8	1	52	0	0	5
746.2884	1	10	334.3	334.3	1	52	0.1	0	6
747.3884	1	10	290.3	290.3	1	52	0	0	7
748.4882	1	21	-99	-99	1	52	-0.1	0	0
749.7548	1	10	179.7	179.7	1	52	0	0	1
750.8048	1	10	361.8	361.8	1	52	0.1	0	2
752.088	1	10	246.4	246.4	1	52	-0.1	0	3
753.3046	1	10	245.8	245.8	1	52	0	0	4
754.5212	1	10	309.2	309.2	1	52	0	0	5
755.8378	1	10	272.6	272.6	1	52	0	0	6
757.0044	1	10	241.9	241.9	1	52	0	0	7
758.171	1	21	-99	-99	1	52	0	0	0
759.421	1	10	113.4	113.4	1	52	0.1	0	1
760.7208	1	10	269.4	269.4	1	52	-0.1	0	2
761.8374	1	10	320.8	320.8	1	52	0	0	3
762.954	1	10	244.2	244.2	1	52	0	0	4
774.0466	1	82	n/a	n/a	1	0	0.2	0	0
774.3086	1	82	n/a	n/a	1	0	0	0	0
774.4826	1	82	n/a	n/a	1	0	0	0	0
774.6276	1	82	n/a	n/a	1	0	0	0	0
774.7456	1	82	n/a	n/a	1	0	0	0	0
775.0466	1	82	n/a	n/a	1	0	-0.1	0	0
775.2846	1	82	n/a	n/a	1	0	0	0	0
775.4226	1	82	n/a	n/a	1	0	0	0	0
775.8366	1	82	n/a	n/a	1	0	0	0	0
775.8856	1	82	n/a	n/a	1	0	0	0	0
777.1366	1	10	269.3	269.3	1	50	0	0	1
778.4532	1	10	248.7	248.7	1	50	0	0	2
779.5864	1	10	283.5	283.5	1	50	0	0	3
780.6696	1	10	384.1	384.1	1	50	-0.1	0	4
781.7362	1	10	293.5	293.5	1	50	0	0	5
782.8028	1	21	-99	-99	1	50	0	0	0
784.1194	1	10	278.3	278.3	1	50	0	0	1
785.436	1	21	225.6	225.6	1	50	0	0	0
786.5194	1	10	454.4	454.4	1	50	0.2	0	1
787.586	1	10	363.8	363.8	1	50	-1.1642e-10	0	2
788.6192	1	10	322.5	322.5	1	50	-0.1	0	3
789.6524	1	21	-99	-99	1	50	-0.1	0	0
790.7524	1	10	269.2	269.2	1	50	0.1	0	1
792.0024	1	10	251.3	251.3	1	50	0.1	0	2
793.0522	1	10	289.3	289.3	1	50	-0.2	0	3
794.2522	1	10	273.3	273.3	1	50	0.1	0	4
795.3354	1	10	310	310	1	50	-0.1	0	5
796.4188	1	21	266.8	266.8	1	50	0.2	0	0
797.5686	1	10	236.7	236.7	1	50	-0.2	0	1
798.7186	1	21	-99	-99	1	50	0.1	0	0
799.6254	1	82	n/a	n/a	1	0	0.1	0	0
799.7414	1	82	n/a	n/a	1	0	0	0	0
799.9194	1	82	n/a	n/a	1	0	0	0	0
800.2454	1	82	n/a	n/a	1	0	0	0	0
800.5944	1	82	n/a	n/a	1	0	0	0	0
800.6254	1	82	n/a	n/a	1	0	-0.1	0	0
800.7904	1	82	n/a	n/a	1	0	0	0	0
801.1594	1	82	n/a	n/a	1	0	0	0	0
801.2104	1	82	n/a	n/a	1	0	0	0	0
801.4894	1	82	n/a	n/a	1	0	0	0	0
802.6018	1	10	275.6	275.6	1	50	0.1	0	1
803.7184	1	10	247	247	1	50	0	0	2
804.9016	1	10	295.7	295.7	1	50	-0.1	0	3
806.1848	1	10	276.4	276.4	1	50	1.1642e-10	0	4
807.2514	1	10	345.8	345.8	1	50	-1.1642e-10	0	5
808.318	1	21	-99	-99	1	50	0	0	0
809.468	1	10	257.2	257.2	1	50	0	0	1
810.618	1	21	-99	-99	1	50	0.1	0	0
811.8346	1	10	258.6	258.6	1	50	0	0	1
813.1178	1	10	351.4	351.4	1	50	1.1642e-10	0	2
814.2676	1	10	369.3	369.3	1	50	-0.2	0	3
815.4176	1	21	-99	-99	1	50	0.1	0	0
816.7008	1	10	112.2	112.2	1	50	1.1642e-10	0	1
817.9842	1	21	-99	-99	1	50	0.1	0	0
819.0174	1	10	291.5	291.5	1	50	-0.1	0	1
820.0506	1	21	-99	-99	1	50	0	0	0
821.3006	1	10	216.3	216.3	1	50	0	0	1
822.4506	1	10	410.3	410.3	1	50	0.1	0	2
823.5672	1	10	285.7	285.7	1	50	0	0	3
824.6838	1	21	273.1	273.1	1	50	1.1642e-10	0	0
825.6834	1	82	n/a	n/a	1	0	0	0	0
825.7984	1	82	n/a	n/a	1	0	0	0	0
826.1394	1	82	n/a	n/a	1	0	0	0	0
826.4034	1	82	n/a	n/a	1	0	0	0	0
826.4424	1	82	n/a	n/a	1	0	0	0	0
826.6834	1	82	n/a	n/a	1	0	0	0	0
826.7104	1	82	n/a	n/a	1	0	0	0	0
826.8354	1	82	n/a	n/a	1	0	0	0	0
826.9034	1	82	n/a	n/a	1	0	0	0	0
827.2804	1	82	n/a	n/a	1	0	0	0	0
828.8334	1	10	299.3	299.3	1	50	-0.1	0	1
829.9668	1	10	350	350	1	50	0.1	0	2
831.1334	1	10	287.3	287.3	1	50	0	0	3
832.25	1	10	306.7	306.7	1	50	-1.1642e-10	0	4
833.3998	1	10	340.8	340.8	1	50	-0.1	0	5
834.5664	1	10	374.1	374.1	1	50	-1.1642e-10	0	6
835.5998	1	10	332.8	332.8	1	50	0.1	0	7
836.633	1	21	-99	-99	1	50	-0.1	0	0
837.9662	1	10	254.2	254.2	1	50	0	0	1
839.0662	1	10	258.2	258.2	1	50	0	0	2
840.1662	1	10	230.3	230.3	1	50	0.1	0	3
841.2494	1	10	283	283	1	50	-0.1	0	4
842.2994	1	10	417.1	417.1	1	50	0.1	0	5
843.3494	1	10	359.1	359.1	1	50	0.1	0	6
844.4826	1	10	313.8	313.8	1	50	-0.1	0	7
845.6158	1	21	-99	-99	1	50	-0.1	0	0
846.8658	1	10	250.5	250.5	1	50	0.1	0	1
848.1156	1	10	248.6	248.6	1	50	-0.1	0	2
849.4156	1	10	212.7	212.7	1	50	0.1	0	3
850.5822	1	10	214.1	214.1	1	50	0	0	4
851.649	1	82	n/a	n/a	1	0	0	0	0
851.912	1	82	n/a	n/a	1	0	0	0	0
852.06	1	82	n/a	n/a	1	0	0	0	0
852.171	1	82	n/a	n/a	1	0	0	0	0
852.411	1	82	n/a	n/a	1	0	0	0	0
852.649	1	82	n/a	n/a	1	0	0	0	0
853.017	1	82	n/a	n/a	1	0	0	0	0
853.196	1	82	n/a	n/a	1	0	0	0	0
853.229	1	82	n/a	n/a	1	0	0	0	0
853.533	1	82	n/a	n/a	1	0	0	0	0
854.8486	1	10	251.5	251.5	1	50	0	0	1
856.0318	1	10	252.2	252.2	1	50	-0.1	0	2
857.1984	1	10	221.6	221.6	1	50	-1.1642e-10	0	3
858.365	1	21	239	239	1	50	0	0	0
859.4316	1	10	244.3	244.3	1	50	0	0	1
860.4982	1	10	313.7	313.7	1	50	0	0	2
861.5816	1	10	222.4	222.4	1	50	0.1	0	3
862.8982	1	10	313.9	313.9	1	50	0.1	0	4
863.948	1	10	303.8	303.8	1	50	-0.2	0	5
864.998	1	21	-99	-99	1	50	0.1	0	0
866.148	1	10	216	216	1	50	0.1	0	1
867.1812	1	10	254.7	254.7	1	50	-0.1	0	2
868.2312	1	10	276.6	276.6	1	50	0	0	3
869.3978	1	10	310.1	310.1	1	50	0.1	0	4
870.7144	1	10	305.5	305.5	1	50	0	0	5
872.031	1	21	220.8	220.8	1	50	0	0	0
873.2976	1	10	250.2	250.2	1	50	-1.1642e-10	0	1
874.4308	1	10	268.9	268.9	1	50	-0.1	0	2
875.4974	1	10	306.2	306.2	1	50	0	0	3
876.564	1	21	-99	-99	1	50	-1.1642e-10	0	0
877.4248	1	82	n/a	n/a	1	0	0.1	0	0
877.4688	1	82	n/a	n/a	1	0	0	0	0
877.5628	1	82	n/a	n/a	1	0	0	0	0
877.9918	1	82	n/a	n/a	1	0	0	0	0
878.1318	1	82	n/a	n/a	1	0	0	0	0
878.4248	1	82	n/a	n/a	1	0	0	0	0
878.5338	1	82	n/a	n/a	1	0	0	0	0
878.7948	1	82	n/a	n/a	1	0	0	0	0
878.9828	1	82	n/a	n/a	1	0	0	0	0
879.2128	1	82	n/a	n/a	1	0	0	0	0
880.4472	1	10	284.4	284.4	1	50	-1.1642e-10	0	1
881.497	1	10	274.5	274.5	1	50	-0.1	0	2
882.747	1	10	384.6	384.6	1	50	0.1	0	3
883.9802	1	10	223.2	223.2	1	50	-0.1	0	4
885.2302	1	10	301.3	301.3	1	50	0.1	0	5
886.48	1	21	-99	-99	1	50	-0.1	0	0
887.5634	1	10	240.1	240.1	1	50	0.1	0	1
888.78	1	10	255.4	255.4	1	50	0	0	2
890.0966	1	10	266.8	266.8	1	50	-1.1642e-10	0	3
891.4132	1	21	230.2	230.2	1	50	0	0	0
892.563	1	10	248.2	248.2	1	50	-0.1	0	1
893.8464	1	10	308.9	308.9	1	50	0.1	0	2
895.113	1	10	258.3	258.3	1	50	0	0	3
896.3628	1	10	304.3	304.3	1	50	-0.1	0	4
897.4462	1	10	357.1	357.1	1	50	0.2	0	5
898.5294	1	21	-99	-99	1	50	-0.1	0	0
899.796	1	10	101	101	1	50	0	0	1
901.0626	1	21	228.5	228.5	1	50	-1.1642e-10	0	0
902.1124	1	10	378.6	378.6	1	50	-0.1	0	1
903.429	1	10	278	278	1	50	-1.1642e-10	0	2
918.212	1	81	n/a	n/a	1	0	0.1	0	0
918.412	1	81	n/a	n/a	1	0	0	0	0
918.612	1	81	n/a	n/a	1	0	0	0	0
918.812	1	81	n/a	n/a	1	0	0	0	0
919.012	1	81	n/a	n/a	1	0	0	0	0
919.212	1	81	n/a	n/a	1	0	0	0	0
919.412	1	81	n/a	n/a	1	0	0	0	0
919.612	1	81	n/a	n/a	1	0	0	0	0
919.812	1	81	n/a	n/a	1	0	0	0	0
920.012	1	81	n/a	n/a	1	0	0	0	0
921.1614	1	10	289.2	289.2	1	51	-1.1642e-10	0	1
922.478	1	10	220.6	220.6	1	51	1.1642e-10	0	2
923.7112	1	10	219.4	219.4	1	51	0	0	3
924.8278	1	10	238.8	238.8	1	51	0	0	4
926.1278	1	10	106.8	106.8	1	51	0.1	0	5
927.411	1	10	215.5	215.5	1	51	-0.1	0	6
928.6442	1	10	150.2	150.2	1	51	-0.1	0	7
929.8776	1	21	-99	-99	1	51	0.2	0	0
930.9442	1	10	266.3	266.3	1	51	-1.1642e-10	0	1
932.0274	1	10	303	303	1	51	-0.1	0	2
933.1606	1	10	257.6	257.6	1	51	-0.1	0	3
934.2606	1	10	325.7	325.7	1	51	0.1	0	4
935.4606	1	10	325.8	325.8	1	51	0.1	0	5
936.5604	1	10	409.9	409.9	1	51	-0.1	0	6
937.6938	1	10	316.5	316.5	1	51	0.1	0	7
938.827	1	21	-99	-99	1	51	-0.1	0	0
939.9602	1	10	226	226	1	51	0	0	1
941.0936	1	21	-99	-99	1	51	0.1	0	0
942.3768	1	10	209.3	209.3	1	51	-0.1	0	1
943.66	1	21	-99	-99	1	51	0	0	0
944.6388	1	81	n/a	n/a	1	0	0.1	0	0
944.8388	1	81	n/a	n/a	1	0	0	0	0
945.0388	1	81	n/a	n/a	1	0	0	0	0
945.2388	1	81	n/a	n/a	1	0	0	0	0
945.4388	1	81	n/a	n/a	1	0	0	0	0
945.6388	1	81	n/a	n/a	1	0	0	0	0
945.8388	1	81	n/a	n/a	1	0	0	0	0
946.0388	1	81	n/a	n/a	1	0	0	0	0
946.2388	1	81	n/a	n/a	1	0	0	0	0
946.4388	1	81	n/a	n/a	1	0	0	0	0
947.6932	1	10	284.9	284.9	1	51	-2.3283e-10	0	1
948.8598	1	21	-99	-99	1	51	2.3283e-10	0	0
950.1096	1	10	220.3	220.3	1	51	-0.1	0	1
951.3596	1	21	-99	-99	1	51	0.1	0	0
952.6596	1	10	230.4	230.4	1	51	0	0	1
953.9428	1	10	531.1	531.1	1	51	1.1642e-10	0	2
955.1426	1	10	291.2	291.2	1	51	-0.1	0	3
956.276	1	10	245.9	245.9	1	51	0.1	0	4
957.4258	1	10	232	232	1	51	-0.1	0	5
958.5758	1	10	281.9	281.9	1	51	0	0	6
959.859	1	10	310.7	310.7	1	51	0	0	7
961.1424	1	21	-99	-99	1	51	0.1	0	0
962.3256	1	10	228	228	1	51	-0.1	0	1
963.4922	1	10	-99	-99	1	51	0.1	0	2
964.6422	1	10	279.5	279.5	1	51	0	0	3
965.6754	1	10	238.2	238.2	1	51	1.1642e-10	0	4
966.742	1	10	259.6	259.6	1	51	-1.1642e-10	0	5
967.992	1	10	225.6	225.6	1	51	0	0	6
969.2586	1	10	399	399	1	51	1.1642e-10	0	7
970.5252	1	21	-99	-99	1	51	-1.1642e-10	0	0
971.6158	1	81	n/a	n/a	1	0	2.3283e-10	0	0
971.8158	1	81	n/a	n/a	1	0	0	0	0
972.0158	1	81	n/a	n/a	1	0	0	0	0
972.2158	1	81	n/a	n/a	1	0	0	0	0
972.4158	1	81	n/a	n/a	1	0	0	0	0
972.6158	1	81	n/a	n/a	1	0	0	0	0
972.8158	1	81	n/a	n/a	1	0	0	0	0
973.0158	1	81	n/a	n/a	1	0	0	0	0
973.2158	1	81	n/a	n/a	1	0	0	0	0
973.4158	1	81	n/a	n/a	1	0	0	0	0
974.8082	1	10	305.2	305.2	1	51	-2.3283e-10	0	1
975.8748	1	10	166.6	166.6	1	51	2.3283e-10	0	2
977.1914	1	10	242	242	1	51	-1.1642e-10	0	3
978.4414	1	10	272	272	1	51	0.1	0	4
979.6412	1	10	272	272	1	51	-0.2	0	5
980.7078	1	10	309.4	309.4	1	51	0	0	6
981.9912	1	10	18.2	18.2	1	51	0.2	0	7
983.2744	1	21	190.8	190.8	1	51	-0.1	0	0
984.5242	1	10	636.9	636.9	1	51	-0.1	0	1
985.7408	1	10	204.3	204.3	1	51	0	0	2
986.8574	1	10	271.6	271.6	1	51	-1.1642e-10	0	3
987.974	1	21	-99	-99	1	51	1.1642e-10	0	0
989.174	1	10	211.1	211.1	1	51	0.1	0	1
990.4906	1	10	270.5	270.5	1	51	1.1642e-10	0	2
991.7906	1	10	202.5	202.5	1	51	0.1	0	3
992.8904	1	10	190.5	190.5	1	51	-0.2	0	4
994.0404	1	10	144.6	144.6	1	51	0.1	0	5
995.1904	1	21	178.6	178.6	1	51	0.1	0	0
996.4402	1	10	96.7	96.7	1	51	-0.1	0	1
997.4902	1	10	246.7	246.7	1	51	0	0	2
998.3216	1	81	n/a	n/a	1	0	1.1642e-10	0	0
998.5216	1	81	n/a	n/a	1	0	0	0	0
998.7216	1	81	n/a	n/a	1	0	0	0	0
998.9216	1	81	n/a	n/a	1	0	0	0	0
999.1216	1	81	n/a	n/a	1	0	0	0	0
999.3216	1	81	n/a	n/a	1	0	-0.1	0	0
999.5216	1	81	n/a	n/a	1	0	0	0	0
999.7216	1	81	n/a	n/a	1	0	0	0	0
999.9216	1	81	n/a	n/a	1	0	0	0	0
1000.1216	1	81	n/a	n/a	1	0	0	0	0
1001.34	1	10	236.8	236.8	1	51	0.1	0	1
1002.5566	1	10	220.3	220.3	1	51	0.1	0	2
1003.8232	1	10	313.6	313.6	1	51	1.1642e-10	0	3
1004.873	1	10	351.6	351.6	1	51	-0.2	0	4
1005.9564	1	10	260.4	260.4	1	51	0.2	0	5
1007.0396	1	10	265.1	265.1	1	51	-0.1	0	6
1008.2562	1	10	312.5	312.5	1	51	0.1	0	7
1009.4728	1	21	-99	-99	1	51	-0.1	0	0
1010.7394	1	10	213.2	213.2	1	51	-1.1642e-10	0	1
1011.9726	1	10	179.9	179.9	1	51	0	0	2
1013.156	1	10	228.6	228.6	1	51	0.1	0	3
1014.3392	1	21	69.3	69.3	1	51	-0.1	0	0
1015.4058	1	10	298.7	298.7	1	51	2.3283e-10	0	1
1016.4724	1	21	-99	-99	1	51	-1.1642e-10	0	0
1017.7556	1	10	252.8	252.8	1	51	0	0	1
1018.9722	1	10	284.1	284.1	1	51	-1.1642e-10	0	2
1020.1556	1	10	236.8	236.8	1	51	0.1	0	3
1021.3388	1	21	157.6	157.6	1	51	1.1642e-10	0	0
1022.6554	1	10	153	153	1	51	1.1642e-10	0	1
1023.972	1	21	244.3	244.3	1	51	-1.1642e-10	0	0
1025.0214	1	81	n/a	n/a	1	0	-0.1	0	0
1025.2214	1	81	n/a	n/a	1	0	0	0	0
1025.4214	1	81	n/a	n/a	1	0	0	0	0
1025.6214	1	81	n/a	n/a	1	0	0	0	0
1025.8214	1	81	n/a	n/a	1	0	0	0	0
1026.0214	1	81	n/a	n/a	1	0	0	0	0
1026.2214	1	81	n/a	n/a	1	0	0	0	0
1026.4214	1	81	n/a	n/a	1	0	0	0	0
1026.6214	1	81	n/a	n/a	1	0	0	0	0
1026.8214	1	81	n/a	n/a	1	0	0	0	0
1028.0884	1	10	303.8	303.8	1	51	0.1	0	1
1029.2716	1	21	-99	-99	1	51	17.7	0	0
1030.3882	1	10	259.9	259.9	1	51	-17.8	0	1
1031.5382	1	21	-99	-99	1	51	0.1	0	0
1032.7382	1	10	198	198	1	51	0.1	0	1
1033.838	1	10	522	522	1	51	-0.2	0	2
1035.0214	1	10	330.8	330.8	1	51	0.2	0	3
1036.2212	1	10	378.7	378.7	1	51	-0.2	0	4
1037.4546	1	10	313.5	313.5	1	51	0.2	0	5
1038.771	1	10	308.9	308.9	1	51	-0.2	0	6
1040.0376	1	10	338.3	338.3	1	51	1.1642e-10	0	7
1041.3042	1	21	-99	-99	1	51	-1.1642e-10	0	0
1042.5208	1	10	239	239	1	51	2.3283e-10	0	1
1043.7708	1	10	269	269	1	51	0.1	0	2
1044.8208	1	10	387	387	1	51	0	0	3
1045.8706	1	21	249.1	249.1	1	51	-0.1	0	0
1047.104	1	10	71.9	71.9	1	51	0.2	0	1
1048.2538	1	10	265.9	265.9	1	51	-0.2	0	2
1049.4872	1	10	554.3	554.3	1	51	17.9	0	3
1050.5704	1	10	285.3	285.3	1	51	-17.8	0	4
1120.7206	1	82	n/a	n/a	1	0	0	0	0
1120.8486	1	82	n/a	n/a	1	0	0	0	0
1121.0776	1	82	n/a	n/a	1	0	0	0	0
1121.1276	1	82	n/a	n/a	1	0	0	0	0
1121.3946	1	82	n/a	n/a	1	0	0	0	0
1121.7208	1	82	n/a	n/a	1	0	0.2	0	0
1122.0108	1	82	n/a	n/a	1	0	0	0	0
1122.1188	1	82	n/a	n/a	1	0	0	0	0
1122.4458	1	82	n/a	n/a	1	0	0	0	0
1122.5158	1	82	n/a	n/a	1	0	0	0	0
1123.916	1	10	265.9	265.9	1	52	-0.2	0	1
1125.0326	1	10	253.3	253.3	1	52	0	0	2
1126.2492	1	10	220.7	220.7	1	52	0	0	3
1127.4658	1	21	-99	-99	1	52	0.1	0	0
1128.5324	1	10	289.5	289.5	1	52	-2.3283e-10	0	1
1129.599	1	21	214.8	214.8	1	52	-0.1	0	0
1130.9156	1	10	-99	-99	1	52	0.1	0	1
1132.2322	1	21	29.6	29.6	1	52	-2.3283e-10	0	0
1133.4988	1	10	27	27	1	52	2.3283e-10	0	1
1134.6488	1	10	429	429	1	52	0.1	0	2
1135.8988	1	10	267	267	1	52	0	0	3
1137.1152	1	10	282.4	282.4	1	52	-0.2	0	4
1138.3652	1	10	312.5	312.5	1	52	0.1	0	5
1139.6152	1	21	-99	-99	1	52	0.1	0	0
1140.7318	1	10	281.9	281.9	1	52	0	0	1
1141.9316	1	10	314	314	1	52	-0.1	0	2
1143.2316	1	10	229.9	229.9	1	52	0	0	3
1144.5482	1	10	513.4	513.4	1	52	0.1	0	4
1145.6148	1	10	326.8	326.8	1	52	0	0	5
1146.8814	1	10	516.2	516.2	1	52	0	0	6
1147.9948	1	82	n/a	n/a	1	0	-0.1	0	0
1148.3638	1	82	n/a	n/a	1	0	0	0	0
1148.6938	1	82	n/a	n/a	1	0	0	0	0
1148.7658	1	82	n/a	n/a	1	0	0	0	0
1148.7968	1	82	n/a	n/a	1	0	0	0	0
1148.9948	1	82	n/a	n/a	1	0	0	0	0
1149.2388	1	82	n/a	n/a	1	0	0	0	0
1149.3668	1	82	n/a	n/a	1	0	0	0	0
1149.7458	1	82	n/a	n/a	1	0	0	0	0
1149.8968	1	82	n/a	n/a	1	0	0	0	0
1150.9312	1	10	306.3	306.3	1	52	0.1	0	1
1151.981	1	21	-99	-99	1	52	-0.1	0	0
1153.181	1	10	216.3	216.3	1	52	0	0	1
1154.3142	1	10	347.1	347.1	1	52	0	0	2
1155.5808	1	10	232.4	232.4	1	52	2.3283e-10	0	3
1156.7142	1	10	235.1	235.1	1	52	0.1	0	4
1157.9808	1	10	296.5	296.5	1	52	0	0	5
1159.064	1	10	285.3	285.3	1	52	0	0	6
1160.0972	1	10	275.9	275.9	1	52	-0.1	0	7
1161.1306	1	21	-99	-99	1	52	0.1	0	0
1162.1638	1	10	209.4	209.4	1	52	0	0	1
1163.2804	1	10	36.8	36.8	1	52	0	0	2
1164.597	1	10	-99	-99	1	52	0	0	3
1165.847	1	10	222.1	222.1	1	52	0	0	4
1167.0136	1	10	175.6	175.6	1	52	0.1	0	5
1168.1802	1	21	208.9	208.9	1	52	-2.3283e-10	0	0
1169.48	1	10	236.9	236.9	1	52	-0.2	0	1
1170.78	1	21	233	233	1	52	0.1	0	0
1171.88	1	10	301	301	1	52	0.1	0	1
1172.9466	1	10	386.4	386.4	1	52	0	0	2
1173.798	1	82	n/a	n/a	1	0	-0.1	0	0
1173.971	1	82	n/a	n/a	1	0	0	0	0
1174.261	1	82	n/a	n/a	1	0	0	0	0
1174.396	1	82	n/a	n/a	1	0	0	0	0
1174.762	1	82	n/a	n/a	1	0	0	0	0
1174.798	1	82	n/a	n/a	1	0	0	0	0
1175.078	1	82	n/a	n/a	1	0	0	0	0
1175.099	1	82	n/a	n/a	1	0	0	0	0
1175.196	1	82	n/a	n/a	1	0	0	0	0
1175.262	1	82	n/a	n/a	1	0	0	0	0
1176.863	1	10	309.8	309.8	1	52	0	0	1
1178.0296	1	21	295.2	295.2	1	52	0	0	0
1179.0962	1	10	204.6	204.6	1	52	0	0	1
1180.2794	1	10	253.3	253.3	1	52	0	0	2
1181.546	1	10	250.7	250.7	1	52	0	0	3
1182.746	1	10	314.8	314.8	1	52	0.1	0	4
1183.8626	1	10	350.2	350.2	1	52	0	0	5
1184.9792	1	21	-99	-99	1	52	-2.3283e-10	0	0
1186.1624	1	10	146.2	146.2	1	52	-0.1	0	1
1187.3624	1	21	-99	-99	1	52	0.1	0	0
1188.679	1	10	221.6	221.6	1	52	2.3283e-10	0	1
1189.8456	1	10	527	527	1	52	0	0	2
1190.9954	1	10	321.1	321.1	1	52	-0.1	0	3
1192.1788	1	10	273.8	273.8	1	52	0.1	0	4
1193.4954	1	10	269.1	269.1	1	52	-2.3283e-10	0	5
1194.5452	1	10	339.2	339.2	1	52	-0.1	0	6
1195.7286	1	10	243.9	243.9	1	52	0.1	0	7
1196.9118	1	21	212.6	212.6	1	52	0	0	0
1198.1784	1	10	98	98	1	52	-2.3283e-10	0	1
1199.4282	1	10	144.1	144.1	1	52	-0.1	0	2
1200.1978	1	82	n/a	n/a	1	0	0	0	0
1200.3088	1	82	n/a	n/a	1	0	0	0	0
1200.5948	1	82	n/a	n/a	1	0	0	0	0
1200.8258	1	82	n/a	n/a	1	0	0	0	0
1201.0908	1	82	n/a	n/a	1	0	0	0	0
1201.1978	1	82	n/a	n/a	1	0	0	0	0
1201.2768	1	82	n/a	n/a	1	0	0	0	0
1201.4188	1	82	n/a	n/a	1	0	0	0	0
1201.6698	1	82	n/a	n/a	1	0	0	0	0
1202.0788	1	82	n/a	n/a	1	0	0	0	0
1203.128	1	10	268.2	268.2	1	52	0	0	1
1204.2946	1	10	269.6	269.6	1	52	0	0	2
1205.578	1	10	234.2	234.2	1	52	0.1	0	3
1206.8946	1	10	213.6	213.6	1	52	0	0	4
1208.0612	1	10	231	231	1	52	-2.3283e-10	0	5
1209.2278	1	21	232.3	232.3	1	52	2.3283e-10	0	0
1210.511	1	10	197.1	197.1	1	52	0	0	1
1211.7942	1	10	225.8	225.8	1	52	-0.1	0	2
1213.1108	1	10	61.2	61.2	1	52	0	0	3
1214.4274	1	21	-99	-99	1	52	0.1	0	0
1215.4606	1	10	287.3	287.3	1	52	-0.1	0	1
1216.744	1	10	283.9	283.9	1	52	0.1	0	2
1217.9606	1	10	203.3	203.3	1	52	0	0	3
1219.1104	1	10	269.4	269.4	1	52	-0.1	0	4
1220.2604	1	10	271.5	271.5	1	52	0.1	0	5
1221.4104	1	21	-99	-99	1	52	0	0	0
1222.4936	1	10	246.2	246.2	1	52	2.3283e-10	0	1
1223.5936	1	21	-99	-99	1	52	0	0	0
1224.8602	1	10	71.7	71.7	1	52	0.1	0	1
1226.1768	1	10	339	339	1	52	0	0	2
1227.0902	1	82	n/a	n/a	1	0	-0.2	0	0
1227.1872	1	82	n/a	n/a	1	0	0	0	0
1227.5942	1	82	n/a	n/a	1	0	0	0	0
1227.6352	1	82	n/a	n/a	1	0	0	0	0
1227.9212	1	82	n/a	n/a	1	0	0	0	0
1228.0902	1	82	n/a	n/a	1	0	0	0	0
1228.2432	1	82	n/a	n/a	1	0	0	0	0
1228.4662	1	82	n/a	n/a	1	0	0	0	0
1228.8432	1	82	n/a	n/a	1	0	0	0	0
1228.8732	1	82	n/a	n/a	1	0	0	0	0
1230.2432	1	10	272.4	272.4	1	52	0.1	0	1
1231.4764	1	10	367.2	367.2	1	52	0	0	2
1232.7764	1	10	315.3	315.3	1	52	0.1	0	3
1234.0762	1	21	-99	-99	1	52	-0.2	0	0
1235.2762	1	10	247.3	247.3	1	52	0.1	0	1
1236.4594	1	10	264.1	264.1	1	52	0	0	2
1237.4928	1	10	286.8	286.8	1	52	0.1	0	3
1238.6094	1	10	274.1	274.1	1	52	0	0	4
1239.8926	1	10	302.8	302.8	1	52	-0.1	0	5
1241.1758	1	21	235.6	235.6	1	52	0	0	0
1242.3424	1	10	236.9	236.9	1	52	-2.3283e-10	0	1
1243.509	1	21	254.3	254.3	1	52	2.3283e-10	0	0
1244.7756	1	10	203.7	203.7	1	52	0	0	1
1245.9088	1	10	270.4	270.4	1	52	-0.1	0	2
1247.1254	1	10	397.7	397.7	1	52	0	0	3
1248.392	1	10	315.1	315.1	1	52	0	0	4
1249.6586	1	10	296.6	296.6	1	52	0.1	0	5
1250.9252	1	21	-99	-99	1	52	-2.3283e-10	0	0
1252.0418	1	10	281.3	281.3	1	52	2.3283e-10	0	1
1253.1584	1	21	-99	-99	1	52	-2.3283e-10	0	0
1260.629	1	81	n/a	n/a	1	0	-0.1	0	0
1260.829	1	81	n/a	n/a	1	0	0	0	0
1261.029	1	81	n/a	n/a	1	0	0	0	0
1261.229	1	81	n/a	n/a	1	0	0	0	0
1261.429	1	81	n/a	n/a	1	0	0	0	0
1261.629	1	81	n/a	n/a	1	0	0	0	0
1261.829	1	81	n/a	n/a	1	0	0	0	0
1262.029	1	81	n/a	n/a	1	0	0	0	0
1262.229	1	81	n/a	n/a	1	0	0	0	0
1262.429	1	81	n/a	n/a	1	0	0	0	0
1263.8078	1	10	243	243	1	50	0.1	0	1
1264.9744	1	10	276.4	276.4	1	50	-2.3283e-10	0	2
1266.2076	1	10	259.2	259.2	1	50	2.3283e-10	0	3
1267.441	1	21	-99	-99	1	50	0.1	0	0
1268.5576	1	10	229.2	229.2	1	50	2.3283e-10	0	1
1269.6742	1	21	232.6	232.6	1	50	-2.3283e-10	0	0
1270.7074	1	10	255.2	255.2	1	50	-0.1	0	1
1271.824	1	10	-99	-99	1	50	2.3283e-10	0	2
1273.1406	1	10	222	222	1	50	0	0	3
1274.4406	1	10	234.1	234.1	1	50	0.1	0	4
1275.5072	1	10	303.4	303.4	1	50	-2.3283e-10	0	5
1276.5738	1	21	-99	-99	1	50	0	0	0
1277.6904	1	10	248.2	248.2	1	50	0	0	1
1278.807	1	21	-99	-99	1	50	0	0	0
1280.0568	1	10	137.6	137.6	1	50	-0.1	0	1
1281.3402	1	10	390.3	390.3	1	50	0.1	0	2
1282.5234	1	10	375.1	375.1	1	50	0	0	3
1283.8234	1	10	323.1	323.1	1	50	0.1	0	4
1285.0566	1	10	305.8	305.8	1	50	-0.1	0	5
1286.2898	1	21	-99	-99	1	50	-0.1	0	0
1287.1724	1	81	n/a	n/a	1	0	-2.3283e-10	0	0
1287.3724	1	81	n/a	n/a	1	0	0	0	0
1287.5724	1	81	n/a	n/a	1	0	0	0	0
1287.7724	1	81	n/a	n/a	1	0	0	0	0
1287.9724	1	81	n/a	n/a	1	0	0	0	0
1288.1726	1	81	n/a	n/a	1	0	0.2	0	0
1288.3726	1	81	n/a	n/a	1	0	0	0	0
1288.5726	1	81	n/a	n/a	1	0	0	0	0
1288.7726	1	81	n/a	n/a	1	0	0	0	0
1288.9726	1	81	n/a	n/a	1	0	0	0	0
1290.123	1	10	295.3	295.3	1	50	-0.1	0	1
1291.1728	1	21	-99	-99	1	50	-0.1	0	0
1292.4894	1	10	168.7	168.7	1	50	-2.3283e-10	0	1
1293.806	1	21	-99	-99	1	50	2.3283e-10	0	0
1295.0726	1	10	97.5	97.5	1	50	0	0	1
1296.3558	1	10	318.2	318.2	1	50	0	0	2
1297.6724	1	10	249.6	249.6	1	50	-2.3283e-10	0	3
1298.989	1	21	245	245	1	50	2.3283e-10	0	0
1300.139	1	10	327	327	1	50	0.1	0	1
1301.289	1	21	-99	-99	1	50	0	0	0
1302.4388	1	10	219.1	219.1	1	50	-0.1	0	1
1303.5054	1	10	384.5	384.5	1	50	-2.3283e-10	0	2
1304.7554	1	10	270.5	270.5	1	50	0.1	0	3
1306.0054	1	21	364.6	364.6	1	50	0.1	0	0
1307.222	1	10	156	156	1	50	2.3283e-10	0	1
1308.2552	1	10	322.6	322.6	1	50	-0.1	0	2
1309.3552	1	10	246.7	246.7	1	50	0.1	0	3
1310.655	1	10	2.7	2.7	1	50	-0.2	0	4
1311.8884	1	10	-99	-99	1	50	0.2	0	5
1313.1216	1	21	192.1	192.1	1	50	-0.1	0	0
1314.176	1	81	n/a	n/a	1	0	-2.3283e-10	0	0
1314.376	1	81	n/a	n/a	1	0	0	0	0
1314.576	1	81	n/a	n/a	1	0	0	0	0
1314.776	1	81	n/a	n/a	1	0	0	0	0
1314.976	1	81	n/a	n/a	1	0	0	0	0
1315.176	1	81	n/a	n/a	1	0	0	0	0
1315.376	1	81	n/a	n/a	1	0	0	0	0
1315.576	1	81	n/a	n/a	1	0	0	0	0
1315.776	1	81	n/a	n/a	1	0	0	0	0
1315.976	1	81	n/a	n/a	1	0	0	0	0
1317.2714	1	10	266.3	266.3	1	50	0.1	0	1
1318.4712	1	21	-99	-99	1	50	-0.1	0	0
1319.7546	1	10	215.1	215.1	1	50	0.1	0	1
1321.0712	1	10	258.4	258.4	1	50	0	0	2
1322.171	1	10	358.5	358.5	1	50	-0.1	0	3
1323.271	1	21	-99	-99	1	50	0	0	0
1324.3876	1	10	221.8	221.8	1	50	2.3283e-10	0	1
1325.5042	1	21	-99	-99	1	50	-2.3283e-10	0	0
1326.6542	1	10	195.3	195.3	1	50	0.1	0	1
1327.954	1	10	319.4	319.4	1	50	-0.1	0	2
1329.254	1	10	299.4	299.4	1	50	0.1	0	3
1330.5538	1	21	-99	-99	1	50	-0.1	0	0
1331.7204	1	10	232.9	232.9	1	50	0	0	1
1333.0038	1	10	229.5	229.5	1	50	0.1	0	2
1334.3036	1	10	321.6	321.6	1	50	-0.1	0	3
1335.6036	1	21	-99	-99	1	50	0.1	0	0
1336.7368	1	10	224.4	224.4	1	50	-0.1	0	1
1337.8702	1	21	323	323	1	50	0.1	0	0
1339.1534	1	10	207.8	207.8	1	50	-2.3283e-10	0	1
1340.4366	1	21	-99	-99	1	50	-0.1	0	0
1341.4514	1	81	n/a	n/a	1	0	0.1	0	0
1341.6514	1	81	n/a	n/a	1	0	0	0	0
1341.8514	1	81	n/a	n/a	1	0	0	0	0
1342.0514	1	81	n/a	n/a	1	0	0	0	0
1342.2514	1	81	n/a	n/a	1	0	0	0	0
1342.4514	1	81	n/a	n/a	1	0	0	0	0
1342.6514	1	81	n/a	n/a	1	0	0	0	0
1342.8514	1	81	n/a	n/a	1	0	0	0	0
1343.0514	1	81	n/a	n/a	1	0	0	0	0
1343.2514	1	81	n/a	n/a	1	0	0	0	0
1344.5698	1	10	231.3	231.3	1	50	2.3283e-10	0	1
1345.8364	1	10	404.6	404.6	1	50	-2.3283e-10	0	2
1347.053	1	10	276	276	1	50	2.3283e-10	0	3
1348.3696	1	10	255.5	255.5	1	50	0.1	0	4
1349.4194	1	10	341.4	341.4	1	50	-0.2	0	5
1350.4694	1	21	-99	-99	1	50	0.1	0	0
1351.6694	1	10	203.6	203.6	1	50	0.1	0	1
1352.736	1	10	241	241	1	50	0	0	2
1354.0526	1	10	-99	-99	1	50	2.3283e-10	0	3
1355.369	1	21	-99	-99	1	50	-0.2	0	0
1356.5524	1	10	216.4	216.4	1	50	0.1	0	1
1357.7856	1	10	231.1	231.1	1	50	2.3283e-10	0	2
1359.0688	1	10	179.8	179.8	1	50	-0.1	0	3
1360.1854	1	10	151.2	151.2	1	50	0	0	4
1361.2854	1	10	363.2	363.2	1	50	0.1	0	5
1362.3854	1	21	-99	-99	1	50	0	0	0
1363.4686	1	10	244	244	1	50	2.3283e-10	0	1
1364.5352	1	10	217.4	217.4	1	50	0	0	2
1365.7684	1	10	8.1	8.1	1	50	-0.1	0	3
1366.885	1	10	107.4	107.4	1	50	0	0	4
1367.9966	1	81	n/a	n/a	1	0	0.2	0	0
1368.1966	1	81	n/a	n/a	1	0	0	0	0
1368.3966	1	81	n/a	n/a	1	0	0	0	0
1368.5966	1	81	n/a	n/a	1	0	0	0	0
1368.7966	1	81	n/a	n/a	1	0	0	0	0
1368.9966	1	81	n/a	n/a	1	0	-0.1	0	0
1369.1966	1	81	n/a	n/a	1	0	0	0	0
1369.3966	1	81	n/a	n/a	1	0	0	0	0
1369.5966	1	81	n/a	n/a	1	0	0	0	0
1369.7966	1	81	n/a	n/a	1	0	0	0	0
1371.1348	1	10	257.6	257.6	1	50	0	0	1
1372.3848	1	21	-99	-99	1	50	0.1	0	0
1373.4514	1	10	293	293	1	50	-0.1	0	1
1374.518	1	21	362.3	362.3	1	50	2.3283e-10	0	0
1375.8512	1	10	6.8	6.8	1	50	17.7	0	1
1377.1344	1	10	257.8	257.8	1	50	-17.8	0	2
1378.3844	1	10	303.8	303.8	1	50	0.1	0	3
1379.501	1	10	307.2	307.2	1	50	2.3283e-10	0	4
1380.7342	1	10	338	338	1	50	0	0	5
1381.9342	1	10	210	210	1	50	0	0	6
1383.1342	1	10	290	290	1	50	0.1	0	7
1384.334	1	21	-99	-99	1	50	-0.1	0	0
1385.4674	1	10	132.8	132.8	1	50	0.1	0	1
1386.5506	1	10	265.4	265.4	1	50	-0.1	0	2
1387.6172	1	10	382.8	382.8	1	50	0	0	3
1388.8672	1	10	76.9	76.9	1	50	0.1	0	4
1390.017	1	10	335	335	1	50	-0.1	0	5
1391.0504	1	10	261.6	261.6	1	50	0.1	0	6
1392.1336	1	10	282.3	282.3	1	50	-0.1	0	7
1393.2168	1	21	-99	-99	1	50	0	0	0
1427.0966	1	81	n/a	n/a	1	0	0.1	0	0
1427.2966	1	81	n/a	n/a	1	0	0	0	0
1427.4966	1	81	n/a	n/a	1	0	0	0	0
1427.6966	1	81	n/a	n/a	1	0	0	0	0
1427.8966	1	81	n/a	n/a	1	0	0	0	0
1428.0966	1	81	n/a	n/a	1	0	0	0	0
1428.2966	1	81	n/a	n/a	1	0	0	0	0
1428.4966	1	81	n/a	n/a	1	0	0	0	0
1428.6966	1	81	n/a	n/a	1	0	0	0	0
1428.8966	1	81	n/a	n/a	1	0	0	0	0
1430.1646	1	10	266.4	266.4	1	51	-0.1	0	1
1431.348	1	21	-99	-99	1	51	0.2	0	0
1432.3812	1	10	225.8	225.8	1	51	-0.1	0	1
1433.4644	1	10	374.5	374.5	1	51	-0.1	0	2
1434.5478	1	10	315.2	315.2	1	51	0.1	0	3
1435.8144	1	10	424.6	424.6	1	51	0.1	0	4
1437.0976	1	10	309.3	309.3	1	51	-0.1	0	5
1438.3808	1	21	-99	-99	1	51	-0.1	0	0
1439.4808	1	10	230.1	230.1	1	51	0.1	0	1
1440.514	1	10	236.7	236.7	1	51	-0.1	0	2
1441.6806	1	10	254.1	254.1	1	51	0	0	3
1442.764	1	10	274.9	274.9	1	51	0.2	0	4
1443.8638	1	10	294.8	294.8	1	51	-0.2	0	5
1444.9638	1	21	-99	-99	1	51	0.1	0	0
1446.2304	1	10	120.3	120.3	1	51	-2.3283e-10	0	1
1447.2804	1	10	126.3	126.3	1	51	0.1	0	2
1448.347	1	10	211.7	211.7	1	51	0	0	3
1449.6468	1	10	287.8	287.8	1	51	-0.1	0	4
1450.8968	1	10	253.8	253.8	1	51	0	0	5
1452.1468	1	21	-99	-99	1	51	0.1	0	0
1453.2584	1	81	n/a	n/a	1	0	-0.1	0	0
1453.4584	1	81	n/a	n/a	1	0	0	0	0
1453.6584	1	81	n/a	n/a	1	0	0	0	0
1453.8584	1	81	n/a	n/a	1	0	0	0	0
1454.0584	1	81	n/a	n/a	1	0	0	0	0
1454.2584	1	81	n/a	n/a	1	0	0	0	0
1454.4584	1	81	n/a	n/a	1	0	0	0	0
1454.6584	1	81	n/a	n/a	1	0	0	0	0
1454.8584	1	81	n/a	n/a	1	0	0	0	0
1455.0584	1	81	n/a	n/a	1	0	0	0	0
1456.3798	1	10	274.6	274.6	1	51	2.3283e-10	0	1
1457.713	1	10	221.4	221.4	1	51	-2.3283e-10	0	2
1458.8796	1	10	318.8	318.8	1	51	2.3283e-10	0	3
1460.0462	1	21	-99	-99	1	51	-2.3283e-10	0	0
1461.2628	1	10	111.5	111.5	1	51	2.3283e-10	0	1
1462.4794	1	21	206.9	206.9	1	51	-2.3283e-10	0	0
1463.5294	1	10	421	421	1	51	0.1	0	1
1464.5794	1	21	-99	-99	1	51	0	0	0
1465.8126	1	10	137.7	137.7	1	51	0	0	1
1467.0458	1	21	-99	-99	1	51	-0.1	0	0
1468.2624	1	10	231.8	231.8	1	51	-2.3283e-10	0	1
1469.3124	1	10	-99	-99	1	51	0.1	0	2
1470.4624	1	10	223.8	223.8	1	51	0	0	3
1471.5956	1	10	226.6	226.6	1	51	0	0	4
1472.8456	1	10	288.6	288.6	1	51	0.1	0	5
1473.8954	1	10	278.6	278.6	1	51	-0.2	0	6
1475.0954	1	10	278.7	278.7	1	51	0.1	0	7
1476.2954	1	21	-99	-99	1	51	0.1	0	0
1477.4452	1	10	232.7	232.7	1	51	-0.2	0	1
1478.5952	1	21	234.8	234.8	1	51	0.1	0	0
1479.3986	1	81	n/a	n/a	1	0	-0.1	0	0
1479.5986	1	81	n/a	n/a	1	0	0	0	0
1479.7986	1	81	n/a	n/a	1	0	0	0	0
1479.9986	1	81	n/a	n/a	1	0	0	0	0
1480.1986	1	81	n/a	n/a	1	0	0	0	0
1480.3986	1	81	n/a	n/a	1	0	0	0	0
1480.5986	1	81	n/a	n/a	1	0	0	0	0
1480.7986	1	81	n/a	n/a	1	0	0	0	0
1480.9986	1	81	n/a	n/a	1	0	0	0	0
1481.1986	1	81	n/a	n/a	1	0	0	0	0
1482.5782	1	10	507.6	507.6	1	51	-2.3283e-10	0	1
1483.6616	1	10	272.3	272.3	1	51	0.1	0	2
1484.8614	1	10	240.4	240.4	1	51	-0.1	0	3
1486.0614	1	21	240.4	240.4	1	51	0.1	0	0
1487.1946	1	10	243.1	243.1	1	51	-0.1	0	1
1488.2612	1	10	248.5	248.5	1	51	-2.3283e-10	0	2
1489.4446	1	10	297.2	297.2	1	51	0.2	0	3
1490.6278	1	10	345.9	345.9	1	51	-0.1	0	4
1491.6778	1	10	320	320	1	51	0.1	0	5
1492.711	1	10	374.7	374.7	1	51	-0.1	0	6
1493.7776	1	10	140	140	1	51	0	0	7
1494.8442	1	21	225.4	225.4	1	51	0	0	0
1495.9108	1	10	182.8	182.8	1	51	0	0	1
1496.9774	1	21	252.2	252.2	1	51	0	0	0
1498.294	1	10	-99	-99	1	51	0	0	1
1499.6106	1	21	178.9	178.9	1	51	0	0	0
1500.8106	1	10	211	211	1	51	0.1	0	1
1501.8772	1	10	360.3	360.3	1	51	-2.3283e-10	0	2
1502.9938	1	10	267.7	267.7	1	51	2.3283e-10	0	3
1504.2104	1	10	299.1	299.1	1	51	-2.3283e-10	0	4
1505.1948	1	81	n/a	n/a	1	0	2.3283e-10	0	0
1505.3948	1	81	n/a	n/a	1	0	0	0	0
1505.5948	1	81	n/a	n/a	1	0	0	0	0
1505.7948	1	81	n/a	n/a	1	0	0	0	0
1505.9948	1	81	n/a	n/a	1	0	0	0	0
1506.1948	1	81	n/a	n/a	1	0	-0.1	0	0
1506.3948	1	81	n/a	n/a	1	0	0	0	0
1506.5948	1	81	n/a	n/a	1	0	0	0	0
1506.7948	1	81	n/a	n/a	1	0	0	0	0
1506.9948	1	81	n/a	n/a	1	0	0	0	0
1508.1434	1	10	285.9	285.9	1	51	0	0	1
1509.1768	1	10	292.6	292.6	1	51	0.1	0	2
1510.46	1	10	321.3	321.3	1	51	0	0	3
1511.51	1	10	311.3	311.3	1	51	0	0	4
1512.8264	1	10	290.7	290.7	1	51	-0.2	0	5
1514.0264	1	10	226.7	226.7	1	51	0.1	0	6
1515.1264	1	10	262.8	262.8	1	51	0.1	0	7
1516.2262	1	21	-99	-99	1	51	-0.2	0	0
1517.4096	1	10	219.6	219.6	1	51	0.2	0	1
1518.5928	1	10	188.2	188.2	1	51	-0.1	0	2
1519.776	1	10	77	77	1	51	0	0	3
1521.0094	1	10	27.7	27.7	1	51	0.1	0	4
1522.326	1	10	295	295	1	51	2.3283e-10	0	5
1523.6592	1	21	275.5	275.5	1	51	17.7	0	0
1524.7758	1	10	245.2	245.2	1	51	-17.7	0	1
1525.859	1	10	281.9	281.9	1	51	-0.1	0	2
1526.9756	1	10	461.2	461.2	1	51	0	0	3
1528.1256	1	10	223.3	223.3	1	51	0.1	0	4
1529.2088	1	10	244	244	1	51	-0.1	0	5
1530.2922	1	10	264.6	264.6	1	51	0.1	0	6
1531.1296	1	81	n/a	n/a	1	0	-0.1	0	0
1531.3296	1	81	n/a	n/a	1	0	0	0	0
1531.5296	1	81	n/a	n/a	1	0	0	0	0
1531.7296	1	81	n/a	n/a	1	0	0	0	0
1531.9296	1	81	n/a	n/a	1	0	0	0	0
1532.1296	1	81	n/a	n/a	1	0	0	0	0
1532.3296	1	81	n/a	n/a	1	0	0	0	0
1532.5296	1	81	n/a	n/a	1	0	0	0	0
1532.7296	1	81	n/a	n/a	1	0	0	0	0
1532.9296	1	81	n/a	n/a	1	0	0	0	0
1534.2252	1	10	267.5	267.5	1	51	0	0	1
1535.3252	1	10	271.5	271.5	1	51	0.1	0	2
1536.5084	1	10	272.2	272.2	1	51	-0.1	0	3
1537.6916	1	21	-99	-99	1	51	0	0	0
1538.7582	1	10	246.3	246.3	1	51	0	0	1
1539.7916	1	10	237	237	1	51	0.1	0	2
1540.9748	1	10	109.7	109.7	1	51	-0.1	0	3
1542.0414	1	10	195.1	195.1	1	51	0	0	4
1543.0914	1	10	249.1	249.1	1	51	0.1	0	5
1544.1414	1	21	255.2	255.2	1	51	0.1	0	0
1545.2746	1	10	209.9	209.9	1	51	-0.1	0	1
1546.4078	1	21	164.6	164.6	1	51	-0.1	0	0
1547.4744	1	10	185.9	185.9	1	51	0	0	1
1548.7078	1	10	216.7	216.7	1	51	0.2	0	2
1549.9076	1	10	248.8	248.8	1	51	-0.1	0	3
1551.1076	1	21	-99	-99	1	51	0	0	0
1552.3408	1	10	199.5	199.5	1	51	0	0	1
1553.4574	1	10	106.9	106.9	1	51	-2.3283e-10	0	2
1554.6074	1	10	60.9	60.9	1	51	0	0	3
1555.7557	1	21	30.9	30.9	1	51	351	1	0
1615.7792	1	82	n/a	n/a	1	0	0	0	0
1616.1822	1	82	n/a	n/a	1	0	0	0	0
1616.3072	1	82	n/a	n/a	1	0	0	0	0
1616.3442	1	82	n/a	n/a	1	0	0	0	0
1616.6622	1	82	n/a	n/a	1	0	0	0	0
1616.7792	1	82	n/a	n/a	1	0	0	0	0
1616.8702	1	82	n/a	n/a	1	0	0	0	0
1617.0042	1	82	n/a	n/a	1	0	0	0	0
1617.3022	1	82	n/a	n/a	1	0	0	0	0
1617.6662	1	82	n/a	n/a	1	0	0	0	0
1618.737	1	10	265.9	265.9	1	52	0.1	0	1
1620.0536	1	10	277.3	277.3	1	52	0	0	2
1621.0868	1	10	315.9	315.9	1	52	-0.1	0	3
1622.12	1	21	-99	-99	1	52	0	0	0
1623.2034	1	10	215.4	215.4	1	52	0.1	0	1
1624.3032	1	10	267.5	267.5	1	52	-0.1	0	2
1625.3866	1	10	224.1	224.1	1	52	0.1	0	3
1626.7198	1	10	330.8	330.8	1	52	-0.1	0	4
1627.9198	1	10	314.9	314.9	1	52	0.1	0	5
1629.0364	1	10	286.2	286.2	1	52	-2.3283e-10	0	6
1630.1862	1	10	272.3	272.3	1	52	-0.1	0	7
1631.3362	1	21	242.3	242.3	1	52	0	0	0
1632.5362	1	10	178.4	178.4	1	52	0.1	0	1
1633.686	1	10	196.4	196.4	1	52	-0.1	0	2
1634.9194	1	10	275.1	275.1	1	52	0.1	0	3
1636.036	1	10	294.5	294.5	1	52	2.3283e-10	0	4
1637.0692	1	10	269.3	269.3	1	52	0	0	5
1638.1858	1	10	288.6	288.6	1	52	0	0	6
1639.4858	1	10	300.6	300.6	1	52	0	0	7
1640.7856	1	21	280.7	280.7	1	52	-0.1	0	0
1641.7222	1	82	n/a	n/a	1	0	0.1	0	0
1642.0272	1	82	n/a	n/a	1	0	0	0	0
1642.3662	1	82	n/a	n/a	1	0	0	0	0
1642.4182	1	82	n/a	n/a	1	0	0	0	0
1642.5602	1	82	n/a	n/a	1	0	0	0	0
1642.7222	1	82	n/a	n/a	1	0	0	0	0
1642.8252	1	82	n/a	n/a	1	0	0	0	0
1643.1662	1	82	n/a	n/a	1	0	0	0	0
1643.2962	1	82	n/a	n/a	1	0	0	0	0
1643.6592	1	82	n/a	n/a	1	0	0	0	0
1644.9354	1	10	242.9	242.9	1	52	-2.3283e-10	0	1
1646.252	1	21	1246.2	1246.2	1	52	2.3283e-10	0	0
1647.5352	1	10	-99	-99	1	52	-0.1	0	1
1648.8184	1	21	135.7	135.7	1	52	0	0	0
1649.885	1	10	253	253	1	52	0	0	1
1650.9184	1	10	371.7	371.7	1	52	0.1	0	2
1652.1184	1	10	243.8	243.8	1	52	0.1	0	3
1653.385	1	10	337.2	337.2	1	52	0	0	4
1654.5848	1	10	257.1	257.1	1	52	-0.2	0	5
1655.618	1	10	295.9	295.9	1	52	0	0	6
1656.7346	1	10	315.3	315.3	1	52	2.3283e-10	0	7
1657.8512	1	21	-99	-99	1	52	-2.3283e-10	0	0
1659.0512	1	10	190.7	190.7	1	52	0.1	0	1
1660.2678	1	10	286.1	286.1	1	52	0	0	2
1661.3344	1	10	307.5	307.5	1	52	-2.3283e-10	0	3
1662.401	1	21	-99	-99	1	52	2.3283e-10	0	0
1663.6176	1	10	152.2	152.2	1	52	0	0	1
1664.8342	1	21	231.6	231.6	1	52	0	0	0
1665.9008	1	10	269	269	1	52	0	0	1
1667.034	1	10	303.6	303.6	1	52	-0.1	0	2
1667.8106	1	82	n/a	n/a	1	0	0.1	0	0
1668.2176	1	82	n/a	n/a	1	0	0	0	0
1668.3746	1	82	n/a	n/a	1	0	0	0	0
1668.4186	1	82	n/a	n/a	1	0	0	0	0
1668.5516	1	82	n/a	n/a	1	0	0	0	0
1668.8106	1	82	n/a	n/a	1	0	0	0	0
1669.1556	1	82	n/a	n/a	1	0	0	0	0
1669.1796	1	82	n/a	n/a	1	0	0	0	0
1669.2646	1	82	n/a	n/a	1	0	0	0	0
1669.4276	1	82	n/a	n/a	1	0	0	0	0
1670.8006	1	10	361.1	361.1	1	52	0.1	0	1
1671.9004	1	21	-99	-99	1	52	-0.2	0	0
1673.0504	1	10	207.2	207.2	1	52	0.1	0	1
1674.1836	1	10	385.9	385.9	1	52	-0.1	0	2
1675.3002	1	10	357.2	357.2	1	52	-2.3283e-10	0	3
1676.4168	1	21	-99	-99	1	52	0	0	0
1677.5668	1	10	58.7	58.7	1	52	0.1	0	1
1678.65	1	10	255.3	255.3	1	52	-0.1	0	2
1679.8666	1	10	238.7	238.7	1	52	2.3283e-10	0	3
1681.0832	1	21	-99	-99	1	52	0.1	0	0
1682.1166	1	10	228.9	228.9	1	52	0.1	0	1
1683.4498	1	10	223.5	223.5	1	52	-0.1	0	2
1684.483	1	10	310.3	310.3	1	52	0	0	3
1685.6496	1	10	215.7	215.7	1	52	0	0	4
1686.7162	1	10	301	301	1	52	0	0	5
1687.8328	1	10	304.4	304.4	1	52	0	0	6
1688.9662	1	10	291.1	291.1	1	52	0.1	0	7
1690.0994	1	21	-99	-99	1	52	-0.1	0	0
1691.3326	1	10	196.5	196.5	1	52	2.3283e-10	0	1
1692.566	1	21	-99	-99	1	52	0.1	0	0
1693.6656	1	82	n/a	n/a	1	0	-0.1	0	0
1694.0126	1	82	n/a	n/a	1	0	0	0	0
1694.1186	1	82	n/a	n/a	1	0	0	0	0
1694.3486	1	82	n/a	n/a	1	0	0	0	0
1694.3746	1	82	n/a	n/a	1	0	0	0	0
1694.6664	1	82	n/a	n/a	1	0	-2.3283e-10	0	0
1694.7504	1	82	n/a	n/a	1	0	0	0	0
1695.1634	1	82	n/a	n/a	1	0	0	0	0
1695.1844	1	82	n/a	n/a	1	0	0	0	0
1695.4504	1	82	n/a	n/a	1	0	0	0	0
1696.799	1	10	298	298	1	52	2.3283e-10	0	1
1697.9656	1	10	267.4	267.4	1	52	0	0	2
1699.2822	1	10	374.8	374.8	1	52	0.1	0	3
1700.4154	1	10	313.5	313.5	1	52	-0.1	0	4
1701.682	1	10	342.8	342.8	1	52	2.3283e-10	0	5
1702.9986	1	10	322.3	322.3	1	52	0	0	6
1704.132	1	10	308.9	308.9	1	52	0.1	0	7
1705.2652	1	21	-99	-99	1	52	0	0	0
1706.5152	1	10	181.8	181.8	1	52	0.1	0	1
1707.5984	1	10	250.4	250.4	1	52	-0.1	0	2
1708.6484	1	10	304.5	304.5	1	52	0.1	0	3
1709.8982	1	10	318.5	318.5	1	52	-0.2	0	4
1711.0482	1	10	288.6	288.6	1	52	0.1	0	5
1712.198	1	21	-99	-99	1	52	-0.1	0	0
1713.4814	1	10	223.3	223.3	1	52	0.1	0	1
1714.798	1	10	250.7	250.7	1	52	0	0	2
1716.0478	1	10	216.7	216.7	1	52	-0.1	0	3
1717.2478	1	10	280.8	280.8	1	52	0.1	0	4
1718.331	1	10	333.5	333.5	1	52	-0.1	0	5
1719.6476	1	10	392.8	392.8	1	52	0	0	6
1720.428	1	82	n/a	n/a	1	0	0	0	0
1720.533	1	82	n/a	n/a	1	0	0	0	0
1720.935	1	82	n/a	n/a	1	0	0	0	0
1721.138	1	82	n/a	n/a	1	0	0	0	0
1721.179	1	82	n/a	n/a	1	0	0	0	0
1721.4282	1	82	n/a	n/a	1	0	0.2	0	0
1721.7132	1	82	n/a	n/a	1	0	0	0	0
1721.8232	1	82	n/a	n/a	1	0	0	0	0
1721.8532	1	82	n/a	n/a	1	0	0	0	0
1722.2162	1	82	n/a	n/a	1	0	0	0	0
1723.3808	1	10	259.7	259.7	1	52	-0.1	0	1
1724.514	1	10	246.3	246.3	1	52	-0.1	0	2
1725.564	1	10	284.4	284.4	1	52	0.1	0	3
1726.614	1	21	-99	-99	1	52	0.1	0	0
1727.8972	1	10	143.2	143.2	1	52	-0.1	0	1
1729.0804	1	10	303.9	303.9	1	52	0	0	2
1730.197	1	10	275.3	275.3	1	52	0	0	3
1731.4802	1	10	304	304	1	52	-0.1	0	4
1732.6968	1	10	319.3	319.3	1	52	0	0	5
1733.9134	1	21	238.7	238.7	1	52	-2.3283e-10	0	0
1735.1468	1	10	125.5	125.5	1	52	0.2	0	1
1736.2966	1	10	207.4	207.4	1	52	-0.2	0	2
1737.6132	1	10	10.8	10.8	1	52	0	0	3
1738.8298	1	10	106.2	106.2	1	52	0	0	4
1739.8632	1	10	305	305	1	52	0.2	0	5
1740.8964	1	21	-99	-99	1	52	-0.1	0	0
1742.1296	1	10	230.3	230.3	1	52	-0.1	0	1
1743.313	1	10	263.1	263.1	1	52	0.2	0	2
1744.4796	1	10	280.4	280.4	1	52	0	0	3
1745.7962	1	10	243.8	243.8	1	52	0	0	4
1754.086	1	81	n/a	n/a	1	0	-0.1	0	0
1754.286	1	81	n/a	n/a	1	0	0	0	0
1754.486	1	81	n/a	n/a	1	0	0	0	0
1754.686	1	81	n/a	n/a	1	0	0	0	0
1754.886	1	81	n/a	n/a	1	0	0	0	0
1755.086	1	81	n/a	n/a	1	0	0	0	0
1755.286	1	81	n/a	n/a	1	0	0	0	0
1755.486	1	81	n/a	n/a	1	0	0	0	0
1755.686	1	81	n/a	n/a	1	0	0	0	0
1755.886	1	81	n/a	n/a	1	0	0	0	0
1757.1622	1	10	253.5	253.5	1	50	0.1	0	1
1758.3454	1	21	-99	-99	1	50	0	0	0
1759.5786	1	10	205	205	1	50	-0.1	0	1
1760.812	1	21	-99	-99	1	50	0.1	0	0
1762.0618	1	10	185.7	185.7	1	50	-0.1	0	1
1763.2618	1	10	409.8	409.8	1	50	0.1	0	2
1764.345	1	10	254.5	254.5	1	50	-0.1	0	3
1765.445	1	10	258.5	258.5	1	50	0.1	0	4
1766.6782	1	10	305.2	305.2	1	50	-0.1	0	5
1767.961	1	10	-99	-99	1	50	1283.4	1	6
1769.2448	1	10	-99	-99	1	50	0.1	0	7
1770.528	1	21	231.4	231.4	1	50	0	0	0
1771.7612	1	10	198.1	198.1	1	50	-0.1	0	1
1772.9946	1	21	100.8	100.8	1	50	0.1	0	0
1774.0778	1	10	233.5	233.5	1	50	0	0	1
1775.161	1	10	206.2	206.2	1	50	-0.1	0	2
1776.311	1	10	224.3	224.3	1	50	0.1	0	3
1777.4442	1	10	338.9	338.9	1	50	-0.1	0	4
1778.6108	1	10	340.3	340.3	1	50	2.3283e-10	0	5
1779.7774	1	21	-99	-99	1	50	-2.3283e-10	0	0
1780.6062	1	81	n/a	n/a	1	0	0.1	0	0
1780.8062	1	81	n/a	n/a	1	0	0	0	0
1781.0062	1	81	n/a	n/a	1	0	0	0	0
1781.2062	1	81	n/a	n/a	1	0	0	0	0
1781.4062	1	81	n/a	n/a	1	0	0	0	0
1781.6062	1	81	n/a	n/a	1	0	0	0	0
1781.8062	1	81	n/a	n/a	1	0	0	0	0
1782.0062	1	81	n/a	n/a	1	0	0	0	0
1782.2062	1	81	n/a	n/a	1	0	0	0	0
1782.4062	1	81	n/a	n/a	1	0	0	0	0
1783.6938	1	10	313.2	313.2	1	50	-0.1	0	1
1784.8104	1	10	316.6	316.6	1	50	-2.3283e-10	0	2
1786.077	1	10	25.9	25.9	1	50	0	0	3
1787.3436	1	21	-99	-99	1	50	2.3283e-10	0	0
1788.3936	1	10	285.4	285.4	1	50	0.1	0	1
1789.4436	1	21	1251.3	1251.3	1	50	0	0	0
1790.7602	1	10	-99	-99	1	50	0.1	0	1
1791.9268	1	10	320.2	320.2	1	50	2.3283e-10	0	2
1793.1934	1	10	349.5	349.5	1	50	-2.3283e-10	0	3
1794.36	1	10	334.9	334.9	1	50	2.3283e-10	0	4
1795.4766	1	10	338.3	338.3	1	50	0	0	5
1796.5932	1	21	-99	-99	1	50	-2.3283e-10	0	0
1797.643	1	10	219.7	219.7	1	50	-0.2	0	1
1798.8264	1	10	300.4	300.4	1	50	0.2	0	2
1799.9762	1	10	254.4	254.4	1	50	-0.2	0	3
1801.1262	1	21	288.5	288.5	1	50	0.1	0	0
1802.2928	1	10	225.8	225.8	1	50	0	0	1
1803.4594	1	10	259.2	259.2	1	50	0	0	2
1804.6594	1	10	451.3	451.3	1	50	0.1	0	3
1805.926	1	10	400.7	400.7	1	50	2.3283e-10	0	4
1806.9554	1	81	n/a	n/a	1	0	-2.3283e-10	0	0
1807.1554	1	81	n/a	n/a	1	0	0	0	0
1807.3554	1	81	n/a	n/a	1	0	0	0	0
1807.5554	1	81	n/a	n/a	1	0	0	0	0
1807.7554	1	81	n/a	n/a	1	0	0	0	0
1807.9554	1	81	n/a	n/a	1	0	0	0	0
1808.1554	1	81	n/a	n/a	1	0	0	0	0
1808.3554	1	81	n/a	n/a	1	0	0	0	0
1808.5554	1	81	n/a	n/a	1	0	0	0	0
1808.7554	1	81	n/a	n/a	1	0	0	0	0
1809.909	1	10	257.5	257.5	1	50	-0.1	0	1
1811.1756	1	10	254.8	254.8	1	50	0	0	2
1812.2422	1	10	308.2	308.2	1	50	0	0	3
1813.4422	1	10	228.3	228.3	1	50	0.1	0	4
1814.492	1	10	250.3	250.3	1	50	-0.1	0	5
1815.542	1	21	-99	-99	1	50	0	0	0
1816.692	1	10	194.4	194.4	1	50	0.1	0	1
1817.7918	1	10	246.4	246.4	1	50	-0.2	0	2
1818.8252	1	10	285.1	285.1	1	50	0.2	0	3
1819.8752	1	10	195.1	195.1	1	50	0	0	4
1820.9918	1	10	230.5	230.5	1	50	2.3283e-10	0	5
1822.1084	1	21	185.8	185.8	1	50	-2.3283e-10	0	0
1823.1916	1	10	206.6	206.6	1	50	2.3283e-10	0	1
1824.3582	1	10	208	208	1	50	-2.3283e-10	0	2
1825.4748	1	10	211.4	211.4	1	50	2.3283e-10	0	3
1826.6914	1	10	274.7	274.7	1	50	-2.3283e-10	0	4
1827.9912	1	10	286.8	286.8	1	50	-0.1	0	5
1829.0746	1	10	323.5	323.5	1	50	0.1	0	6
1830.2078	1	10	246.2	246.2	1	50	-0.1	0	7
1831.341	1	21	-99	-99	1	50	0	0	0
1832.4138	1	81	n/a	n/a	1	0	0.1	0	0
1832.6138	1	81	n/a	n/a	1	0	0	0	0
1832.8138	1	81	n/a	n/a	1	0	0	0	0
1833.0138	1	81	n/a	n/a	1	0	0	0	0
1833.2138	1	81	n/a	n/a	1	0	0	0	0
1833.4146	1	81	n/a	n/a	1	0	0	0	0
1833.6146	1	81	n/a	n/a	1	0	0	0	0
1833.8146	1	81	n/a	n/a	1	0	0	0	0
1834.0146	1	81	n/a	n/a	1	0	0	0	0
1834.2146	1	81	n/a	n/a	1	0	0	0	0
1835.4076	1	10	502.3	502.3	1	50	0	0	1
1836.7074	1	10	130.4	130.4	1	50	-0.1	0	2
1837.774	1	10	167.8	167.8	1	50	0	0	3
1838.8406	1	21	205.2	205.2	1	50	0	0	0
1839.924	1	10	193.9	193.9	1	50	0.2	0	1
1841.2572	1	10	-99	-99	1	50	17.6	0	2
1842.3404	1	10	241.3	241.3	1	50	-17.8	0	3
1843.3738	1	10	296	296	1	50	0.2	0	4
1844.6236	1	10	486	486	1	50	-0.2	0	5
1845.8402	1	10	261.4	261.4	1	50	0	0	6
1846.9068	1	10	234.8	234.8	1	50	0	0	7
1847.9734	1	21	-99	-99	1	50	0	0	0
1849.0068	1	10	214.9	214.9	1	50	0.2	0	1
1850.2734	1	10	388.3	388.3	1	50	0	0	2
1851.3066	1	10	298.9	298.9	1	50	-0.1	0	3
1852.5066	1	10	315	315	1	50	0.1	0	4
1853.6898	1	10	299.7	299.7	1	50	-0.1	0	5
1854.9564	1	10	361.1	361.1	1	50	-2.3283e-10	0	6
1856.0564	1	10	317.1	317.1	1	50	0.1	0	7
1857.1562	1	21	-99	-99	1	50	-0.1	0	0
1858.23	1	81	n/a	n/a	1	0	0.1	0	0
1858.43	1	81	n/a	n/a	1	0	0	0	0
1858.63	1	81	n/a	n/a	1	0	0	0	0
1858.83	1	81	n/a	n/a	1	0	0	0	0
1859.03	1	81	n/a	n/a	1	0	0	0	0
1859.23	1	81	n/a	n/a	1	0	0	0	0
1859.43	1	81	n/a	n/a	1	0	0	0	0
1859.63	1	81	n/a	n/a	1	0	0	0	0
1859.83	1	81	n/a	n/a	1	0	0	0	0
1860.03	1	81	n/a	n/a	1	0	0	0	0
1861.306	1	10	235.3	235.3	1	50	-0.1	0	1
1862.3726	1	10	208.7	208.7	1	50	0	0	2
1863.5558	1	10	65.5	65.5	1	50	0	0	3
1864.8558	1	10	-99	-99	1	50	0	0	4
1865.9224	1	10	418.8	418.8	1	50	-2.3283e-10	0	5
1867.1724	1	10	192.9	192.9	1	50	0.1	0	6
1868.2722	1	10	276.9	276.9	1	50	-0.1	0	7
1869.3722	1	21	-99	-99	1	50	0	0	0
1870.6388	1	10	198.3	198.3	1	50	2.3283e-10	0	1
1871.9054	1	21	-99	-99	1	50	0.1	0	0
1873.0886	1	10	244.4	244.4	1	50	-0.1	0	1
1874.272	1	21	-99	-99	1	50	0.1	0	0
1875.3218	1	10	267.2	267.2	1	50	-0.1	0	1
1876.3884	1	10	560.5	560.5	1	50	-2.3283e-10	0	2
1877.5884	1	10	-99	-99	1	50	0.1	0	3
1878.7884	1	21	240.6	240.6	1	50	0	0	0
1879.8382	1	10	278.7	278.7	1	50	-0.1	0	1
1880.9382	1	10	-99	-99	1	50	0.1	0	2
1882.0882	1	10	220.7	220.7	1	50	0	0	3
1883.2048	1	10	256.1	256.1	1	50	0	0	4
1899.4882	1	81	n/a	n/a	1	0	0	0	0
1899.6882	1	81	n/a	n/a	1	0	0	0	0
1899.8882	1	81	n/a	n/a	1	0	0	0	0
1900.0882	1	81	n/a	n/a	1	0	0	0	0
1900.2882	1	81	n/a	n/a	1	0	0	0	0
1900.4882	1	81	n/a	n/a	1	0	0	0	0
1900.6882	1	81	n/a	n/a	1	0	0	0	0
1900.8882	1	81	n/a	n/a	1	0	0	0	0
1901.0882	1	81	n/a	n/a	1	0	0	0	0
1901.2882	1	81	n/a	n/a	1	0	0	0	0
1902.637	1	10	279.5	279.5	1	51	0.1	0	1
1903.8036	1	10	264.9	264.9	1	51	0	0	2
1904.9368	1	10	267.5	267.5	1	51	-0.1	0	3
1906.2366	1	10	311.6	311.6	1	51	-0.1	0	4
1907.3366	1	10	299.7	299.7	1	51	0.1	0	5
1908.4866	1	10	349.6	349.6	1	51	0	0	6
1909.6698	1	10	318.4	318.4	1	51	-2.3283e-10	0	7
1910.853	1	21	-99	-99	1	51	-0.1	0	0
1911.9364	1	10	227.8	227.8	1	51	0.1	0	1
1913.0696	1	10	198.6	198.6	1	51	2.3283e-10	0	2
1914.3696	1	10	226.6	226.6	1	51	0.1	0	3
1915.6694	1	21	62.6	62.6	1	51	-0.2	0	0
1916.9528	1	10	203.4	203.4	1	51	0.2	0	1
1918.0026	1	10	241.3	241.3	1	51	-0.2	0	2
1919.1692	1	10	162.7	162.7	1	51	-2.3283e-10	0	3
1920.4358	1	10	144.2	144.2	1	51	0.1	0	4
1921.5524	1	10	307.5	307.5	1	51	0	0	5
1922.669	1	21	230.9	230.9	1	51	0	0	0
1923.9856	1	10	226.3	226.3	1	51	2.3283e-10	0	1
1925.1856	1	10	226.3	226.3	1	51	0	0	2
1926.167	1	81	n/a	n/a	1	0	-2.3283e-10	0	0
1926.367	1	81	n/a	n/a	1	0	0	0	0
1926.567	1	81	n/a	n/a	1	0	0	0	0
1926.767	1	81	n/a	n/a	1	0	0	0	0
1926.967	1	81	n/a	n/a	1	0	0	0	0
1927.167	1	81	n/a	n/a	1	0	0	0	0
1927.367	1	81	n/a	n/a	1	0	0	0	0
1927.567	1	81	n/a	n/a	1	0	0	0	0
1927.767	1	81	n/a	n/a	1	0	0	0	0
1927.967	1	81	n/a	n/a	1	0	0	0	0
1929.0854	1	10	278.5	278.5	1	51	0.1	0	1
1930.1186	1	21	221.1	221.1	1	51	-0.1	0	0
1931.3352	1	10	12.5	12.5	1	51	-2.3283e-10	0	1
1932.5518	1	21	-99	-99	1	51	0	0	0
1933.7018	1	10	222	222	1	51	0.1	0	1
1935.0016	1	10	282	282	1	51	-0.1	0	2
1936.035	1	10	320.7	320.7	1	51	0.1	0	3
1937.2516	1	10	304.1	304.1	1	51	0	0	4
1938.5348	1	10	236.8	236.8	1	51	0	0	5
1939.818	1	21	233.5	233.5	1	51	-0.1	0	0
1941.1346	1	10	196.9	196.9	1	51	2.3283e-10	0	1
1942.4346	1	10	224.9	224.9	1	51	0.1	0	2
1943.7178	1	10	221.6	221.6	1	51	-0.1	0	3
1945.001	1	21	218.4	218.4	1	51	0	0	0
1946.201	1	10	186.4	186.4	1	51	0.1	0	1
1947.3676	1	10	267.8	267.8	1	51	0	0	2
1948.4508	1	10	368.5	368.5	1	51	-0.1	0	3
1949.6342	1	10	257.2	257.2	1	51	0.1	0	4
1950.8174	1	10	337.9	337.9	1	51	-2.3283e-10	0	5
1951.9174	1	10	325.9	325.9	1	51	0	0	6
1952.7558	1	81	n/a	n/a	1	0	-0.1	0	0
1952.9558	1	81	n/a	n/a	1	0	0	0	0
1953.1558	1	81	n/a	n/a	1	0	0	0	0
1953.3558	1	81	n/a	n/a	1	0	0	0	0
1953.5558	1	81	n/a	n/a	1	0	0	0	0
1953.7558	1	81	n/a	n/a	1	0	0	0	0
1953.9558	1	81	n/a	n/a	1	0	0	0	0
1954.1558	1	81	n/a	n/a	1	0	0	0	0
1954.3558	1	81	n/a	n/a	1	0	0	0	0
1954.5558	1	81	n/a	n/a	1	0	0	0	0
1955.9172	1	10	310.1	310.1	1	51	0.2	0	1
1957.1838	1	21	-99	-99	1	51	2.3283e-10	0	0
1958.2504	1	10	216.9	216.9	1	51	-2.3283e-10	0	1
1959.5502	1	10	-99	-99	1	51	-0.1	0	2
1960.8002	1	10	162.9	162.9	1	51	0	0	3
1961.9	1	10	-99	-99	1	51	-0.1	0	4
1963.15	1	10	213	213	1	51	0.1	0	5
1964.4	1	21	-99	-99	1	51	0	0	0
1965.6332	1	10	129.8	129.8	1	51	2.3283e-10	0	1
1966.9332	1	10	237.8	237.8	1	51	0.1	0	2
1968.2498	1	10	281.2	281.2	1	51	0	0	3
1969.283	1	10	367.9	367.9	1	51	-0.1	0	4
1970.3662	1	10	228.6	228.6	1	51	-0.1	0	5
1971.4162	1	10	282.6	282.6	1	51	0.1	0	6
1972.5328	1	10	318	318	1	51	0	0	7
1973.6494	1	21	-99	-99	1	51	-2.3283e-10	0	0
1974.9494	1	10	237.4	237.4	1	51	0.1	0	1
1976.216	1	10	154.8	154.8	1	51	0	0	2
1977.2492	1	10	241.5	241.5	1	51	-0.1	0	3
1978.3492	1	10	213.6	213.6	1	51	0.1	0	4
1979.3726	1	81	n/a	n/a	1	0	-2.3283e-10	0	0
1979.5726	1	81	n/a	n/a	1	0	0	0	0
1979.7726	1	81	n/a	n/a	1	0	0	0	0
1979.9726	1	81	n/a	n/a	1	0	0	0	0
1980.1726	1	81	n/a	n/a	1	0	0	0	0
1980.3726	1	81	n/a	n/a	1	0	-0.1	0	0
1980.5726	1	81	n/a	n/a	1	0	0	0	0
1980.7726	1	81	n/a	n/a	1	0	0	0	0
1980.9726	1	81	n/a	n/a	1	0	0	0	0
1981.1726	1	81	n/a	n/a	1	0	0	0	0
1982.2988	1	10	279.7	279.7	1	51	-0.1	0	1
1983.3322	1	21	206.4	206.4	1	51	0.2	0	0
1984.632	1	10	-99	-99	1	51	-0.2	0	1
1985.732	1	10	414.5	414.5	1	51	0.1	0	2
1986.9486	1	10	221.9	221.9	1	51	4.6566e-10	0	3
1988.2652	1	10	361.2	361.2	1	51	-2.3283e-10	0	4
1989.4818	1	10	312.6	312.6	1	51	0	0	5
1990.515	1	10	383.4	383.4	1	51	-2.3283e-10	0	6
1991.6316	1	10	306.7	306.7	1	51	4.6566e-10	0	7
1992.7482	1	21	-99	-99	1	51	-2.3283e-10	0	0
1993.7982	1	10	220.1	220.1	1	51	0	0	1
1994.9148	1	10	239.5	239.5	1	51	0	0	2
1996.1814	1	10	28.8	28.8	1	51	-2.3283e-10	0	3
1997.448	1	21	-99	-99	1	51	0.2	0	0
1998.548	1	10	222.3	222.3	1	51	-0.1	0	1
1999.7146	1	10	191.6	191.6	1	51	0	0	2
2000.8478	1	10	274.3	274.3	1	51	-0.1	0	3
2002.0478	1	10	194.4	194.4	1	51	0.1	0	4
2003.131	1	10	327.2	327.2	1	51	-2.3283e-10	0	5
2004.2142	1	21	-99	-99	1	51	-0.1	0	0
2005.235	1	81	n/a	n/a	1	0	0.1	0	0
2005.435	1	81	n/a	n/a	1	0	0	0	0
2005.635	1	81	n/a	n/a	1	0	0	0	0
2005.835	1	81	n/a	n/a	1	0	0	0	0
2006.035	1	81	n/a	n/a	1	0	0	0	0
2006.235	1	81	n/a	n/a	1	0	0	0	0
2006.435	1	81	n/a	n/a	1	0	0	0	0
2006.635	1	81	n/a	n/a	1	0	0	0	0
2006.835	1	81	n/a	n/a	1	0	0	0	0
2007.035	1	81	n/a	n/a	1	0	0	0	0
2008.1974	1	10	252.6	252.6	1	51	0	0	1
2009.4306	1	10	203.3	203.3	1	51	-0.1	0	2
2010.4806	1	10	225.4	225.4	1	51	0.1	0	3
2011.5306	1	21	-99	-99	1	51	0.1	0	0
2012.5804	1	10	237.4	237.4	1	51	-0.2	0	1
2013.6304	1	21	-99	-99	1	51	0.1	0	0
2014.947	1	10	142.9	142.9	1	51	0	0	1
2016.2636	1	10	250.2	250.2	1	51	0	0	2
2017.3302	1	10	287.6	287.6	1	51	2.3283e-10	0	3
2018.5634	1	10	158.4	158.4	1	51	-2.3283e-10	0	4
2019.6968	1	10	241.1	241.1	1	51	0.1	0	5
2020.88	1	10	257.7	257.7	1	51	-0.1	0	6
2021.9966	1	10	293.1	293.1	1	51	0	0	7
2023.1132	1	21	-99	-99	1	51	2.3283e-10	0	0
2024.2298	1	10	171.9	171.9	1	51	0	0	1
2025.4964	1	10	233.2	233.2	1	51	-2.3283e-10	0	2
2026.7462	1	10	167.3	167.3	1	51	-0.1	0	3
2028.0628	1	10	274.7	274.7	1	51	0	0	4
2029.1294	1	10	360	360	1	51	-2.3283e-10	0	5
2030.196	1	21	-99	-99	1	51	0	0	0
