onset	duration	value	response	rt	good	TMS	delta	fixed	seq
146.575	1	81	n/a	n/a	1	0	0	0	0
146.775	1	81	n/a	n/a	1	0	0	0	0
146.975	1	81	n/a	n/a	1	0	0	0	0
147.175	1	81	n/a	n/a	1	0	0	0	0
147.375	1	81	n/a	n/a	1	0	0	0	0
147.575	1	81	n/a	n/a	1	0	0	0	0
147.775	1	81	n/a	n/a	1	0	0	0	0
147.975	1	81	n/a	n/a	1	0	0	0	0
148.175	1	81	n/a	n/a	1	0	0	0	0
148.375	1	81	n/a	n/a	1	0	0	0	0
149.732	1	10	n/a	n/a	1	51	-0.1	0	1
151.0486	1	10	n/a	n/a	1	51	0	0	2
152.1652	1	10	n/a	n/a	1	51	2.9104e-11	0	3
153.2818	1	21	n/a	n/a	1	51	-2.9104e-11	0	0
154.5984	1	10	n/a	n/a	1	51	0	0	1
155.8816	1	10	n/a	n/a	1	51	-0.1	0	2
156.9982	1	10	n/a	n/a	1	51	0	0	3
158.1148	1	10	n/a	n/a	1	51	-2.9104e-11	0	4
159.3148	1	10	n/a	n/a	1	51	0.1	0	5
160.4148	1	10	n/a	n/a	1	51	0	0	6
161.5314	1	10	n/a	n/a	1	51	0	0	7
162.648	1	21	n/a	n/a	1	51	0	0	0
163.9146	1	10	n/a	n/a	1	51	0	0	1
165.1812	1	10	n/a	n/a	1	51	2.9104e-11	0	2
166.431	1	10	n/a	n/a	1	51	-0.1	0	3
167.681	1	10	n/a	n/a	1	51	0.1	0	4
168.9642	1	10	n/a	n/a	1	51	-0.1	0	5
170.2642	1	10	n/a	n/a	1	51	0.1	0	6
171.3308	1	10	n/a	n/a	1	51	-2.9104e-11	0	7
172.3974	1	21	n/a	n/a	1	51	0	0	0
173.2078	1	81	n/a	n/a	1	0	0	0	0
173.4078	1	81	n/a	n/a	1	0	0	0	0
173.6078	1	81	n/a	n/a	1	0	0	0	0
173.8078	1	81	n/a	n/a	1	0	0	0	0
174.0078	1	81	n/a	n/a	1	0	0	0	0
174.2084	1	81	n/a	n/a	1	0	-0.2	0	0
174.4084	1	81	n/a	n/a	1	0	0	0	0
174.6084	1	81	n/a	n/a	1	0	0	0	0
174.8084	1	81	n/a	n/a	1	0	0	0	0
175.0084	1	81	n/a	n/a	1	0	0	0	0
176.1304	1	10	n/a	n/a	1	51	0	0	1
177.447	1	10	n/a	n/a	1	51	2.9104e-11	0	2
178.7136	1	10	n/a	n/a	1	51	0	0	3
179.9802	1	21	n/a	n/a	1	51	0.1	0	0
181.0802	1	10	n/a	n/a	1	51	0	0	1
182.23	1	10	n/a	n/a	1	51	-0.1	0	2
183.38	1	10	n/a	n/a	1	51	0	0	3
184.53	1	21	n/a	n/a	1	51	0.1	0	0
185.6298	1	10	n/a	n/a	1	51	-0.1	0	1
186.7298	1	10	n/a	n/a	1	51	0	0	2
188.0298	1	10	n/a	n/a	1	51	0.1	0	3
189.2964	1	10	n/a	n/a	1	51	0	0	4
190.513	1	10	n/a	n/a	1	51	0	0	5
191.7296	1	21	n/a	n/a	1	51	2.9104e-11	0	0
192.9794	1	10	n/a	n/a	1	51	-0.1	0	1
194.246	1	10	n/a	n/a	1	51	2.9104e-11	0	2
195.5126	1	10	n/a	n/a	1	51	-2.9104e-11	0	3
196.7792	1	21	n/a	n/a	1	51	2.9104e-11	0	0
197.8792	1	10	n/a	n/a	1	51	0	0	1
199.179	1	10	n/a	n/a	1	51	-0.1	0	2
200.1214	1	81	n/a	n/a	1	0	2.9104e-11	0	0
200.3214	1	81	n/a	n/a	1	0	0	0	0
200.5214	1	81	n/a	n/a	1	0	0	0	0
200.7214	1	81	n/a	n/a	1	0	0	0	0
200.9214	1	81	n/a	n/a	1	0	0	0	0
201.1214	1	81	n/a	n/a	1	0	0	0	0
201.3214	1	81	n/a	n/a	1	0	0	0	0
201.5214	1	81	n/a	n/a	1	0	0	0	0
201.7214	1	81	n/a	n/a	1	0	0	0	0
201.9214	1	81	n/a	n/a	1	0	0	0	0
203.0788	1	10	n/a	n/a	1	51	-2.9104e-11	0	1
204.1954	1	10	n/a	n/a	1	51	2.9104e-11	0	2
205.2454	1	10	n/a	n/a	1	51	0.1	0	3
206.362	1	10	n/a	n/a	1	51	2.9104e-11	0	4
207.4786	1	10	n/a	n/a	1	51	-2.9104e-11	0	5
208.5618	1	10	n/a	n/a	1	51	-0.1	0	6
209.8284	1	10	n/a	n/a	1	51	2.9104e-11	0	7
211.095	1	21	n/a	n/a	1	51	-2.9104e-11	0	0
212.295	1	10	n/a	n/a	1	51	0.1	0	1
213.495	1	21	n/a	n/a	1	51	0	0	0
214.8114	1	10	n/a	n/a	1	51	-0.2	0	1
216.128	1	21	n/a	n/a	1	51	0.1	0	0
217.3946	1	10	n/a	n/a	1	51	2.9104e-11	0	1
218.678	1	10	n/a	n/a	1	51	0.1	0	2
219.7278	1	10	n/a	n/a	1	51	-0.2	0	3
221.0612	1	10	n/a	n/a	1	51	0.2	0	4
222.3778	1	10	n/a	n/a	1	51	-2.9104e-11	0	5
223.5944	1	10	n/a	n/a	1	51	0	0	6
224.7276	1	10	n/a	n/a	1	51	-0.1	0	7
225.8608	1	21	n/a	n/a	1	51	-2.9104e-11	0	0
226.6516	1	81	n/a	n/a	1	0	0.1	0	0
226.8516	1	81	n/a	n/a	1	0	0	0	0
227.0516	1	81	n/a	n/a	1	0	0	0	0
227.2516	1	81	n/a	n/a	1	0	0	0	0
227.4514	1	81	n/a	n/a	1	0	-0.2	0	0
227.6524	1	81	n/a	n/a	1	0	0.1	0	0
227.8524	1	81	n/a	n/a	1	0	0	0	0
228.0524	1	81	n/a	n/a	1	0	0	0	0
228.2524	1	81	n/a	n/a	1	0	0	0	0
228.4524	1	81	n/a	n/a	1	0	0	0	0
229.5772	1	10	n/a	n/a	1	51	-0.1	0	1
230.8606	1	10	n/a	n/a	1	51	0.1	0	2
232.1438	1	10	n/a	n/a	1	51	-2.9104e-11	0	3
233.4272	1	21	n/a	n/a	1	51	0.1	0	0
234.5604	1	10	n/a	n/a	1	51	-0.1	0	1
235.7936	1	10	n/a	n/a	1	51	0	0	2
236.9768	1	10	n/a	n/a	1	51	-0.1	0	3
238.2768	1	10	n/a	n/a	1	51	0.1	0	4
239.3434	1	10	n/a	n/a	1	51	2.9104e-11	0	5
240.4934	1	10	n/a	n/a	1	51	0	0	6
241.7932	1	10	n/a	n/a	1	51	-0.1	0	7
243.0932	1	21	n/a	n/a	1	51	0.1	0	0
244.243	1	10	n/a	n/a	1	51	-0.2	0	1
245.3264	1	10	n/a	n/a	1	51	0.2	0	2
246.4596	1	10	n/a	n/a	1	51	-0.1	0	3
247.5762	1	10	n/a	n/a	1	51	0	0	4
248.7262	1	10	n/a	n/a	1	51	0.1	0	5
249.876	1	21	n/a	n/a	1	51	-0.2	0	0
251.0926	1	10	n/a	n/a	1	51	0	0	1
252.3592	1	10	n/a	n/a	1	51	2.9104e-11	0	2
253.307	1	81	n/a	n/a	1	0	0.1	0	0
253.507	1	81	n/a	n/a	1	0	0	0	0
253.707	1	81	n/a	n/a	1	0	0	0	0
253.907	1	81	n/a	n/a	1	0	0	0	0
254.107	1	81	n/a	n/a	1	0	0	0	0
254.3078	1	81	n/a	n/a	1	0	0	0	0
254.5078	1	81	n/a	n/a	1	0	0	0	0
254.7078	1	81	n/a	n/a	1	0	0	0	0
254.9078	1	81	n/a	n/a	1	0	0	0	0
255.1078	1	81	n/a	n/a	1	0	0	0	0
256.309	1	10	n/a	n/a	1	51	-0.1	0	1
257.4256	1	21	n/a	n/a	1	51	0	0	0
258.7256	1	10	n/a	n/a	1	51	0.1	0	1
259.9088	1	10	n/a	n/a	1	51	-0.1	0	2
261.1254	1	10	n/a	n/a	1	51	2.9104e-11	0	3
262.2086	1	10	n/a	n/a	1	51	-2.9104e-11	0	4
263.4752	1	10	n/a	n/a	1	51	5.8208e-11	0	5
264.7418	1	21	n/a	n/a	1	51	-5.8208e-11	0	0
266.0252	1	10	n/a	n/a	1	51	0.1	0	1
267.325	1	10	n/a	n/a	1	51	-0.1	0	2
268.4416	1	10	n/a	n/a	1	51	-5.8208e-11	0	3
269.5582	1	21	n/a	n/a	1	51	5.8208e-11	0	0
270.5916	1	10	n/a	n/a	1	51	0.1	0	1
271.6414	1	10	n/a	n/a	1	51	-0.2	0	2
272.758	1	10	n/a	n/a	1	51	0	0	3
273.8746	1	21	n/a	n/a	1	51	0	0	0
275.0746	1	10	n/a	n/a	1	51	0.1	0	1
276.1746	1	10	n/a	n/a	1	51	0.1	0	2
277.4744	1	10	n/a	n/a	1	51	-0.2	0	3
278.791	1	10	n/a	n/a	1	51	5.8208e-11	0	4
301.1084	1	81	n/a	n/a	1	0	0	0	0
301.3084	1	81	n/a	n/a	1	0	0	0	0
301.5084	1	81	n/a	n/a	1	0	0	0	0
301.7084	1	81	n/a	n/a	1	0	0	0	0
301.9084	1	81	n/a	n/a	1	0	0	0	0
302.1084	1	81	n/a	n/a	1	0	-0.1	0	0
302.3084	1	81	n/a	n/a	1	0	0	0	0
302.5084	1	81	n/a	n/a	1	0	0	0	0
302.7084	1	81	n/a	n/a	1	0	0	0	0
302.9084	1	81	n/a	n/a	1	0	0	0	0
304.2228	1	10	n/a	n/a	1	50	0	0	1
305.4394	1	21	n/a	n/a	1	50	0	0	0
306.6394	1	10	n/a	n/a	1	50	0.1	0	1
307.956	1	10	n/a	n/a	1	50	-5.8208e-11	0	2
309.256	1	10	n/a	n/a	1	50	0.1	0	3
310.3724	1	10	n/a	n/a	1	50	-0.2	0	4
311.639	1	10	n/a	n/a	1	50	0	0	5
312.939	1	10	n/a	n/a	1	50	0	0	6
314.039	1	10	n/a	n/a	1	50	0.1	0	7
315.1388	1	21	n/a	n/a	1	50	-0.1	0	0
316.3888	1	10	n/a	n/a	1	50	0	0	1
317.5054	1	10	n/a	n/a	1	50	0	0	2
318.822	1	10	n/a	n/a	1	50	0	0	3
320.1052	1	10	n/a	n/a	1	50	0	0	4
321.2218	1	10	n/a	n/a	1	50	0	0	5
322.3384	1	21	n/a	n/a	1	50	-0.1	0	0
323.605	1	10	n/a	n/a	1	50	-5.8208e-11	0	1
324.655	1	10	n/a	n/a	1	50	0.1	0	2
325.7216	1	10	n/a	n/a	1	50	-5.8208e-11	0	3
326.8548	1	10	n/a	n/a	1	50	-0.1	0	4
327.6762	1	81	n/a	n/a	1	0	5.8208e-11	0	0
327.8762	1	81	n/a	n/a	1	0	0	0	0
328.0762	1	81	n/a	n/a	1	0	0	0	0
328.2762	1	81	n/a	n/a	1	0	0	0	0
328.4762	1	81	n/a	n/a	1	0	0	0	0
328.6762	1	81	n/a	n/a	1	0	0	0	0
328.8762	1	81	n/a	n/a	1	0	0	0	0
329.0762	1	81	n/a	n/a	1	0	0	0	0
329.2762	1	81	n/a	n/a	1	0	0	0	0
329.4762	1	81	n/a	n/a	1	0	0	0	0
330.6712	1	10	n/a	n/a	1	50	0	0	1
331.7046	1	10	n/a	n/a	1	50	0.1	0	2
332.7712	1	10	n/a	n/a	1	50	5.8208e-11	0	3
333.8378	1	21	n/a	n/a	1	50	0	0	0
334.971	1	10	n/a	n/a	1	50	-0.1	0	1
336.1044	1	21	n/a	n/a	1	50	0.1	0	0
337.321	1	10	n/a	n/a	1	50	0	0	1
338.5542	1	10	n/a	n/a	1	50	0	0	2
339.7208	1	10	n/a	n/a	1	50	0	0	3
340.854	1	10	n/a	n/a	1	50	-0.1	0	4
341.9706	1	10	n/a	n/a	1	50	0	0	5
343.0538	1	10	n/a	n/a	1	50	-0.1	0	6
344.2038	1	10	n/a	n/a	1	50	0.1	0	7
345.3538	1	21	n/a	n/a	1	50	0.1	0	0
346.487	1	10	n/a	n/a	1	50	-0.1	0	1
347.6202	1	10	n/a	n/a	1	50	-0.1	0	2
348.6868	1	10	n/a	n/a	1	50	0	0	3
349.8034	1	10	n/a	n/a	1	50	0	0	4
351.0868	1	10	n/a	n/a	1	50	0.1	0	5
352.37	1	21	n/a	n/a	1	50	0	0	0
353.2324	1	81	n/a	n/a	1	0	-0.1	0	0
353.4324	1	81	n/a	n/a	1	0	0	0	0
353.6324	1	81	n/a	n/a	1	0	0	0	0
353.8324	1	81	n/a	n/a	1	0	0	0	0
354.0324	1	81	n/a	n/a	1	0	0	0	0
354.2332	1	81	n/a	n/a	1	0	0.1	0	0
354.4332	1	81	n/a	n/a	1	0	0	0	0
354.6332	1	81	n/a	n/a	1	0	0	0	0
354.8332	1	81	n/a	n/a	1	0	0	0	0
355.0332	1	81	n/a	n/a	1	0	0	0	0
356.4032	1	10	n/a	n/a	1	50	0.1	0	1
357.6698	1	10	n/a	n/a	1	50	0	0	2
358.7364	1	10	n/a	n/a	1	50	0	0	3
360.0362	1	10	n/a	n/a	1	50	-0.2	0	4
361.2194	1	10	n/a	n/a	1	50	0	0	5
362.4028	1	21	n/a	n/a	1	50	0.1	0	0
363.536	1	10	n/a	n/a	1	50	-0.1	0	1
364.686	1	10	n/a	n/a	1	50	0.1	0	2
365.9858	1	10	n/a	n/a	1	50	-0.1	0	3
367.2524	1	10	n/a	n/a	1	50	0	0	4
368.569	1	10	n/a	n/a	1	50	0	0	5
369.7356	1	10	n/a	n/a	1	50	0	0	6
370.9022	1	10	n/a	n/a	1	50	0	0	7
372.0688	1	21	n/a	n/a	1	50	0	0	0
373.2354	1	10	n/a	n/a	1	50	0	0	1
374.4354	1	10	n/a	n/a	1	50	0	0	2
375.602	1	10	n/a	n/a	1	50	0	0	3
376.8518	1	10	n/a	n/a	1	50	-0.1	0	4
378.0518	1	10	n/a	n/a	1	50	0.1	0	5
379.2538	1	21	n/a	n/a	1	50	770.6	1	0
380.0224	1	81	n/a	n/a	1	0	-0.1	0	0
380.2224	1	81	n/a	n/a	1	0	0	0	0
380.4224	1	81	n/a	n/a	1	0	0	0	0
380.6224	1	81	n/a	n/a	1	0	0	0	0
380.8224	1	81	n/a	n/a	1	0	0	0	0
381.0232	1	81	n/a	n/a	1	0	0	0	0
381.2232	1	81	n/a	n/a	1	0	0	0	0
381.4232	1	81	n/a	n/a	1	0	0	0	0
381.6232	1	81	n/a	n/a	1	0	0	0	0
381.8232	1	81	n/a	n/a	1	0	0	0	0
383.2182	1	10	n/a	n/a	1	50	0.1	0	1
384.5182	1	21	n/a	n/a	1	50	0	0	0
385.668	1	10	n/a	n/a	1	50	-0.1	0	1
386.7846	1	10	n/a	n/a	1	50	-5.8208e-11	0	2
387.9846	1	10	n/a	n/a	1	50	0.1	0	3
389.1678	1	10	n/a	n/a	1	50	-0.1	0	4
390.4178	1	10	n/a	n/a	1	50	0.1	0	5
391.5844	1	10	n/a	n/a	1	50	0	0	6
392.801	1	10	n/a	n/a	1	50	0	0	7
394.0176	1	21	n/a	n/a	1	50	0	0	0
395.2008	1	10	n/a	n/a	1	50	-0.1	0	1
396.4008	1	10	n/a	n/a	1	50	0.1	0	2
397.4506	1	10	n/a	n/a	1	50	-0.2	0	3
398.5006	1	21	n/a	n/a	1	50	0.1	0	0
399.7672	1	10	n/a	n/a	1	50	5.8208e-11	0	1
400.9338	1	10	n/a	n/a	1	50	-5.8208e-11	0	2
401.967	1	10	n/a	n/a	1	50	-0.1	0	3
403.2836	1	10	n/a	n/a	1	50	0	0	4
404.317	1	10	n/a	n/a	1	50	0.1	0	5
405.4502	1	10	n/a	n/a	1	50	0	0	6
406.2476	1	81	n/a	n/a	1	0	-0.1	0	0
406.4476	1	81	n/a	n/a	1	0	0	0	0
406.6476	1	81	n/a	n/a	1	0	0	0	0
406.8476	1	81	n/a	n/a	1	0	0	0	0
407.0476	1	81	n/a	n/a	1	0	0	0	0
407.2476	1	81	n/a	n/a	1	0	0	0	0
407.4476	1	81	n/a	n/a	1	0	0	0	0
407.6476	1	81	n/a	n/a	1	0	0	0	0
407.8476	1	81	n/a	n/a	1	0	0	0	0
408.0476	1	81	n/a	n/a	1	0	0	0	0
409.2834	1	10	n/a	n/a	1	50	0.1	0	1
410.3666	1	10	n/a	n/a	1	50	-5.8208e-11	0	2
411.4998	1	10	n/a	n/a	1	50	-0.1	0	3
412.5332	1	10	n/a	n/a	1	50	0.1	0	4
413.633	1	10	n/a	n/a	1	50	-0.1	0	5
414.733	1	21	n/a	n/a	1	50	0	0	0
415.983	1	10	n/a	n/a	1	50	0.1	0	1
417.1996	1	10	n/a	n/a	1	50	-5.8208e-11	0	2
418.3162	1	10	n/a	n/a	1	50	5.8208e-11	0	3
419.4494	1	10	n/a	n/a	1	50	-0.1	0	4
420.5494	1	10	n/a	n/a	1	50	0.1	0	5
421.5826	1	10	n/a	n/a	1	50	-0.1	0	6
422.8992	1	10	n/a	n/a	1	50	0	0	7
424.2158	1	21	n/a	n/a	1	50	0	0	0
425.2656	1	10	n/a	n/a	1	50	-0.1	0	1
426.5156	1	10	n/a	n/a	1	50	0.1	0	2
427.7822	1	10	n/a	n/a	1	50	0	0	3
429.0488	1	21	n/a	n/a	1	50	0	0	0
430.132	1	10	n/a	n/a	1	50	-0.1	0	1
431.232	1	10	n/a	n/a	1	50	0.1	0	2
467.5594	1	82	n/a	n/a	1	0	-0.1	0	0
467.8344	1	82	n/a	n/a	1	0	0	0	0
467.9094	1	82	n/a	n/a	1	0	0	0	0
468.2304	1	82	n/a	n/a	1	0	0	0	0
468.5264	1	82	n/a	n/a	1	0	0	0	0
468.5594	1	82	n/a	n/a	1	0	0	0	0
468.8104	1	82	n/a	n/a	1	0	0	0	0
468.8694	1	82	n/a	n/a	1	0	0	0	0
469.0244	1	82	n/a	n/a	1	0	0	0	0
469.0574	1	82	n/a	n/a	1	0	0	0	0
470.6296	1	10	n/a	n/a	1	52	-0.2	0	1
471.9462	1	10	n/a	n/a	1	52	5.8208e-11	0	2
473.1628	1	10	n/a	n/a	1	52	0	0	3
474.3794	1	21	n/a	n/a	1	52	0	0	0
475.6794	1	10	n/a	n/a	1	52	0.1	0	1
476.9292	1	10	n/a	n/a	1	52	-0.1	0	2
477.9626	1	10	n/a	n/a	1	52	0.1	0	3
479.1792	1	10	n/a	n/a	1	52	0	0	4
480.3958	1	10	n/a	n/a	1	52	0	0	5
481.529	1	10	n/a	n/a	1	52	-0.1	0	6
482.7456	1	10	n/a	n/a	1	52	-5.8208e-11	0	7
483.9622	1	21	n/a	n/a	1	52	5.8208e-11	0	0
485.1288	1	10	n/a	n/a	1	52	0	0	1
486.2788	1	10	n/a	n/a	1	52	0.1	0	2
487.5286	1	10	n/a	n/a	1	52	-0.1	0	3
488.612	1	10	n/a	n/a	1	52	0.1	0	4
489.8952	1	10	n/a	n/a	1	52	-0.1	0	5
491.1784	1	21	n/a	n/a	1	52	0	0	0
492.4618	1	10	n/a	n/a	1	52	0.1	0	1
493.745	1	21	n/a	n/a	1	52	-0.1	0	0
494.4718	1	82	n/a	n/a	1	0	0.1	0	0
494.6368	1	82	n/a	n/a	1	0	0	0	0
494.7348	1	82	n/a	n/a	1	0	0	0	0
494.8028	1	82	n/a	n/a	1	0	0	0	0
495.2338	1	82	n/a	n/a	1	0	0	0	0
495.4718	1	82	n/a	n/a	1	0	-0.1	0	0
495.7428	1	82	n/a	n/a	1	0	0	0	0
495.8218	1	82	n/a	n/a	1	0	0	0	0
495.9368	1	82	n/a	n/a	1	0	0	0	0
496.2678	1	82	n/a	n/a	1	0	0	0	0
497.578	1	10	n/a	n/a	1	52	-0.1	0	1
498.8614	1	10	n/a	n/a	1	52	0.2	0	2
500.1112	1	10	n/a	n/a	1	52	-0.2	0	3
501.3612	1	21	n/a	n/a	1	52	0.1	0	0
502.5278	1	10	n/a	n/a	1	52	0	0	1
503.711	1	10	n/a	n/a	1	52	-0.1	0	2
504.9444	1	10	n/a	n/a	1	52	0.2	0	3
506.111	1	10	n/a	n/a	1	52	-5.8208e-11	0	4
507.3276	1	10	n/a	n/a	1	52	0	0	5
508.4774	1	10	n/a	n/a	1	52	-0.2	0	6
509.6106	1	10	n/a	n/a	1	52	-5.8208e-11	0	7
510.744	1	21	n/a	n/a	1	52	0.1	0	0
511.9272	1	10	n/a	n/a	1	52	-0.1	0	1
513.0604	1	10	n/a	n/a	1	52	-0.1	0	2
514.177	1	10	n/a	n/a	1	52	0	0	3
515.2936	1	21	n/a	n/a	1	52	0	0	0
516.377	1	10	n/a	n/a	1	52	0.2	0	1
517.4436	1	10	n/a	n/a	1	52	-5.8208e-11	0	2
518.6434	1	10	n/a	n/a	1	52	-0.2	0	3
519.7434	1	10	n/a	n/a	1	52	0.1	0	4
520.5588	1	82	n/a	n/a	1	0	-0.1	0	0
520.6628	1	82	n/a	n/a	1	0	0	0	0
520.9908	1	82	n/a	n/a	1	0	0	0	0
521.2558	1	82	n/a	n/a	1	0	0	0	0
521.3388	1	82	n/a	n/a	1	0	0	0	0
521.5588	1	82	n/a	n/a	1	0	0	0	0
521.7308	1	82	n/a	n/a	1	0	0	0	0
521.9978	1	82	n/a	n/a	1	0	0	0	0
522.0558	1	82	n/a	n/a	1	0	0	0	0
522.4228	1	82	n/a	n/a	1	0	0	0	0
523.5598	1	10	n/a	n/a	1	52	0	0	1
524.7932	1	10	n/a	n/a	1	52	0.2	0	2
526.043	1	10	n/a	n/a	1	52	-0.2	0	3
527.3096	1	10	n/a	n/a	1	52	-1.1642e-10	0	4
528.4262	1	10	n/a	n/a	1	52	0	0	5
529.6262	1	10	n/a	n/a	1	52	0.1	0	6
530.6594	1	10	n/a	n/a	1	52	-0.1	0	7
531.6928	1	21	n/a	n/a	1	52	0.1	0	0
532.926	1	10	n/a	n/a	1	52	-1.1642e-10	0	1
534.1926	1	10	n/a	n/a	1	52	1.1642e-10	0	2
535.4592	1	10	n/a	n/a	1	52	-1.1642e-10	0	3
536.7258	1	21	n/a	n/a	1	52	1.1642e-10	0	0
537.809	1	10	n/a	n/a	1	52	-0.1	0	1
538.8922	1	21	n/a	n/a	1	52	-0.1	0	0
540.1922	1	10	n/a	n/a	1	52	0.1	0	1
541.3922	1	10	n/a	n/a	1	52	0.1	0	2
542.542	1	10	n/a	n/a	1	52	-0.2	0	3
543.642	1	10	n/a	n/a	1	52	0.1	0	4
544.9086	1	10	n/a	n/a	1	52	-1.1642e-10	0	5
546.1752	1	21	n/a	n/a	1	52	0	0	0
547.113	1	82	n/a	n/a	1	0	0.1	0	0
547.475	1	82	n/a	n/a	1	0	0	0	0
547.517	1	82	n/a	n/a	1	0	0	0	0
547.633	1	82	n/a	n/a	1	0	0	0	0
547.904	1	82	n/a	n/a	1	0	0	0	0
548.1138	1	82	n/a	n/a	1	0	1.1642e-10	0	0
548.2048	1	82	n/a	n/a	1	0	0	0	0
548.5048	1	82	n/a	n/a	1	0	0	0	0
548.6318	1	82	n/a	n/a	1	0	0	0	0
548.6858	1	82	n/a	n/a	1	0	0	0	0
550.2582	1	10	n/a	n/a	1	52	-0.2	0	1
551.4916	1	10	n/a	n/a	1	52	0.1	0	2
552.7914	1	10	n/a	n/a	1	52	-0.1	0	3
553.958	1	10	n/a	n/a	1	52	-1.1642e-10	0	4
555.1914	1	10	n/a	n/a	1	52	0.1	0	5
556.4246	1	21	n/a	n/a	1	52	0	0	0
557.6246	1	10	n/a	n/a	1	52	0	0	1
558.7912	1	10	n/a	n/a	1	52	0	0	2
559.891	1	10	n/a	n/a	1	52	-0.1	0	3
560.991	1	21	n/a	n/a	1	52	0.1	0	0
562.141	1	10	n/a	n/a	1	52	0	0	1
563.2908	1	21	n/a	n/a	1	52	-0.1	0	0
564.5908	1	10	n/a	n/a	1	52	0	0	1
565.874	1	10	n/a	n/a	1	52	0	0	2
567.1406	1	10	n/a	n/a	1	52	0	0	3
568.2738	1	10	n/a	n/a	1	52	-0.1	0	4
569.3572	1	10	n/a	n/a	1	52	0.2	0	5
570.4404	1	21	n/a	n/a	1	52	-0.1	0	0
571.507	1	10	n/a	n/a	1	52	-1.1642e-10	0	1
572.557	1	10	n/a	n/a	1	52	0	0	2
573.5454	1	82	n/a	n/a	1	0	-0.1	0	0
573.8804	1	82	n/a	n/a	1	0	0	0	0
573.9134	1	82	n/a	n/a	1	0	0	0	0
574.3144	1	82	n/a	n/a	1	0	0	0	0
574.3974	1	82	n/a	n/a	1	0	0	0	0
574.5454	1	82	n/a	n/a	1	0	0	0	0
574.6364	1	82	n/a	n/a	1	0	0	0	0
574.9104	1	82	n/a	n/a	1	0	0	0	0
575.0264	1	82	n/a	n/a	1	0	0	0	0
575.0964	1	82	n/a	n/a	1	0	0	0	0
576.64	1	10	n/a	n/a	1	52	0	0	1
577.79	1	10	n/a	n/a	1	52	0.1	0	2
578.84	1	10	n/a	n/a	1	52	0	0	3
580.1066	1	10	n/a	n/a	1	52	0	0	4
581.4064	1	10	n/a	n/a	1	52	-0.1	0	5
582.7064	1	21	n/a	n/a	1	52	0.1	0	0
583.9896	1	10	n/a	n/a	1	52	-0.1	0	1
585.1062	1	10	n/a	n/a	1	52	-1.1642e-10	0	2
586.3228	1	10	n/a	n/a	1	52	2.3283e-10	0	3
587.5394	1	21	n/a	n/a	1	52	-1.1642e-10	0	0
588.7226	1	10	n/a	n/a	1	52	0	0	1
589.8226	1	10	n/a	n/a	1	52	0	0	2
590.8892	1	10	n/a	n/a	1	52	-1.1642e-10	0	3
591.9724	1	10	n/a	n/a	1	52	-0.1	0	4
593.189	1	10	n/a	n/a	1	52	0	0	5
594.4056	1	21	n/a	n/a	1	52	-1.1642e-10	0	0
595.5056	1	10	n/a	n/a	1	52	0.1	0	1
596.8222	1	10	n/a	n/a	1	52	-1.1642e-10	0	2
597.9888	1	10	n/a	n/a	1	52	2.3283e-10	0	3
599.2054	1	10	n/a	n/a	1	52	-1.1642e-10	0	4
722.3876	1	82	n/a	n/a	1	0	-0.5	0	0
722.4946	1	82	n/a	n/a	1	0	0	0	0
722.6546	1	82	n/a	n/a	1	0	0	0	0
722.9516	1	82	n/a	n/a	1	0	0	0	0
723.2836	1	82	n/a	n/a	1	0	0	0	0
723.3876	1	82	n/a	n/a	1	0	0	0	0
723.6106	1	82	n/a	n/a	1	0	0	0	0
723.7496	1	82	n/a	n/a	1	0	0	0	0
724.0096	1	82	n/a	n/a	1	0	0	0	0
724.2936	1	82	n/a	n/a	1	0	0	0	0
725.5312	1	10	n/a	n/a	1	52	-0.1	0	1
726.6312	1	10	n/a	n/a	1	52	0.1	0	2
727.7312	1	10	n/a	n/a	1	52	0.1	0	3
728.831	1	21	n/a	n/a	1	52	-0.2	0	0
730.0642	1	10	n/a	n/a	1	52	0	0	1
731.2808	1	10	n/a	n/a	1	52	1.1642e-10	0	2
732.3974	1	10	n/a	n/a	1	52	0	0	3
733.664	1	10	n/a	n/a	1	52	-1.1642e-10	0	4
734.6974	1	10	n/a	n/a	1	52	0.1	0	5
735.7306	1	21	n/a	n/a	1	52	-0.1	0	0
736.9806	1	10	n/a	n/a	1	52	0.1	0	1
738.1472	1	10	n/a	n/a	1	52	0	0	2
739.197	1	10	n/a	n/a	1	52	-0.2	0	3
740.247	1	21	n/a	n/a	1	52	0.1	0	0
741.447	1	10	n/a	n/a	1	52	0.1	0	1
742.5802	1	10	n/a	n/a	1	52	-0.1	0	2
743.6634	1	10	n/a	n/a	1	52	-0.1	0	3
744.9134	1	10	n/a	n/a	1	52	0.1	0	4
746.13	1	10	n/a	n/a	1	52	-1.1642e-10	0	5
747.4132	1	10	n/a	n/a	1	52	-0.1	0	6
748.4068	1	82	n/a	n/a	1	0	0.1	0	0
748.7168	1	82	n/a	n/a	1	0	0	0	0
748.8128	1	82	n/a	n/a	1	0	0	0	0
748.8328	1	82	n/a	n/a	1	0	0	0	0
749.2668	1	82	n/a	n/a	1	0	0	0	0
749.4068	1	82	n/a	n/a	1	0	0	0	0
749.7668	1	82	n/a	n/a	1	0	0	0	0
749.9138	1	82	n/a	n/a	1	0	0	0	0
750.1638	1	82	n/a	n/a	1	0	0	0	0
750.1868	1	82	n/a	n/a	1	0	0	0	0
751.5296	1	10	n/a	n/a	1	52	-0.1	0	1
752.713	1	10	n/a	n/a	1	52	0.1	0	2
753.9796	1	10	n/a	n/a	1	52	0	0	3
755.0962	1	10	n/a	n/a	1	52	0	0	4
756.246	1	10	n/a	n/a	1	52	-0.1	0	5
757.396	1	21	n/a	n/a	1	52	0	0	0
758.5626	1	10	n/a	n/a	1	52	0	0	1
759.7292	1	10	n/a	n/a	1	52	0	0	2
761.0624	1	10	n/a	n/a	1	52	0	0	3
762.1958	1	10	n/a	n/a	1	52	0.1	0	4
763.3124	1	10	n/a	n/a	1	52	0	0	5
764.429	1	21	n/a	n/a	1	52	-1.1642e-10	0	0
765.6456	1	10	n/a	n/a	1	52	0	0	1
766.7954	1	10	n/a	n/a	1	52	-0.1	0	2
767.8954	1	10	n/a	n/a	1	52	0	0	3
769.1786	1	10	n/a	n/a	1	52	0	0	4
770.4452	1	10	n/a	n/a	1	52	0	0	5
771.5118	1	10	n/a	n/a	1	52	-0.1	0	6
772.6952	1	10	n/a	n/a	1	52	0.2	0	7
773.8784	1	21	n/a	n/a	1	52	-0.1	0	0
774.645	1	82	n/a	n/a	1	0	-0.1	0	0
774.994	1	82	n/a	n/a	1	0	0	0	0
775.048	1	82	n/a	n/a	1	0	0	0	0
775.355	1	82	n/a	n/a	1	0	0	0	0
775.385	1	82	n/a	n/a	1	0	0	0	0
775.6458	1	82	n/a	n/a	1	0	0	0	0
775.7528	1	82	n/a	n/a	1	0	0	0	0
776.1698	1	82	n/a	n/a	1	0	0	0	0
776.4968	1	82	n/a	n/a	1	0	0	0	0
776.5508	1	82	n/a	n/a	1	0	0	0	0
777.7948	1	10	n/a	n/a	1	52	0.1	0	1
778.8448	1	10	n/a	n/a	1	52	0	0	2
780.1446	1	10	n/a	n/a	1	52	-0.1	0	3
781.4446	1	21	n/a	n/a	1	52	0.1	0	0
782.6446	1	10	n/a	n/a	1	52	0	0	1
783.7612	1	10	n/a	n/a	1	52	0	0	2
785.011	1	10	n/a	n/a	1	52	-0.1	0	3
786.1444	1	10	n/a	n/a	1	52	0.1	0	4
787.361	1	10	n/a	n/a	1	52	0	0	5
788.4776	1	10	n/a	n/a	1	52	0	0	6
789.5774	1	10	n/a	n/a	1	52	-0.1	0	7
790.6774	1	21	n/a	n/a	1	52	0	0	0
791.9494	1	10	n/a	n/a	1	52	1100	1	1
793.044	1	10	n/a	n/a	1	52	0.1	0	2
794.1272	1	10	n/a	n/a	1	52	-0.1	0	3
795.3938	1	10	n/a	n/a	1	52	1.1642e-10	0	4
796.6604	1	10	n/a	n/a	1	52	0	0	5
797.927	1	21	n/a	n/a	1	52	0	0	0
798.9768	1	10	n/a	n/a	1	52	-0.1	0	1
800.0602	1	10	n/a	n/a	1	52	0.1	0	2
801.0826	1	82	n/a	n/a	1	0	-0.1	0	0
801.2276	1	82	n/a	n/a	1	0	0	0	0
801.3016	1	82	n/a	n/a	1	0	0	0	0
801.6616	1	82	n/a	n/a	1	0	0	0	0
801.9126	1	82	n/a	n/a	1	0	0	0	0
802.0834	1	82	n/a	n/a	1	0	0.1	0	0
802.3794	1	82	n/a	n/a	1	0	0	0	0
802.5024	1	82	n/a	n/a	1	0	0	0	0
802.5804	1	82	n/a	n/a	1	0	0	0	0
802.9914	1	82	n/a	n/a	1	0	0	0	0
804.2766	1	10	n/a	n/a	1	52	0	0	1
805.5764	1	21	n/a	n/a	1	52	-0.1	0	0
806.793	1	10	n/a	n/a	1	52	0	0	1
808.0096	1	21	n/a	n/a	1	52	-1.1642e-10	0	0
809.2596	1	10	n/a	n/a	1	52	0	0	1
810.4262	1	10	n/a	n/a	1	52	0	0	2
811.6262	1	10	n/a	n/a	1	52	0.1	0	3
812.8928	1	10	n/a	n/a	1	52	1.1642e-10	0	4
813.926	1	10	n/a	n/a	1	52	-0.1	0	5
814.9592	1	21	n/a	n/a	1	52	-0.1	0	0
816.1258	1	10	n/a	n/a	1	52	1.1642e-10	0	1
817.2258	1	10	n/a	n/a	1	52	0.1	0	2
818.409	1	10	n/a	n/a	1	52	-0.1	0	3
819.4924	1	10	n/a	n/a	1	52	0.2	0	4
820.709	1	10	n/a	n/a	1	52	0	0	5
821.9256	1	10	n/a	n/a	1	52	0	0	6
823.2422	1	10	n/a	n/a	1	52	-1.1642e-10	0	7
824.542	1	21	n/a	n/a	1	52	-0.2	0	0
825.792	1	10	n/a	n/a	1	52	0.1	0	1
827.0418	1	10	n/a	n/a	1	52	-0.1	0	2
827.7916	1	82	n/a	n/a	1	0	-1.1642e-10	0	0
827.8926	1	82	n/a	n/a	1	0	0	0	0
827.9626	1	82	n/a	n/a	1	0	0	0	0
828.3346	1	82	n/a	n/a	1	0	0	0	0
828.5976	1	82	n/a	n/a	1	0	0	0	0
828.7916	1	82	n/a	n/a	1	0	0	0	0
828.8306	1	82	n/a	n/a	1	0	0	0	0
829.2246	1	82	n/a	n/a	1	0	0	0	0
829.5526	1	82	n/a	n/a	1	0	0	0	0
829.6376	1	82	n/a	n/a	1	0	0	0	0
830.975	1	10	n/a	n/a	1	52	0.1	0	1
832.025	1	10	n/a	n/a	1	52	0	0	2
833.1916	1	10	n/a	n/a	1	52	-1.1642e-10	0	3
834.4748	1	10	n/a	n/a	1	52	1.1642e-10	0	4
835.658	1	10	n/a	n/a	1	52	-0.1	0	5
836.8414	1	21	n/a	n/a	1	52	0.1	0	0
838.1246	1	10	n/a	n/a	1	52	-1.1642e-10	0	1
839.3078	1	10	n/a	n/a	1	52	-0.1	0	2
840.4578	1	10	n/a	n/a	1	52	0.1	0	3
841.7244	1	10	n/a	n/a	1	52	0	0	4
842.7742	1	10	n/a	n/a	1	52	-0.2	0	5
843.8242	1	21	n/a	n/a	1	52	0.1	0	0
845.1074	1	10	n/a	n/a	1	52	-0.1	0	1
846.3574	1	10	n/a	n/a	1	52	0.1	0	2
847.5406	1	10	n/a	n/a	1	52	-0.1	0	3
848.6406	1	10	n/a	n/a	1	52	0.1	0	4
849.7738	1	10	n/a	n/a	1	52	-0.1	0	5
850.8238	1	10	n/a	n/a	1	52	0.1	0	6
852.1404	1	10	n/a	n/a	1	52	0	0	7
853.457	1	21	n/a	n/a	1	52	-1.1642e-10	0	0
866.0652	1	81	n/a	n/a	1	0	-0.2	0	0
866.2652	1	81	n/a	n/a	1	0	0	0	0
866.4652	1	81	n/a	n/a	1	0	0	0	0
866.6652	1	81	n/a	n/a	1	0	0	0	0
866.8652	1	81	n/a	n/a	1	0	0	0	0
867.0654	1	81	n/a	n/a	1	0	0.2	0	0
867.2654	1	81	n/a	n/a	1	0	0	0	0
867.4654	1	81	n/a	n/a	1	0	0	0	0
867.6654	1	81	n/a	n/a	1	0	0	0	0
867.8654	1	81	n/a	n/a	1	0	0	0	0
869.056	1	10	n/a	n/a	1	50	-0.2	0	1
870.356	1	10	n/a	n/a	1	50	0.1	0	2
871.656	1	10	n/a	n/a	1	50	0.1	0	3
872.8226	1	10	n/a	n/a	1	50	0	0	4
873.9224	1	10	n/a	n/a	1	50	-0.2	0	5
875.1058	1	10	n/a	n/a	1	50	0.2	0	6
876.1556	1	10	n/a	n/a	1	50	-0.2	0	7
877.2056	1	21	n/a	n/a	1	50	0.1	0	0
878.3222	1	10	n/a	n/a	1	50	0	0	1
879.4388	1	21	n/a	n/a	1	50	1.1642e-10	0	0
880.6054	1	10	n/a	n/a	1	50	-1.1642e-10	0	1
881.772	1	21	n/a	n/a	1	50	0	0	0
883.0886	1	10	n/a	n/a	1	50	0	0	1
884.2218	1	10	n/a	n/a	1	50	-0.1	0	2
885.2884	1	10	n/a	n/a	1	50	0	0	3
886.355	1	21	n/a	n/a	1	50	0	0	0
887.4884	1	10	n/a	n/a	1	50	0.1	0	1
888.5216	1	10	n/a	n/a	1	50	-0.1	0	2
889.8048	1	10	n/a	n/a	1	50	0	0	3
890.8548	1	10	n/a	n/a	1	50	0	0	4
891.7512	1	81	n/a	n/a	1	0	0	0	0
891.9512	1	81	n/a	n/a	1	0	0	0	0
892.1512	1	81	n/a	n/a	1	0	0	0	0
892.3512	1	81	n/a	n/a	1	0	0	0	0
892.5512	1	81	n/a	n/a	1	0	0	0	0
892.7512	1	81	n/a	n/a	1	0	0	0	0
892.9512	1	81	n/a	n/a	1	0	0	0	0
893.1512	1	81	n/a	n/a	1	0	0	0	0
893.3512	1	81	n/a	n/a	1	0	0	0	0
893.5512	1	81	n/a	n/a	1	0	0	0	0
894.8546	1	10	n/a	n/a	1	50	0.1	0	1
896.1378	1	10	n/a	n/a	1	50	-0.1	0	2
897.1878	1	10	n/a	n/a	1	50	0	0	3
898.471	1	10	n/a	n/a	1	50	0	0	4
899.6376	1	10	n/a	n/a	1	50	0	0	5
900.8042	1	21	n/a	n/a	1	50	0	0	0
901.8542	1	10	n/a	n/a	1	50	0	0	1
903.054	1	10	n/a	n/a	1	50	-0.1	0	2
904.154	1	10	n/a	n/a	1	50	0.1	0	3
905.254	1	10	n/a	n/a	1	50	0	0	4
906.3372	1	10	n/a	n/a	1	50	0	0	5
907.4204	1	21	n/a	n/a	1	50	-0.1	0	0
908.587	1	10	n/a	n/a	1	50	0	0	1
909.7536	1	10	n/a	n/a	1	50	0	0	2
910.8036	1	10	n/a	n/a	1	50	0	0	3
912.0202	1	10	n/a	n/a	1	50	-1.1642e-10	0	4
913.0702	1	10	n/a	n/a	1	50	0.1	0	5
914.2868	1	10	n/a	n/a	1	50	0	0	6
915.4034	1	10	n/a	n/a	1	50	0	0	7
916.52	1	21	n/a	n/a	1	50	0	0	0
917.4224	1	81	n/a	n/a	1	0	-0.1	0	0
917.6224	1	81	n/a	n/a	1	0	0	0	0
917.8224	1	81	n/a	n/a	1	0	0	0	0
918.0224	1	81	n/a	n/a	1	0	0	0	0
918.2224	1	81	n/a	n/a	1	0	0	0	0
918.4224	1	81	n/a	n/a	1	0	0	0	0
918.6224	1	81	n/a	n/a	1	0	0	0	0
918.8224	1	81	n/a	n/a	1	0	0	0	0
919.0224	1	81	n/a	n/a	1	0	0	0	0
919.2224	1	81	n/a	n/a	1	0	0	0	0
920.5864	1	10	n/a	n/a	1	50	0	0	1
921.7196	1	10	n/a	n/a	1	50	0	0	2
922.8528	1	10	n/a	n/a	1	50	-0.1	0	3
924.0028	1	10	n/a	n/a	1	50	0.1	0	4
925.0528	1	10	n/a	n/a	1	50	0	0	5
926.1026	1	21	n/a	n/a	1	50	-0.1	0	0
927.3526	1	10	n/a	n/a	1	50	0	0	1
928.5858	1	10	n/a	n/a	1	50	1.1642e-10	0	2
929.8024	1	10	n/a	n/a	1	50	0	0	3
931.019	1	21	n/a	n/a	1	50	0	0	0
932.2356	1	10	n/a	n/a	1	50	-1.1642e-10	0	1
933.4856	1	10	n/a	n/a	1	50	0.1	0	2
934.6356	1	10	n/a	n/a	1	50	0	0	3
935.7854	1	21	n/a	n/a	1	50	-0.1	0	0
936.902	1	10	n/a	n/a	1	50	0	0	1
937.9854	1	10	n/a	n/a	1	50	0.1	0	2
939.1352	1	10	n/a	n/a	1	50	-0.1	0	3
940.1852	1	10	n/a	n/a	1	50	0	0	4
941.2184	1	10	n/a	n/a	1	50	-0.1	0	5
942.2518	1	21	n/a	n/a	1	50	0.2	0	0
943.2622	1	81	n/a	n/a	1	0	-1.1642e-10	0	0
943.4622	1	81	n/a	n/a	1	0	0	0	0
943.6622	1	81	n/a	n/a	1	0	0	0	0
943.8622	1	81	n/a	n/a	1	0	0	0	0
944.0622	1	81	n/a	n/a	1	0	0	0	0
944.2622	1	81	n/a	n/a	1	0	-0.1	0	0
944.4622	1	81	n/a	n/a	1	0	0	0	0
944.6622	1	81	n/a	n/a	1	0	0	0	0
944.8622	1	81	n/a	n/a	1	0	0	0	0
945.0622	1	81	n/a	n/a	1	0	0	0	0
946.4682	1	10	n/a	n/a	1	50	0	0	1
947.7848	1	21	n/a	n/a	1	50	1.1642e-10	0	0
948.868	1	10	n/a	n/a	1	50	0	0	1
950.0846	1	10	n/a	n/a	1	50	-1.1642e-10	0	2
951.1346	1	10	n/a	n/a	1	50	0	0	3
952.3844	1	10	n/a	n/a	1	50	-0.1	0	4
953.6178	1	10	n/a	n/a	1	50	0.1	0	5
954.701	1	10	n/a	n/a	1	50	0	0	6
955.9342	1	10	n/a	n/a	1	50	-0.1	0	7
957.1676	1	21	n/a	n/a	1	50	0.1	0	0
958.3342	1	10	n/a	n/a	1	50	0	0	1
959.5674	1	10	n/a	n/a	1	50	1.1642e-10	0	2
960.6672	1	10	n/a	n/a	1	50	-0.2	0	3
961.7172	1	10	n/a	n/a	1	50	0.1	0	4
962.7506	1	10	n/a	n/a	1	50	0.1	0	5
963.9172	1	10	n/a	n/a	1	50	0	0	6
965.0504	1	10	n/a	n/a	1	50	-0.1	0	7
966.1836	1	21	n/a	n/a	1	50	-1.1642e-10	0	0
967.4336	1	10	n/a	n/a	1	50	0	0	1
968.6834	1	21	n/a	n/a	1	50	-0.1	0	0
969.7192	1	81	n/a	n/a	1	0	0.1	0	0
969.9192	1	81	n/a	n/a	1	0	0	0	0
970.1192	1	81	n/a	n/a	1	0	0	0	0
970.3192	1	81	n/a	n/a	1	0	0	0	0
970.5192	1	81	n/a	n/a	1	0	0	0	0
970.72	1	81	n/a	n/a	1	0	0	0	0
970.92	1	81	n/a	n/a	1	0	0	0	0
971.12	1	81	n/a	n/a	1	0	0	0	0
971.32	1	81	n/a	n/a	1	0	0	0	0
971.52	1	81	n/a	n/a	1	0	0	0	0
972.7832	1	10	n/a	n/a	1	50	-0.1	0	1
973.9498	1	21	n/a	n/a	1	50	1.1642e-10	0	0
975.2498	1	10	n/a	n/a	1	50	0.1	0	1
976.4164	1	10	n/a	n/a	1	50	0	0	2
977.5664	1	10	n/a	n/a	1	50	0.1	0	3
978.7828	1	10	n/a	n/a	1	50	-0.2	0	4
979.8828	1	10	n/a	n/a	1	50	0	0	5
980.9828	1	21	n/a	n/a	1	50	0.1	0	0
982.0494	1	10	n/a	n/a	1	50	0	0	1
983.116	1	21	n/a	n/a	1	50	-1.1642e-10	0	0
984.3326	1	10	n/a	n/a	1	50	0	0	1
985.5992	1	10	n/a	n/a	1	50	0	0	2
986.799	1	10	n/a	n/a	1	50	-0.2	0	3
988.049	1	10	n/a	n/a	1	50	0.1	0	4
989.3656	1	10	n/a	n/a	1	50	0	0	5
990.6822	1	21	n/a	n/a	1	50	0	0	0
991.7154	1	10	n/a	n/a	1	50	-0.1	0	1
992.7488	1	21	n/a	n/a	1	50	0.2	0	0
993.9486	1	10	n/a	n/a	1	50	-0.2	0	1
995.182	1	10	n/a	n/a	1	50	0.2	0	2
1009.7832	1	81	n/a	n/a	1	0	-0.1	0	0
1009.9832	1	81	n/a	n/a	1	0	0	0	0
1010.1832	1	81	n/a	n/a	1	0	0	0	0
1010.3832	1	81	n/a	n/a	1	0	0	0	0
1010.5832	1	81	n/a	n/a	1	0	0	0	0
1010.7832	1	81	n/a	n/a	1	0	0	0	0
1010.9832	1	81	n/a	n/a	1	0	0	0	0
1011.1832	1	81	n/a	n/a	1	0	0	0	0
1011.3832	1	81	n/a	n/a	1	0	0	0	0
1011.5832	1	81	n/a	n/a	1	0	0	0	0
1012.7308	1	10	n/a	n/a	1	51	-0.2	0	1
1013.7808	1	21	n/a	n/a	1	51	0.1	0	0
1015.0808	1	10	n/a	n/a	1	51	0.1	0	1
1016.3806	1	21	n/a	n/a	1	51	-0.2	0	0
1017.464	1	10	n/a	n/a	1	51	0.2	0	1
1018.6972	1	10	n/a	n/a	1	51	-0.1	0	2
1020.0138	1	10	n/a	n/a	1	51	0	0	3
1021.3304	1	21	n/a	n/a	1	51	0	0	0
1022.497	1	10	n/a	n/a	1	51	0	0	1
1023.547	1	10	n/a	n/a	1	51	0.1	0	2
1024.7302	1	10	n/a	n/a	1	51	-0.1	0	3
1025.9134	1	21	n/a	n/a	1	51	-0.1	0	0
1027.0634	1	10	n/a	n/a	1	51	0.1	0	1
1028.1632	1	10	n/a	n/a	1	51	-0.2	0	2
1029.3298	1	10	n/a	n/a	1	51	1.1642e-10	0	3
1030.5464	1	10	n/a	n/a	1	51	0	0	4
1031.6464	1	10	n/a	n/a	1	51	0.1	0	5
1032.7464	1	21	n/a	n/a	1	51	0.1	0	0
1033.8796	1	10	n/a	n/a	1	51	-0.1	0	1
1035.1128	1	10	n/a	n/a	1	51	-0.1	0	2
1036.1344	1	81	n/a	n/a	1	0	0.2	0	0
1036.3344	1	81	n/a	n/a	1	0	0	0	0
1036.5344	1	81	n/a	n/a	1	0	0	0	0
1036.7344	1	81	n/a	n/a	1	0	0	0	0
1036.9344	1	81	n/a	n/a	1	0	0	0	0
1037.1344	1	81	n/a	n/a	1	0	0	0	0
1037.3344	1	81	n/a	n/a	1	0	0	0	0
1037.5344	1	81	n/a	n/a	1	0	0	0	0
1037.7344	1	81	n/a	n/a	1	0	0	0	0
1037.9344	1	81	n/a	n/a	1	0	0	0	0
1039.2794	1	10	n/a	n/a	1	51	0	0	1
1040.5292	1	21	n/a	n/a	1	51	-0.1	0	0
1041.8124	1	10	n/a	n/a	1	51	-0.1	0	1
1043.0124	1	10	n/a	n/a	1	51	0.1	0	2
1044.0456	1	10	n/a	n/a	1	51	-0.1	0	3
1045.3122	1	10	n/a	n/a	1	51	0	0	4
1046.3956	1	10	n/a	n/a	1	51	0.1	0	5
1047.4622	1	10	n/a	n/a	1	51	-1.1642e-10	0	6
1048.7454	1	10	n/a	n/a	1	51	-0.1	0	7
1050.0286	1	21	n/a	n/a	1	51	2.3283e-10	0	0
1051.1786	1	10	n/a	n/a	1	51	0.1	0	1
1052.3952	1	10	n/a	n/a	1	51	-2.3283e-10	0	2
1053.7118	1	10	n/a	n/a	1	51	2.3283e-10	0	3
1055.0284	1	21	n/a	n/a	1	51	-2.3283e-10	0	0
1056.2782	1	10	n/a	n/a	1	51	-0.2	0	1
1057.5948	1	10	n/a	n/a	1	51	0	0	2
1058.8614	1	10	n/a	n/a	1	51	0	0	3
1060.078	1	10	n/a	n/a	1	51	0	0	4
1061.1446	1	10	n/a	n/a	1	51	2.3283e-10	0	5
1062.4112	1	10	n/a	n/a	1	51	-2.3283e-10	0	6
1063.3286	1	81	n/a	n/a	1	0	2.3283e-10	0	0
1063.5286	1	81	n/a	n/a	1	0	0	0	0
1063.7286	1	81	n/a	n/a	1	0	0	0	0
1063.9286	1	81	n/a	n/a	1	0	0	0	0
1064.1286	1	81	n/a	n/a	1	0	0	0	0
1064.3286	1	81	n/a	n/a	1	0	0	0	0
1064.5286	1	81	n/a	n/a	1	0	0	0	0
1064.7286	1	81	n/a	n/a	1	0	0	0	0
1064.9286	1	81	n/a	n/a	1	0	0	0	0
1065.1286	1	81	n/a	n/a	1	0	0	0	0
1066.4944	1	10	n/a	n/a	1	51	0.1	0	1
1067.5442	1	10	n/a	n/a	1	51	-0.1	0	2
1068.6776	1	10	n/a	n/a	1	51	0.1	0	3
1069.8108	1	21	n/a	n/a	1	51	0	0	0
1070.9608	1	10	n/a	n/a	1	51	0	0	1
1072.094	1	10	n/a	n/a	1	51	-0.1	0	2
1073.3606	1	10	n/a	n/a	1	51	2.3283e-10	0	3
1074.6272	1	10	n/a	n/a	1	51	-2.3283e-10	0	4
1075.7604	1	10	n/a	n/a	1	51	0	0	5
1076.8938	1	21	n/a	n/a	1	51	0.1	0	0
1078.0604	1	10	n/a	n/a	1	51	-2.3283e-10	0	1
1079.3102	1	10	n/a	n/a	1	51	-0.1	0	2
1080.3602	1	10	n/a	n/a	1	51	0	0	3
1081.6268	1	10	n/a	n/a	1	51	0	0	4
1082.8268	1	10	n/a	n/a	1	51	0.1	0	5
1084.0266	1	21	n/a	n/a	1	51	-0.1	0	0
1085.06	1	10	n/a	n/a	1	51	0.1	0	1
1086.0932	1	21	n/a	n/a	1	51	-0.1	0	0
1087.2598	1	10	n/a	n/a	1	51	0	0	1
1088.4264	1	21	n/a	n/a	1	51	0	0	0
1089.416	1	81	n/a	n/a	1	0	-0.1	0	0
1089.616	1	81	n/a	n/a	1	0	0	0	0
1089.816	1	81	n/a	n/a	1	0	0	0	0
1090.016	1	81	n/a	n/a	1	0	0	0	0
1090.216	1	81	n/a	n/a	1	0	0	0	0
1090.416	1	81	n/a	n/a	1	0	0	0	0
1090.616	1	81	n/a	n/a	1	0	0	0	0
1090.816	1	81	n/a	n/a	1	0	0	0	0
1091.016	1	81	n/a	n/a	1	0	0	0	0
1091.216	1	81	n/a	n/a	1	0	0	0	0
1092.5762	1	10	n/a	n/a	1	51	0.1	0	1
1093.8428	1	21	n/a	n/a	1	51	0	0	0
1095.0926	1	10	n/a	n/a	1	51	-0.1	0	1
1096.3426	1	21	n/a	n/a	1	51	0.1	0	0
1097.3758	1	10	n/a	n/a	1	51	-0.1	0	1
1098.4592	1	10	n/a	n/a	1	51	0.1	0	2
1099.6758	1	10	n/a	n/a	1	51	0	0	3
1100.7924	1	10	n/a	n/a	1	51	0	0	4
1101.9922	1	10	n/a	n/a	1	51	-0.1	0	5
1103.1922	1	21	n/a	n/a	1	51	0.1	0	0
1104.3254	1	10	n/a	n/a	1	51	-0.1	0	1
1105.592	1	10	n/a	n/a	1	51	2.3283e-10	0	2
1106.842	1	10	n/a	n/a	1	51	0.1	0	3
1108.0086	1	10	n/a	n/a	1	51	2.3283e-10	0	4
1109.0752	1	10	n/a	n/a	1	51	-2.3283e-10	0	5
1110.375	1	10	n/a	n/a	1	51	-0.2	0	6
1111.4084	1	10	n/a	n/a	1	51	0.1	0	7
1112.4416	1	21	n/a	n/a	1	51	2.3283e-10	0	0
1113.7082	1	10	n/a	n/a	1	51	-2.3283e-10	0	1
1114.9248	1	10	n/a	n/a	1	51	2.3283e-10	0	2
1115.8124	1	81	n/a	n/a	1	0	0.1	0	0
1116.0124	1	81	n/a	n/a	1	0	0	0	0
1116.2124	1	81	n/a	n/a	1	0	0	0	0
1116.4124	1	81	n/a	n/a	1	0	0	0	0
1116.6124	1	81	n/a	n/a	1	0	0	0	0
1116.8124	1	81	n/a	n/a	1	0	-0.1	0	0
1117.0124	1	81	n/a	n/a	1	0	0	0	0
1117.2124	1	81	n/a	n/a	1	0	0	0	0
1117.4124	1	81	n/a	n/a	1	0	0	0	0
1117.6124	1	81	n/a	n/a	1	0	0	0	0
1118.9246	1	10	n/a	n/a	1	51	2.3283e-10	0	1
1120.0912	1	10	n/a	n/a	1	51	-2.3283e-10	0	2
1121.2078	1	10	n/a	n/a	1	51	2.3283e-10	0	3
1122.4578	1	10	n/a	n/a	1	51	0.1	0	4
1123.7076	1	10	n/a	n/a	1	51	-0.2	0	5
1124.9576	1	21	n/a	n/a	1	51	0.1	0	0
1126.2074	1	10	n/a	n/a	1	51	-0.1	0	1
1127.424	1	10	n/a	n/a	1	51	0	0	2
1128.624	1	10	n/a	n/a	1	51	0	0	3
1129.7906	1	10	n/a	n/a	1	51	0	0	4
1131.0906	1	10	n/a	n/a	1	51	0.1	0	5
1132.1904	1	10	n/a	n/a	1	51	-0.1	0	6
1133.2404	1	10	n/a	n/a	1	51	0	0	7
1134.2904	1	21	n/a	n/a	1	51	0.1	0	0
1135.4402	1	10	n/a	n/a	1	51	-0.2	0	1
1136.6568	1	10	n/a	n/a	1	51	2.3283e-10	0	2
1137.7568	1	10	n/a	n/a	1	51	0.1	0	3
1138.8568	1	21	n/a	n/a	1	51	0.1	0	0
1140.09	1	10	n/a	n/a	1	51	-0.1	0	1
1141.29	1	10	n/a	n/a	1	51	0.1	0	2
1248.1624	1	81	n/a	n/a	1	0	0	0	0
1248.3624	1	81	n/a	n/a	1	0	0	0	0
1248.5624	1	81	n/a	n/a	1	0	0	0	0
1248.7624	1	81	n/a	n/a	1	0	0	0	0
1248.9624	1	81	n/a	n/a	1	0	0	0	0
1249.1624	1	81	n/a	n/a	1	0	0	0	0
1249.3624	1	81	n/a	n/a	1	0	0	0	0
1249.5624	1	81	n/a	n/a	1	0	0	0	0
1249.7624	1	81	n/a	n/a	1	0	0	0	0
1249.9624	1	81	n/a	n/a	1	0	980	1	0
1250.9424	1	10	n/a	n/a	1	51	-200.1	0	1
1252.0258	1	21	n/a	n/a	1	51	0.2	0	0
1253.3256	1	10	n/a	n/a	1	51	-0.2	0	1
1254.6256	1	10	n/a	n/a	1	51	0.1	0	2
1255.7256	1	10	n/a	n/a	1	51	0.1	0	3
1256.9588	1	10	n/a	n/a	1	51	-0.1	0	4
1258.2254	1	10	n/a	n/a	1	51	0	0	5
1259.492	1	21	n/a	n/a	1	51	0	0	0
1260.5252	1	10	n/a	n/a	1	51	-0.1	0	1
1261.7252	1	10	n/a	n/a	1	51	0.1	0	2
1262.8252	1	10	n/a	n/a	1	51	0.1	0	3
1263.925	1	21	n/a	n/a	1	51	-0.2	0	0
1264.9916	1	10	n/a	n/a	1	51	2.3283e-10	0	1
1266.2582	1	10	n/a	n/a	1	51	-2.3283e-10	0	2
1267.4248	1	10	n/a	n/a	1	51	0	0	3
1268.4582	1	10	n/a	n/a	1	51	0.1	0	4
1269.6414	1	10	n/a	n/a	1	51	-2.3283e-10	0	5
1270.8246	1	21	n/a	n/a	1	51	-0.1	0	0
1272.1078	1	10	n/a	n/a	1	51	-0.1	0	1
1273.4078	1	10	n/a	n/a	1	51	0.1	0	2
1274.5184	1	81	n/a	n/a	1	0	-0.1	0	0
1274.7184	1	81	n/a	n/a	1	0	0	0	0
1274.9184	1	81	n/a	n/a	1	0	0	0	0
1275.1184	1	81	n/a	n/a	1	0	0	0	0
1275.3184	1	81	n/a	n/a	1	0	0	0	0
1275.5192	1	81	n/a	n/a	1	0	0.1	0	0
1275.7192	1	81	n/a	n/a	1	0	0	0	0
1275.9192	1	81	n/a	n/a	1	0	0	0	0
1276.1192	1	81	n/a	n/a	1	0	0	0	0
1276.3192	1	81	n/a	n/a	1	0	0	0	0
1277.5908	1	10	n/a	n/a	1	51	-0.1	0	1
1278.6408	1	10	n/a	n/a	1	51	0.1	0	2
1279.8742	1	10	n/a	n/a	1	51	0.1	0	3
1280.924	1	10	n/a	n/a	1	51	-0.1	0	4
1281.9906	1	10	n/a	n/a	1	51	2.3283e-10	0	5
1283.0572	1	21	n/a	n/a	1	51	-0.1	0	0
1284.3738	1	10	n/a	n/a	1	51	2.3283e-10	0	1
1285.6904	1	21	n/a	n/a	1	51	0.1	0	0
1287.0236	1	10	n/a	n/a	1	51	-0.1	0	1
1288.0902	1	10	n/a	n/a	1	51	-2.3283e-10	0	2
1289.1568	1	10	n/a	n/a	1	51	2.3283e-10	0	3
1290.3234	1	10	n/a	n/a	1	51	-2.3283e-10	0	4
1291.3734	1	10	n/a	n/a	1	51	0	0	5
1292.4234	1	21	n/a	n/a	1	51	0.1	0	0
1293.6232	1	10	n/a	n/a	1	51	-0.1	0	1
1294.9232	1	10	n/a	n/a	1	51	0	0	2
1296.1064	1	10	n/a	n/a	1	51	0	0	3
1297.323	1	10	n/a	n/a	1	51	2.3283e-10	0	4
1298.3564	1	10	n/a	n/a	1	51	0.1	0	5
1299.3896	1	21	n/a	n/a	1	51	-0.1	0	0
1300.2502	1	81	n/a	n/a	1	0	-0.1	0	0
1300.4502	1	81	n/a	n/a	1	0	0	0	0
1300.6502	1	81	n/a	n/a	1	0	0	0	0
1300.8502	1	81	n/a	n/a	1	0	0	0	0
1301.0502	1	81	n/a	n/a	1	0	0	0	0
1301.2502	1	81	n/a	n/a	1	0	0	0	0
1301.4502	1	81	n/a	n/a	1	0	0	0	0
1301.6502	1	81	n/a	n/a	1	0	0	0	0
1301.8502	1	81	n/a	n/a	1	0	0	0	0
1302.0502	1	81	n/a	n/a	1	0	0	0	0
1303.3394	1	10	n/a	n/a	1	51	0.1	0	1
1304.4226	1	10	n/a	n/a	1	51	2.3283e-10	0	2
1305.5226	1	10	n/a	n/a	1	51	0	0	3
1306.6726	1	10	n/a	n/a	1	51	0.1	0	4
1307.9724	1	10	n/a	n/a	1	51	-0.2	0	5
1309.0724	1	10	n/a	n/a	1	51	0.1	0	6
1310.1556	1	10	n/a	n/a	1	51	-0.1	0	7
1311.2388	1	21	n/a	n/a	1	51	0	0	0
1312.4888	1	10	n/a	n/a	1	51	0	0	1
1313.6054	1	10	n/a	n/a	1	51	0	0	2
1314.772	1	10	n/a	n/a	1	51	0	0	3
1315.922	1	10	n/a	n/a	1	51	0.1	0	4
1316.9886	1	10	n/a	n/a	1	51	0	0	5
1318.0552	1	21	n/a	n/a	1	51	-2.3283e-10	0	0
1319.3218	1	10	n/a	n/a	1	51	2.3283e-10	0	1
1320.5716	1	10	n/a	n/a	1	51	-0.2	0	2
1321.6382	1	10	n/a	n/a	1	51	-2.3283e-10	0	3
1322.7716	1	10	n/a	n/a	1	51	0.2	0	4
1324.0214	1	10	n/a	n/a	1	51	-0.2	0	5
1325.1214	1	10	n/a	n/a	1	51	0.1	0	6
1326.1688	1	81	n/a	n/a	1	0	0	0	0
1326.3688	1	81	n/a	n/a	1	0	0	0	0
1326.5688	1	81	n/a	n/a	1	0	0	0	0
1326.7688	1	81	n/a	n/a	1	0	0	0	0
1326.9688	1	81	n/a	n/a	1	0	0	0	0
1327.1688	1	81	n/a	n/a	1	0	-0.1	0	0
1327.3688	1	81	n/a	n/a	1	0	0	0	0
1327.5688	1	81	n/a	n/a	1	0	0	0	0
1327.7688	1	81	n/a	n/a	1	0	0	0	0
1327.9688	1	81	n/a	n/a	1	0	0	0	0
1329.3378	1	10	n/a	n/a	1	51	0.1	0	1
1330.4378	1	10	n/a	n/a	1	51	0	0	2
1331.5044	1	10	n/a	n/a	1	51	0	0	3
1332.571	1	21	n/a	n/a	1	51	0	0	0
1333.6376	1	10	n/a	n/a	1	51	0	0	1
1334.7042	1	21	n/a	n/a	1	51	0	0	0
1335.7542	1	10	n/a	n/a	1	51	0	0	1
1336.854	1	10	n/a	n/a	1	51	-0.1	0	2
1338.0874	1	10	n/a	n/a	1	51	0.1	0	3
1339.3872	1	10	n/a	n/a	1	51	-0.1	0	4
1341.0379	1	10	n/a	n/a	1	51	1166.7	1	5
1341.8038	1	10	n/a	n/a	1	51	0.1	0	6
1342.9036	1	10	n/a	n/a	1	51	-0.2	0	7
1344.0036	1	21	n/a	n/a	1	51	0.1	0	0
1345.0536	1	10	n/a	n/a	1	51	0.1	0	1
1346.1534	1	10	n/a	n/a	1	51	-0.2	0	2
1347.3368	1	10	n/a	n/a	1	51	0.2	0	3
1348.5866	1	10	n/a	n/a	1	51	-0.2	0	4
1349.82	1	10	n/a	n/a	1	51	0.2	0	5
1351.0532	1	21	n/a	n/a	1	51	-0.1	0	0
1351.9886	1	81	n/a	n/a	1	0	2.3283e-10	0	0
1352.1886	1	81	n/a	n/a	1	0	0	0	0
1352.3886	1	81	n/a	n/a	1	0	0	0	0
1352.5886	1	81	n/a	n/a	1	0	0	0	0
1352.7886	1	81	n/a	n/a	1	0	0	0	0
1352.9886	1	81	n/a	n/a	1	0	0	0	0
1353.1886	1	81	n/a	n/a	1	0	0	0	0
1353.3886	1	81	n/a	n/a	1	0	0	0	0
1353.5886	1	81	n/a	n/a	1	0	0	0	0
1353.7886	1	81	n/a	n/a	1	0	0	0	0
1355.0696	1	10	n/a	n/a	1	51	-0.1	0	1
1356.2528	1	21	n/a	n/a	1	51	0	0	0
1357.3196	1	10	n/a	n/a	1	51	0.2	0	1
1358.486	1	10	n/a	n/a	1	51	-0.2	0	2
1359.5194	1	10	n/a	n/a	1	51	0.1	0	3
1360.836	1	10	n/a	n/a	1	51	0	0	4
1361.9026	1	10	n/a	n/a	1	51	2.3283e-10	0	5
1362.9692	1	21	n/a	n/a	1	51	-2.3283e-10	0	0
1364.2858	1	10	n/a	n/a	1	51	2.3283e-10	0	1
1365.4856	1	10	n/a	n/a	1	51	-0.1	0	2
1366.6022	1	10	n/a	n/a	1	51	0	0	3
1367.7188	1	21	n/a	n/a	1	51	-0.1	0	0
1369.0188	1	10	n/a	n/a	1	51	0.1	0	1
1370.3188	1	21	n/a	n/a	1	51	0.1	0	0
1371.5186	1	10	n/a	n/a	1	51	-0.1	0	1
1372.802	1	10	n/a	n/a	1	51	0.1	0	2
1373.9852	1	10	n/a	n/a	1	51	-0.1	0	3
1375.1684	1	21	n/a	n/a	1	51	-2.3283e-10	0	0
1376.485	1	10	n/a	n/a	1	51	2.3283e-10	0	1
1377.585	1	10	n/a	n/a	1	51	0	0	2
1387.2752	1	82	n/a	n/a	1	0	-0.1	0	0
1387.2982	1	82	n/a	n/a	1	0	0	0	0
1387.6092	1	82	n/a	n/a	1	0	0	0	0
1387.7502	1	82	n/a	n/a	1	0	0	0	0
1387.8612	1	82	n/a	n/a	1	0	0	0	0
1388.2752	1	82	n/a	n/a	1	0	0	0	0
1388.5032	1	82	n/a	n/a	1	0	0	0	0
1388.7812	1	82	n/a	n/a	1	0	0	0	0
1389.1182	1	82	n/a	n/a	1	0	0	0	0
1389.1462	1	82	n/a	n/a	1	0	0	0	0
1390.2008	1	10	n/a	n/a	1	50	0	0	1
1391.4174	1	10	n/a	n/a	1	50	0	0	2
1392.4674	1	10	n/a	n/a	1	50	0	0	3
1393.6674	1	10	n/a	n/a	1	50	0.1	0	4
1394.9672	1	10	n/a	n/a	1	50	-0.1	0	5
1396.2506	1	10	n/a	n/a	1	50	0.1	0	6
1397.3338	1	10	n/a	n/a	1	50	-0.1	0	7
1398.417	1	21	n/a	n/a	1	50	-0.1	0	0
1399.6336	1	10	n/a	n/a	1	50	0	0	1
1400.7836	1	10	n/a	n/a	1	50	0.1	0	2
1401.8836	1	10	n/a	n/a	1	50	0.1	0	3
1402.9834	1	21	n/a	n/a	1	50	-0.2	0	0
1404.0334	1	10	n/a	n/a	1	50	0.1	0	1
1405.1334	1	10	n/a	n/a	1	50	0	0	2
1406.2666	1	10	n/a	n/a	1	50	2.3283e-10	0	3
1407.3998	1	21	n/a	n/a	1	50	-0.1	0	0
1408.4998	1	10	n/a	n/a	1	50	0.1	0	1
1409.7498	1	10	n/a	n/a	1	50	0	0	2
1410.9164	1	10	n/a	n/a	1	50	0	0	3
1412.033	1	10	n/a	n/a	1	50	0	0	4
1412.8074	1	82	n/a	n/a	1	0	-0.1	0	0
1412.9404	1	82	n/a	n/a	1	0	0	0	0
1413.0184	1	82	n/a	n/a	1	0	0	0	0
1413.2424	1	82	n/a	n/a	1	0	0	0	0
1413.6424	1	82	n/a	n/a	1	0	0	0	0
1413.8074	1	82	n/a	n/a	1	0	0	0	0
1413.9404	1	82	n/a	n/a	1	0	0	0	0
1414.2634	1	82	n/a	n/a	1	0	0	0	0
1414.5614	1	82	n/a	n/a	1	0	0	0	0
1414.5814	1	82	n/a	n/a	1	0	0	0	0
1415.9326	1	10	n/a	n/a	1	50	-0.1	0	1
1417.0326	1	10	n/a	n/a	1	50	0.1	0	2
1418.0992	1	10	n/a	n/a	1	50	-2.3283e-10	0	3
1419.2992	1	10	n/a	n/a	1	50	0.1	0	4
1420.5158	1	10	n/a	n/a	1	50	0	0	5
1421.6324	1	10	n/a	n/a	1	50	0	0	6
1422.8656	1	10	n/a	n/a	1	50	-0.1	0	7
1424.0988	1	21	n/a	n/a	1	50	-0.1	0	0
1425.1822	1	10	n/a	n/a	1	50	0.2	0	1
1426.2654	1	21	n/a	n/a	1	50	-0.1	0	0
1427.532	1	10	n/a	n/a	1	50	2.3283e-10	0	1
1428.7986	1	21	n/a	n/a	1	50	0	0	0
1429.9486	1	10	n/a	n/a	1	50	0.1	0	1
1431.1318	1	10	n/a	n/a	1	50	-0.1	0	2
1432.2818	1	10	n/a	n/a	1	50	0	0	3
1433.4316	1	10	n/a	n/a	1	50	-0.1	0	4
1434.6316	1	10	n/a	n/a	1	50	0.1	0	5
1435.8316	1	10	n/a	n/a	1	50	0	0	6
1436.9148	1	10	n/a	n/a	1	50	0	0	7
1437.998	1	21	n/a	n/a	1	50	-0.1	0	0
1438.9086	1	82	n/a	n/a	1	0	0.1	0	0
1439.0276	1	82	n/a	n/a	1	0	0	0	0
1439.1936	1	82	n/a	n/a	1	0	0	0	0
1439.6216	1	82	n/a	n/a	1	0	0	0	0
1439.8424	1	82	n/a	n/a	1	0	-0.2	0	0
1439.9086	1	82	n/a	n/a	1	0	0.2	0	0
1440.2896	1	82	n/a	n/a	1	0	0	0	0
1440.3106	1	82	n/a	n/a	1	0	0	0	0
1440.5996	1	82	n/a	n/a	1	0	0	0	0
1440.7116	1	82	n/a	n/a	1	0	0	0	0
1441.9978	1	10	n/a	n/a	1	50	-0.1	0	1
1443.2644	1	10	n/a	n/a	1	50	0	0	2
1444.581	1	10	n/a	n/a	1	50	0	0	3
1445.631	1	10	n/a	n/a	1	50	0.1	0	4
1446.7808	1	10	n/a	n/a	1	50	-0.2	0	5
1447.9974	1	10	n/a	n/a	1	50	-2.3283e-10	0	6
1449.164	1	10	n/a	n/a	1	50	0	0	7
1450.3306	1	21	n/a	n/a	1	50	2.3283e-10	0	0
1451.3972	1	10	n/a	n/a	1	50	-2.3283e-10	0	1
1452.5638	1	10	n/a	n/a	1	50	2.3283e-10	0	2
1453.7972	1	10	n/a	n/a	1	50	0.2	0	3
1454.8638	1	10	n/a	n/a	1	50	2.3283e-10	0	4
1456.0804	1	10	n/a	n/a	1	50	-2.3283e-10	0	5
1457.297	1	21	n/a	n/a	1	50	2.3283e-10	0	0
1458.5302	1	10	n/a	n/a	1	50	-0.1	0	1
1459.7634	1	21	n/a	n/a	1	50	-0.1	0	0
1461.03	1	10	n/a	n/a	1	50	0	0	1
1462.1966	1	10	n/a	n/a	1	50	2.3283e-10	0	2
1463.2298	1	10	n/a	n/a	1	50	0	0	3
1464.2632	1	21	n/a	n/a	1	50	0.1	0	0
1465.1886	1	82	n/a	n/a	1	0	-0.1	0	0
1465.3586	1	82	n/a	n/a	1	0	0	0	0
1465.3846	1	82	n/a	n/a	1	0	0	0	0
1465.6796	1	82	n/a	n/a	1	0	0	0	0
1466.1196	1	82	n/a	n/a	1	0	0	0	0
1466.1886	1	82	n/a	n/a	1	0	0	0	0
1466.2626	1	82	n/a	n/a	1	0	0	0	0
1466.6346	1	82	n/a	n/a	1	0	0	0	0
1466.9176	1	82	n/a	n/a	1	0	0	0	0
1467.0676	1	82	n/a	n/a	1	0	0	0	0
1468.3462	1	10	n/a	n/a	1	50	-2.3283e-10	0	1
1469.4628	1	10	n/a	n/a	1	50	2.3283e-10	0	2
1470.5628	1	10	n/a	n/a	1	50	0	0	3
1471.796	1	10	n/a	n/a	1	50	-2.3283e-10	0	4
1472.946	1	10	n/a	n/a	1	50	0	0	5
1474.1126	1	10	n/a	n/a	1	50	2.3283e-10	0	6
1475.2126	1	10	n/a	n/a	1	50	0.1	0	7
1476.3124	1	21	n/a	n/a	1	50	-0.2	0	0
1477.6124	1	10	n/a	n/a	1	50	0.1	0	1
1478.6456	1	10	n/a	n/a	1	50	-0.1	0	2
1479.9288	1	10	n/a	n/a	1	50	0	0	3
1481.2122	1	21	n/a	n/a	1	50	0.1	0	0
1482.312	1	10	n/a	n/a	1	50	-0.1	0	1
1483.3786	1	10	n/a	n/a	1	50	0	0	2
1484.412	1	10	n/a	n/a	1	50	0.1	0	3
1485.4452	1	10	n/a	n/a	1	50	-0.1	0	4
1486.4786	1	10	n/a	n/a	1	50	0.1	0	5
1487.5118	1	21	n/a	n/a	1	50	0	0	0
1488.5618	1	10	n/a	n/a	1	50	0	0	1
1489.6116	1	21	n/a	n/a	1	50	-0.1	0	0
1490.6714	1	82	n/a	n/a	1	0	-2.3283e-10	0	0
1490.8074	1	82	n/a	n/a	1	0	0	0	0
1490.9084	1	82	n/a	n/a	1	0	0	0	0
1491.0764	1	82	n/a	n/a	1	0	0	0	0
1491.4184	1	82	n/a	n/a	1	0	0	0	0
1491.6714	1	82	n/a	n/a	1	0	0	0	0
1491.7604	1	82	n/a	n/a	1	0	0	0	0
1492.0004	1	82	n/a	n/a	1	0	0	0	0
1492.2874	1	82	n/a	n/a	1	0	0	0	0
1492.6144	1	82	n/a	n/a	1	0	0	0	0
1493.628	1	10	n/a	n/a	1	50	-0.1	0	1
1494.678	1	10	n/a	n/a	1	50	0.1	0	2
1495.7612	1	10	n/a	n/a	1	50	-0.1	0	3
1497.0446	1	10	n/a	n/a	1	50	0.2	0	4
1498.1444	1	10	n/a	n/a	1	50	-0.2	0	5
1499.2444	1	21	n/a	n/a	1	50	0.1	0	0
1500.3444	1	10	n/a	n/a	1	50	0	0	1
1501.4442	1	21	n/a	n/a	1	50	-0.1	0	0
1502.6276	1	10	n/a	n/a	1	50	0.1	0	1
1503.8108	1	21	n/a	n/a	1	50	0	0	0
1504.9274	1	10	n/a	n/a	1	50	-2.3283e-10	0	1
1505.9606	1	10	n/a	n/a	1	50	-0.1	0	2
1507.1106	1	10	n/a	n/a	1	50	0	0	3
1508.3938	1	10	n/a	n/a	1	50	-2.3283e-10	0	4
1509.4272	1	10	n/a	n/a	1	50	0.1	0	5
1510.4604	1	21	n/a	n/a	1	50	-0.1	0	0
1511.7104	1	10	n/a	n/a	1	50	0.1	0	1
1512.827	1	10	n/a	n/a	1	50	2.3283e-10	0	2
1513.9602	1	10	n/a	n/a	1	50	-0.1	0	3
1515.2768	1	10	n/a	n/a	1	50	0	0	4
1535.669	1	82	n/a	n/a	1	0	-0.1	0	0
1535.944	1	82	n/a	n/a	1	0	0	0	0
1536.121	1	82	n/a	n/a	1	0	0	0	0
1536.523	1	82	n/a	n/a	1	0	0	0	0
1536.588	1	82	n/a	n/a	1	0	0	0	0
1536.669	1	82	n/a	n/a	1	0	0	0	0
1536.903	1	82	n/a	n/a	1	0	0	0	0
1536.935	1	82	n/a	n/a	1	0	0	0	0
1537.214	1	82	n/a	n/a	1	0	0	0	0
1537.305	1	82	n/a	n/a	1	0	0	0	0
1538.6754	1	10	n/a	n/a	1	52	-2.3283e-10	0	1
1539.7754	1	10	n/a	n/a	1	52	0.1	0	2
1540.842	1	10	n/a	n/a	1	52	0	0	3
1541.9086	1	21	n/a	n/a	1	52	2.3283e-10	0	0
1543.0584	1	10	n/a	n/a	1	52	-0.2	0	1
1544.2584	1	10	n/a	n/a	1	52	0.1	0	2
1545.5584	1	10	n/a	n/a	1	52	0.1	0	3
1546.875	1	10	n/a	n/a	1	52	0	0	4
1547.9582	1	10	n/a	n/a	1	52	-0.1	0	5
1549.0414	1	21	n/a	n/a	1	52	-0.1	0	0
1550.108	1	10	n/a	n/a	1	52	0	0	1
1551.1914	1	10	n/a	n/a	1	52	0.1	0	2
1552.2412	1	10	n/a	n/a	1	52	-0.1	0	3
1553.5578	1	10	n/a	n/a	1	52	0	0	4
1554.7744	1	10	n/a	n/a	1	52	0	0	5
1555.991	1	21	n/a	n/a	1	52	0	0	0
1557.2576	1	10	n/a	n/a	1	52	0	0	1
1558.391	1	10	n/a	n/a	1	52	0.1	0	2
1559.4742	1	10	n/a	n/a	1	52	-2.3283e-10	0	3
1560.5574	1	21	n/a	n/a	1	52	-0.1	0	0
1561.658	1	82	n/a	n/a	1	0	0.1	0	0
1561.689	1	82	n/a	n/a	1	0	0	0	0
1561.757	1	82	n/a	n/a	1	0	0	0	0
1561.849	1	82	n/a	n/a	1	0	0	0	0
1562.092	1	82	n/a	n/a	1	0	0	0	0
1562.658	1	82	n/a	n/a	1	0	-0.1	0	0
1562.703	1	82	n/a	n/a	1	0	0	0	0
1562.836	1	82	n/a	n/a	1	0	0	0	0
1562.926	1	82	n/a	n/a	1	0	0	0	0
1563.288	1	82	n/a	n/a	1	0	0	0	0
1564.7738	1	10	n/a	n/a	1	52	0	0	1
1566.0404	1	10	n/a	n/a	1	52	0	0	2
1567.3404	1	10	n/a	n/a	1	52	0	0	3
1568.457	1	10	n/a	n/a	1	52	0	0	4
1569.7236	1	10	n/a	n/a	1	52	0	0	5
1570.9068	1	10	n/a	n/a	1	52	0	0	6
1572.0734	1	10	n/a	n/a	1	52	0	0	7
1573.24	1	21	n/a	n/a	1	52	0	0	0
1574.4566	1	10	n/a	n/a	1	52	0	0	1
1575.5398	1	10	n/a	n/a	1	52	-0.1	0	2
1576.7564	1	10	n/a	n/a	1	52	-2.3283e-10	0	3
1577.8898	1	10	n/a	n/a	1	52	0.1	0	4
1579.1564	1	10	n/a	n/a	1	52	0	0	5
1580.423	1	21	n/a	n/a	1	52	0	0	0
1581.5396	1	10	n/a	n/a	1	52	0	0	1
1582.5728	1	10	n/a	n/a	1	52	-0.1	0	2
1583.7394	1	10	n/a	n/a	1	52	-2.3283e-10	0	3
1584.8894	1	10	n/a	n/a	1	52	0.1	0	4
1585.9726	1	10	n/a	n/a	1	52	-0.1	0	5
1587.2392	1	10	n/a	n/a	1	52	-2.3283e-10	0	6
1588.0086	1	82	n/a	n/a	1	0	-0.1	0	0
1588.4136	1	82	n/a	n/a	1	0	0	0	0
1588.4486	1	82	n/a	n/a	1	0	0	0	0
1588.6136	1	82	n/a	n/a	1	0	0	0	0
1588.7056	1	82	n/a	n/a	1	0	0	0	0
1589.0086	1	82	n/a	n/a	1	0	0	0	0
1589.1666	1	82	n/a	n/a	1	0	0	0	0
1589.4806	1	82	n/a	n/a	1	0	0	0	0
1589.8916	1	82	n/a	n/a	1	0	0	0	0
1589.9436	1	82	n/a	n/a	1	0	0	0	0
1591.1056	1	10	n/a	n/a	1	52	0.1	0	1
1592.189	1	10	n/a	n/a	1	52	0.1	0	2
1593.4388	1	10	n/a	n/a	1	52	-0.1	0	3
1594.4722	1	10	n/a	n/a	1	52	0.1	0	4
1595.722	1	10	n/a	n/a	1	52	-0.1	0	5
1596.9552	1	10	n/a	n/a	1	52	-0.1	0	6
1598.1552	1	10	n/a	n/a	1	52	0.1	0	7
1599.3552	1	21	n/a	n/a	1	52	0	0	0
1600.555	1	10	n/a	n/a	1	52	-0.1	0	1
1601.6884	1	10	n/a	n/a	1	52	0.1	0	2
1603.005	1	10	n/a	n/a	1	52	0	0	3
1604.1548	1	10	n/a	n/a	1	52	-0.1	0	4
1605.4048	1	10	n/a	n/a	1	52	0.1	0	5
1606.6048	1	10	n/a	n/a	1	52	0	0	6
1607.738	1	10	n/a	n/a	1	52	-2.3283e-10	0	7
1608.8712	1	21	n/a	n/a	1	52	-0.1	0	0
1610.1878	1	10	n/a	n/a	1	52	0	0	1
1611.5212	1	10	n/a	n/a	1	52	0.1	0	2
1612.621	1	10	n/a	n/a	1	52	-0.1	0	3
1613.721	1	21	n/a	n/a	1	52	0.1	0	0
1614.5856	1	82	n/a	n/a	1	0	-0.2	0	0
1614.6656	1	82	n/a	n/a	1	0	0	0	0
1615.1006	1	82	n/a	n/a	1	0	0	0	0
1615.2346	1	82	n/a	n/a	1	0	0	0	0
1615.2846	1	82	n/a	n/a	1	0	0	0	0
1615.5856	1	82	n/a	n/a	1	0	0	0	0
1615.6406	1	82	n/a	n/a	1	0	0	0	0
1616.0216	1	82	n/a	n/a	1	0	0	0	0
1616.1986	1	82	n/a	n/a	1	0	0	0	0
1616.4326	1	82	n/a	n/a	1	0	0	0	0
1617.7374	1	10	n/a	n/a	1	52	0.1	0	1
1618.9206	1	10	n/a	n/a	1	52	2.3283e-10	0	2
1620.1372	1	10	n/a	n/a	1	52	-0.1	0	3
1621.3538	1	21	n/a	n/a	1	52	0	0	0
1622.6538	1	10	n/a	n/a	1	52	0.1	0	1
1623.837	1	10	n/a	n/a	1	52	0	0	2
1625.037	1	10	n/a	n/a	1	52	0	0	3
1626.2702	1	10	n/a	n/a	1	52	0	0	4
1627.5368	1	10	n/a	n/a	1	52	0	0	5
1628.6034	1	10	n/a	n/a	1	52	-2.3283e-10	0	6
1629.6534	1	10	n/a	n/a	1	52	0	0	7
1631.1063	1	21	n/a	n/a	1	52	351	1	0
1632.1896	1	10	n/a	n/a	1	52	351	1	1
1633.2229	1	10	n/a	n/a	1	52	351	1	2
1634.5395	1	10	n/a	n/a	1	52	351	1	3
1635.7394	1	10	n/a	n/a	1	52	351	1	4
1636.856	1	10	n/a	n/a	1	52	351	1	5
1638.0893	1	10	n/a	n/a	1	52	351	1	6
1639.2226	1	10	n/a	n/a	1	52	351	1	7
1640.3558	1	21	n/a	n/a	1	52	351	1	0
1641.1623	1	82	n/a	n/a	1	0	351	1	0
1641.2673	1	82	n/a	n/a	1	0	351	1	0
1641.3453	1	82	n/a	n/a	1	0	351	1	0
1641.5273	1	82	n/a	n/a	1	0	351	1	0
1641.7663	1	82	n/a	n/a	1	0	351	1	0
1642.1623	1	82	n/a	n/a	1	0	351	1	0
1642.3323	1	82	n/a	n/a	1	0	351	1	0
1642.4633	1	82	n/a	n/a	1	0	351	1	0
1642.5453	1	82	n/a	n/a	1	0	351	1	0
1642.9293	1	82	n/a	n/a	1	0	351	1	0
1644.1056	1	10	n/a	n/a	1	52	351	1	1
1645.2556	1	10	n/a	n/a	1	52	351	1	2
1646.4222	1	10	n/a	n/a	1	52	351	1	3
1647.4554	1	10	n/a	n/a	1	52	351	1	4
1648.5054	1	10	n/a	n/a	1	52	351	1	5
1649.6386	1	10	n/a	n/a	1	52	351	1	6
1650.8719	1	10	n/a	n/a	1	52	351	1	7
1652.1052	1	21	n/a	n/a	1	52	351	1	0
1653.1551	1	10	n/a	n/a	1	52	351	1	1
1654.2051	1	21	n/a	n/a	1	52	351	1	0
1655.2383	1	10	n/a	n/a	1	52	351	1	1
1656.3716	1	10	n/a	n/a	1	52	351	1	2
1657.4382	1	10	n/a	n/a	1	52	351	1	3
1658.5048	1	21	n/a	n/a	1	52	351	1	0
1659.6548	1	10	n/a	n/a	1	52	351	1	1
1660.788	1	10	n/a	n/a	1	52	351	1	2
1662.0046	1	10	n/a	n/a	1	52	351	1	3
1663.2212	1	21	n/a	n/a	1	52	351	1	0
1664.5045	1	10	n/a	n/a	1	52	351	1	1
1665.7878	1	10	n/a	n/a	1	52	351	1	2
1751.9528	1	82	n/a	n/a	1	0	351	1	0
1752.0498	1	82	n/a	n/a	1	0	351	1	0
1752.2188	1	82	n/a	n/a	1	0	351	1	0
1752.2628	1	82	n/a	n/a	1	0	351	1	0
1752.6998	1	82	n/a	n/a	1	0	351	1	0
1752.9528	1	82	n/a	n/a	1	0	351	1	0
1753.2158	1	82	n/a	n/a	1	0	351	1	0
1753.3178	1	82	n/a	n/a	1	0	351	1	0
1753.4508	1	82	n/a	n/a	1	0	351	1	0
1753.7718	1	82	n/a	n/a	1	0	351	1	0
1754.9328	1	10	n/a	n/a	1	52	351	1	1
1756.0328	1	21	n/a	n/a	1	52	351	1	0
1757.2827	1	10	n/a	n/a	1	52	351	1	1
1758.566	1	10	n/a	n/a	1	52	351	1	2
1759.8492	1	10	n/a	n/a	1	52	351	1	3
1760.8825	1	10	n/a	n/a	1	52	351	1	4
1762.1991	1	10	n/a	n/a	1	52	351	1	5
1763.449	1	10	n/a	n/a	1	52	351	1	6
1764.6156	1	10	n/a	n/a	1	52	351	1	7
1765.7822	1	21	n/a	n/a	1	52	351	1	0
1766.9155	1	10	n/a	n/a	1	52	351	1	1
1768.0488	1	21	n/a	n/a	1	52	351	1	0
1769.3487	1	10	n/a	n/a	1	52	351	1	1
1770.5653	1	10	n/a	n/a	1	52	351	1	2
1771.6152	1	10	n/a	n/a	1	52	351	1	3
1772.6652	1	21	n/a	n/a	1	52	351	1	0
1773.9651	1	10	n/a	n/a	1	52	351	1	1
1775.0651	1	10	n/a	n/a	1	52	351	1	2
1776.3817	1	10	n/a	n/a	1	52	351	1	3
1777.6816	1	21	n/a	n/a	1	52	351	1	0
1778.5743	1	82	n/a	n/a	1	0	351	1	0
1778.6123	1	82	n/a	n/a	1	0	351	1	0
1779.0463	1	82	n/a	n/a	1	0	351	1	0
1779.2133	1	82	n/a	n/a	1	0	351	1	0
1779.3443	1	82	n/a	n/a	1	0	351	1	0
1779.5743	1	82	n/a	n/a	1	0	351	1	0
1779.8863	1	82	n/a	n/a	1	0	351	1	0
1779.9213	1	82	n/a	n/a	1	0	351	1	0
1780.1013	1	82	n/a	n/a	1	0	351	1	0
1780.1723	1	82	n/a	n/a	1	0	351	1	0
1781.5314	1	10	n/a	n/a	1	52	351	1	1
1782.598	1	21	n/a	n/a	1	52	351	1	0
1783.6646	1	10	n/a	n/a	1	52	351	1	1
1784.7312	1	21	n/a	n/a	1	52	351	1	0
1786.0311	1	10	n/a	n/a	1	52	351	1	1
1787.2977	1	10	n/a	n/a	1	52	351	1	2
1788.3643	1	10	n/a	n/a	1	52	351	1	3
1789.6642	1	10	n/a	n/a	1	52	351	1	4
1790.9142	1	10	n/a	n/a	1	52	351	1	5
1792.1641	1	21	n/a	n/a	1	52	351	1	0
1793.414	1	10	n/a	n/a	1	52	351	1	1
1794.5306	1	10	n/a	n/a	1	52	351	1	2
1795.7139	1	10	n/a	n/a	1	52	351	1	3
1796.8805	1	10	n/a	n/a	1	52	351	1	4
1798.1804	1	10	n/a	n/a	1	52	351	1	5
1799.2304	1	10	n/a	n/a	1	52	351	1	6
1800.397	1	10	n/a	n/a	1	52	351	1	7
1801.5636	1	21	n/a	n/a	1	52	351	1	0
1802.7302	1	10	n/a	n/a	1	52	351	1	1
1803.8468	1	10	n/a	n/a	1	52	351	1	2
1804.9063	1	82	n/a	n/a	1	0	351	1	0
1804.9263	1	82	n/a	n/a	1	0	351	1	0
1805.0503	1	82	n/a	n/a	1	0	351	1	0
1805.2583	1	82	n/a	n/a	1	0	351	1	0
1805.3193	1	82	n/a	n/a	1	0	351	1	0
1805.9064	1	82	n/a	n/a	1	0	351	1	0
1806.1274	1	82	n/a	n/a	1	0	351	1	0
1806.1944	1	82	n/a	n/a	1	0	351	1	0
1806.4454	1	82	n/a	n/a	1	0	351	1	0
1806.5674	1	82	n/a	n/a	1	0	351	1	0
1807.9132	1	10	n/a	n/a	1	52	351	1	1
1809.0298	1	21	n/a	n/a	1	52	351	1	0
1810.2464	1	10	n/a	n/a	1	52	351	1	1
1811.3631	1	10	n/a	n/a	1	52	351	1	2
1812.4463	1	10	n/a	n/a	1	52	351	1	3
1813.6296	1	10	n/a	n/a	1	52	351	1	4
1814.6795	1	10	n/a	n/a	1	52	351	1	5
1815.7295	1	21	n/a	n/a	1	52	351	1	0
1816.8794	1	10	n/a	n/a	1	52	351	1	1
1818.0293	1	21	n/a	n/a	1	52	351	1	0
1819.146	1	10	n/a	n/a	1	52	351	1	1
1820.2626	1	21	n/a	n/a	1	52	351	1	0
1821.5625	1	10	n/a	n/a	1	52	351	1	1
1822.8458	1	10	n/a	n/a	1	52	351	1	2
1823.9624	1	10	n/a	n/a	1	52	351	1	3
1824.9956	1	10	n/a	n/a	1	52	351	1	4
1826.1122	1	10	n/a	n/a	1	52	351	1	5
1827.2288	1	21	n/a	n/a	1	52	351	1	0
1828.4288	1	10	n/a	n/a	1	52	351	1	1
1829.6454	1	10	n/a	n/a	1	52	351	1	2
1830.6299	1	82	n/a	n/a	1	0	351	1	0
1830.9909	1	82	n/a	n/a	1	0	351	1	0
1831.3789	1	82	n/a	n/a	1	0	351	1	0
1831.4549	1	82	n/a	n/a	1	0	351	1	0
1831.5929	1	82	n/a	n/a	1	0	351	1	0
1831.6299	1	82	n/a	n/a	1	0	351	1	0
1831.9559	1	82	n/a	n/a	1	0	351	1	0
1832.0089	1	82	n/a	n/a	1	0	351	1	0
1832.2299	1	82	n/a	n/a	1	0	351	1	0
1832.3059	1	82	n/a	n/a	1	0	351	1	0
1833.8118	1	10	n/a	n/a	1	52	351	1	1
1835.0951	1	10	n/a	n/a	1	52	351	1	2
1836.295	1	10	n/a	n/a	1	52	351	1	3
1837.3616	1	10	n/a	n/a	1	52	351	1	4
1838.6615	1	10	n/a	n/a	1	52	351	1	5
1839.9615	1	21	n/a	n/a	1	52	351	1	0
1841.1447	1	10	n/a	n/a	1	52	351	1	1
1842.378	1	10	n/a	n/a	1	52	351	1	2
1843.6446	1	10	n/a	n/a	1	52	351	1	3
1844.8779	1	10	n/a	n/a	1	52	351	1	4
1846.1611	1	10	n/a	n/a	1	52	351	1	5
1847.4444	1	21	n/a	n/a	1	52	351	1	0
1848.5777	1	10	n/a	n/a	1	52	351	1	1
1849.7109	1	21	n/a	n/a	1	52	351	1	0
1850.8609	1	10	n/a	n/a	1	52	351	1	1
1851.9441	1	10	n/a	n/a	1	52	351	1	2
1853.2441	1	10	n/a	n/a	1	52	351	1	3
1854.5273	1	10	n/a	n/a	1	52	351	1	4
1855.7273	1	10	n/a	n/a	1	52	351	1	5
1856.9272	1	21	n/a	n/a	1	52	351	1	0
1857.958	1	82	n/a	n/a	1	0	351	1	0
1858.226	1	82	n/a	n/a	1	0	351	1	0
1858.386	1	82	n/a	n/a	1	0	351	1	0
1858.483	1	82	n/a	n/a	1	0	351	1	0
1858.834	1	82	n/a	n/a	1	0	351	1	0
1858.958	1	82	n/a	n/a	1	0	351	1	0
1859.026	1	82	n/a	n/a	1	0	351	1	0
1859.201	1	82	n/a	n/a	1	0	351	1	0
1859.592	1	82	n/a	n/a	1	0	351	1	0
1859.703	1	82	n/a	n/a	1	0	351	1	0
1861.127	1	10	n/a	n/a	1	52	351	1	1
1862.3102	1	10	n/a	n/a	1	52	351	1	2
1863.3935	1	10	n/a	n/a	1	52	351	1	3
1864.4768	1	10	n/a	n/a	1	52	351	1	4
1865.5767	1	10	n/a	n/a	1	52	351	1	5
1866.86	1	10	n/a	n/a	1	52	351	1	6
1868.0266	1	10	n/a	n/a	1	52	351	1	7
1869.1932	1	21	n/a	n/a	1	52	351	1	0
1870.4765	1	10	n/a	n/a	1	52	351	1	1
1871.7431	1	10	n/a	n/a	1	52	351	1	2
1872.8263	1	10	n/a	n/a	1	52	351	1	3
1873.9096	1	21	n/a	n/a	1	52	351	1	0
1875.2262	1	10	n/a	n/a	1	52	351	1	1
1876.5095	1	10	n/a	n/a	1	52	351	1	2
1877.6094	1	10	n/a	n/a	1	52	351	1	3
1878.7593	1	10	n/a	n/a	1	52	351	1	4
1879.9926	1	10	n/a	n/a	1	52	351	1	5
1881.2592	1	10	n/a	n/a	1	52	351	1	6
1882.5258	1	10	n/a	n/a	1	52	351	1	7
1883.7924	1	21	n/a	n/a	1	52	351	1	0
1895.1652	1	82	n/a	n/a	1	0	351	1	0
1895.2242	1	82	n/a	n/a	1	0	351	1	0
1895.6082	1	82	n/a	n/a	1	0	351	1	0
1895.7312	1	82	n/a	n/a	1	0	351	1	0
1896.0002	1	82	n/a	n/a	1	0	351	1	0
1896.1652	1	82	n/a	n/a	1	0	351	1	0
1896.5422	1	82	n/a	n/a	1	0	351	1	0
1896.8482	1	82	n/a	n/a	1	0	351	1	0
1896.9832	1	82	n/a	n/a	1	0	351	1	0
1897.0662	1	82	n/a	n/a	1	0	351	1	0
1898.3249	1	10	n/a	n/a	1	50	351	1	1
1899.3582	1	10	n/a	n/a	1	50	351	1	2
1900.5915	1	10	n/a	n/a	1	50	351	1	3
1901.8247	1	21	n/a	n/a	1	50	351	1	0
1903.1246	1	10	n/a	n/a	1	50	351	1	1
1904.3579	1	10	n/a	n/a	1	50	351	1	2
1905.6912	1	10	n/a	n/a	1	50	351	1	3
1906.8744	1	10	n/a	n/a	1	50	351	1	4
1907.9577	1	10	n/a	n/a	1	50	351	1	5
1909.041	1	21	n/a	n/a	1	50	351	1	0
1910.1076	1	10	n/a	n/a	1	50	351	1	1
1911.1742	1	10	n/a	n/a	1	50	351	1	2
1912.2408	1	10	n/a	n/a	1	50	351	1	3
1913.3074	1	21	n/a	n/a	1	50	351	1	0
1914.624	1	10	n/a	n/a	1	50	351	1	1
1915.9406	1	21	n/a	n/a	1	50	351	1	0
1917.1739	1	10	n/a	n/a	1	50	351	1	1
1918.2905	1	10	n/a	n/a	1	50	351	1	2
1919.3738	1	10	n/a	n/a	1	50	351	1	3
1920.457	1	21	n/a	n/a	1	50	351	1	0
1921.3365	1	82	n/a	n/a	1	0	351	1	0
1921.4215	1	82	n/a	n/a	1	0	351	1	0
1921.6445	1	82	n/a	n/a	1	0	351	1	0
1922.0505	1	82	n/a	n/a	1	0	351	1	0
1922.1905	1	82	n/a	n/a	1	0	351	1	0
1922.3366	1	82	n/a	n/a	1	0	351	1	0
1922.7516	1	82	n/a	n/a	1	0	351	1	0
1922.9046	1	82	n/a	n/a	1	0	351	1	0
1923.1226	1	82	n/a	n/a	1	0	351	1	0
1923.1526	1	82	n/a	n/a	1	0	351	1	0
1924.3068	1	10	n/a	n/a	1	50	351	1	1
1925.5234	1	10	n/a	n/a	1	50	351	1	2
1926.6567	1	10	n/a	n/a	1	50	351	1	3
1927.79	1	21	n/a	n/a	1	50	351	1	0
1929.0232	1	10	n/a	n/a	1	50	351	1	1
1930.2232	1	10	n/a	n/a	1	50	351	1	2
1931.5397	1	10	n/a	n/a	1	50	351	1	3
1932.7063	1	10	n/a	n/a	1	50	351	1	4
1933.9896	1	10	n/a	n/a	1	50	351	1	5
1935.2729	1	21	n/a	n/a	1	50	351	1	0
1936.5561	1	10	n/a	n/a	1	50	351	1	1
1937.8394	1	21	n/a	n/a	1	50	351	1	0
1939.156	1	10	n/a	n/a	1	50	351	1	1
1940.2726	1	10	n/a	n/a	1	50	351	1	2
1941.4725	1	10	n/a	n/a	1	50	351	1	3
1942.7058	1	10	n/a	n/a	1	50	351	1	4
1943.7724	1	10	n/a	n/a	1	50	351	1	5
1944.839	1	21	n/a	n/a	1	50	351	1	0
1945.9056	1	10	n/a	n/a	1	50	351	1	1
1947.2389	1	10	n/a	n/a	1	50	351	1	2
1948.3126	1	82	n/a	n/a	1	0	351	1	0
1948.4066	1	82	n/a	n/a	1	0	351	1	0
1948.7946	1	82	n/a	n/a	1	0	351	1	0
1948.8496	1	82	n/a	n/a	1	0	351	1	0
1949.1906	1	82	n/a	n/a	1	0	351	1	0
1949.3126	1	82	n/a	n/a	1	0	351	1	0
1949.3546	1	82	n/a	n/a	1	0	351	1	0
1949.3746	1	82	n/a	n/a	1	0	351	1	0
1949.4756	1	82	n/a	n/a	1	0	351	1	0
1949.7916	1	82	n/a	n/a	1	0	351	1	0
1951.4386	1	10	n/a	n/a	1	50	351	1	1
1952.6219	1	10	n/a	n/a	1	50	351	1	2
1953.7552	1	10	n/a	n/a	1	50	351	1	3
1954.8885	1	21	n/a	n/a	1	50	351	1	0
1956.1384	1	10	n/a	n/a	1	50	351	1	1
1957.3883	1	21	n/a	n/a	1	50	351	1	0
1958.5049	1	10	n/a	n/a	1	50	351	1	1
1959.7382	1	10	n/a	n/a	1	50	351	1	2
1960.9215	1	10	n/a	n/a	1	50	351	1	3
1962.1214	1	10	n/a	n/a	1	50	351	1	4
1963.2547	1	10	n/a	n/a	1	50	351	1	5
1964.3879	1	21	n/a	n/a	1	50	351	1	0
1965.5545	1	10	n/a	n/a	1	50	351	1	1
1966.7211	1	21	n/a	n/a	1	50	351	1	0
1967.7544	1	10	n/a	n/a	1	50	351	1	1
1968.8044	1	10	n/a	n/a	1	50	351	1	2
1969.8376	1	10	n/a	n/a	1	50	351	1	3
1970.9542	1	10	n/a	n/a	1	50	351	1	4
1972.1208	1	10	n/a	n/a	1	50	351	1	5
1973.2874	1	21	n/a	n/a	1	50	351	1	0
1974.4022	1	82	n/a	n/a	1	0	351	1	0
1974.5222	1	82	n/a	n/a	1	0	351	1	0
1974.7732	1	82	n/a	n/a	1	0	351	1	0
1974.8072	1	82	n/a	n/a	1	0	351	1	0
1975.2462	1	82	n/a	n/a	1	0	351	1	0
1975.4022	1	82	n/a	n/a	1	0	351	1	0
1975.5142	1	82	n/a	n/a	1	0	351	1	0
1975.8892	1	82	n/a	n/a	1	0	351	1	0
1976.1512	1	82	n/a	n/a	1	0	351	1	0
1976.3212	1	82	n/a	n/a	1	0	351	1	0
1977.4872	1	10	n/a	n/a	1	50	351	1	1
1978.6371	1	10	n/a	n/a	1	50	351	1	2
1979.9204	1	10	n/a	n/a	1	50	351	1	3
1981.2037	1	10	n/a	n/a	1	50	351	1	4
1982.4869	1	10	n/a	n/a	1	50	351	1	5
1983.7869	1	10	n/a	n/a	1	50	351	1	6
1984.9201	1	10	n/a	n/a	1	50	351	1	7
1986.0534	1	21	n/a	n/a	1	50	351	1	0
1987.1033	1	10	n/a	n/a	1	50	351	1	1
1988.2366	1	10	n/a	n/a	1	50	351	1	2
1989.4699	1	10	n/a	n/a	1	50	351	1	3
1990.7365	1	10	n/a	n/a	1	50	351	1	4
1991.8031	1	10	n/a	n/a	1	50	351	1	5
1992.9364	1	10	n/a	n/a	1	50	351	1	6
1994.053	1	10	n/a	n/a	1	50	351	1	7
1995.1696	1	21	n/a	n/a	1	50	351	1	0
1996.2695	1	10	n/a	n/a	1	50	351	1	1
1997.5194	1	10	n/a	n/a	1	50	351	1	2
1998.7027	1	10	n/a	n/a	1	50	351	1	3
1999.886	1	21	n/a	n/a	1	50	351	1	0
2000.9395	1	82	n/a	n/a	1	0	351	1	0
2001.2495	1	82	n/a	n/a	1	0	351	1	0
2001.4735	1	82	n/a	n/a	1	0	351	1	0
2001.8425	1	82	n/a	n/a	1	0	351	1	0
2001.8975	1	82	n/a	n/a	1	0	351	1	0
2001.9395	1	82	n/a	n/a	1	0	351	1	0
2002.2615	1	82	n/a	n/a	1	0	351	1	0
2002.3635	1	82	n/a	n/a	1	0	351	1	0
2002.5255	1	82	n/a	n/a	1	0	351	1	0
2002.9065	1	82	n/a	n/a	1	0	351	1	0
2004.0524	1	10	n/a	n/a	1	50	351	1	1
2005.169	1	10	n/a	n/a	1	50	351	1	2
2006.219	1	10	n/a	n/a	1	50	351	1	3
2007.3356	1	10	n/a	n/a	1	50	351	1	4
2008.6188	1	10	n/a	n/a	1	50	351	1	5
2009.9021	1	21	n/a	n/a	1	50	351	1	0
2011.102	1	10	n/a	n/a	1	50	351	1	1
2012.302	1	21	n/a	n/a	1	50	351	1	0
2013.3852	1	10	n/a	n/a	1	50	351	1	1
2014.6352	1	10	n/a	n/a	1	50	351	1	2
2015.6851	1	10	n/a	n/a	1	50	351	1	3
2016.885	1	10	n/a	n/a	1	50	351	1	4
2018.1683	1	10	n/a	n/a	1	50	351	1	5
2019.4516	1	21	n/a	n/a	1	50	351	1	0
2020.6515	1	10	n/a	n/a	1	50	351	1	1
2021.7348	1	10	n/a	n/a	1	50	351	1	2
2022.768	1	10	n/a	n/a	1	50	351	1	3
2023.918	1	10	n/a	n/a	1	50	351	1	4
2025.0346	1	10	n/a	n/a	1	50	351	1	5
2026.1512	1	21	n/a	n/a	1	50	351	1	0
2067.628	1	81	n/a	n/a	1	0	351	1	0
2067.828	1	81	n/a	n/a	1	0	351	1	0
2068.028	1	81	n/a	n/a	1	0	351	1	0
2068.228	1	81	n/a	n/a	1	0	351	1	0
2068.428	1	81	n/a	n/a	1	0	351	1	0
2068.628	1	81	n/a	n/a	1	0	351	1	0
2068.828	1	81	n/a	n/a	1	0	351	1	0
2069.028	1	81	n/a	n/a	1	0	351	1	0
2069.228	1	81	n/a	n/a	1	0	351	1	0
2069.428	1	81	n/a	n/a	1	0	351	1	0
2070.7654	1	10	n/a	n/a	1	51	351	1	1
2071.932	1	10	n/a	n/a	1	51	351	1	2
2073.0319	1	10	n/a	n/a	1	51	351	1	3
2074.1319	1	10	n/a	n/a	1	51	351	1	4
2075.3985	1	10	n/a	n/a	1	51	351	1	5
2076.6651	1	21	n/a	n/a	1	51	351	1	0
2077.965	1	10	n/a	n/a	1	51	351	1	1
2079.0483	1	10	n/a	n/a	1	51	351	1	2
2080.1815	1	10	n/a	n/a	1	51	351	1	3
2081.2148	1	10	n/a	n/a	1	51	351	1	4
2082.3148	1	10	n/a	n/a	1	51	351	1	5
2083.4147	1	21	n/a	n/a	1	51	351	1	0
2084.448	1	10	n/a	n/a	1	51	351	1	1
2085.6646	1	10	n/a	n/a	1	51	351	1	2
2086.8978	1	10	n/a	n/a	1	51	351	1	3
2088.0311	1	10	n/a	n/a	1	51	351	1	4
2089.0644	1	10	n/a	n/a	1	51	351	1	5
2090.0977	1	21	n/a	n/a	1	51	351	1	0
2091.2643	1	10	n/a	n/a	1	51	351	1	1
2092.3642	1	10	n/a	n/a	1	51	351	1	2
2093.4196	1	81	n/a	n/a	1	0	351	1	0
2093.6196	1	81	n/a	n/a	1	0	351	1	0
2093.8196	1	81	n/a	n/a	1	0	351	1	0
2094.0196	1	81	n/a	n/a	1	0	351	1	0
2094.2196	1	81	n/a	n/a	1	0	351	1	0
2094.4197	1	81	n/a	n/a	1	0	351	1	0
2094.6197	1	81	n/a	n/a	1	0	351	1	0
2094.8197	1	81	n/a	n/a	1	0	351	1	0
2095.0197	1	81	n/a	n/a	1	0	351	1	0
2095.2197	1	81	n/a	n/a	1	0	351	1	0
2096.5973	1	10	n/a	n/a	1	51	351	1	1
2097.6972	1	10	n/a	n/a	1	51	351	1	2
2098.7472	1	10	n/a	n/a	1	51	351	1	3
2100.0138	1	10	n/a	n/a	1	51	351	1	4
2101.2137	1	10	n/a	n/a	1	51	351	1	5
2102.4136	1	21	n/a	n/a	1	51	351	1	0
2103.4469	1	10	n/a	n/a	1	51	351	1	1
2104.6135	1	10	n/a	n/a	1	51	351	1	2
2105.8301	1	10	n/a	n/a	1	51	351	1	3
2106.9967	1	10	n/a	n/a	1	51	351	1	4
2108.1467	1	10	n/a	n/a	1	51	351	1	5
2109.2966	1	21	n/a	n/a	1	51	351	1	0
2110.3299	1	10	n/a	n/a	1	51	351	1	1
2111.5298	1	10	n/a	n/a	1	51	351	1	2
2112.8297	1	10	n/a	n/a	1	51	351	1	3
2114.0797	1	10	n/a	n/a	1	51	351	1	4
2115.2296	1	10	n/a	n/a	1	51	351	1	5
2116.4129	1	10	n/a	n/a	1	51	351	1	6
2117.5961	1	10	n/a	n/a	1	51	351	1	7
2118.7794	1	21	n/a	n/a	1	51	351	1	0
2119.5351	1	81	n/a	n/a	1	0	351	1	0
2119.7351	1	81	n/a	n/a	1	0	351	1	0
2119.9351	1	81	n/a	n/a	1	0	351	1	0
2120.1351	1	81	n/a	n/a	1	0	351	1	0
2120.3351	1	81	n/a	n/a	1	0	351	1	0
2120.5351	1	81	n/a	n/a	1	0	351	1	0
2120.7351	1	81	n/a	n/a	1	0	351	1	0
2120.9351	1	81	n/a	n/a	1	0	351	1	0
2121.1351	1	81	n/a	n/a	1	0	351	1	0
2121.3351	1	81	n/a	n/a	1	0	351	1	0
2122.5625	1	10	n/a	n/a	1	51	351	1	1
2123.7125	1	10	n/a	n/a	1	51	351	1	2
2124.9791	1	10	n/a	n/a	1	51	351	1	3
2126.0123	1	10	n/a	n/a	1	51	351	1	4
2127.1123	1	10	n/a	n/a	1	51	351	1	5
2128.2122	1	21	n/a	n/a	1	51	351	1	0
2129.3288	1	10	n/a	n/a	1	51	351	1	1
2130.4621	1	10	n/a	n/a	1	51	351	1	2
2131.612	1	10	n/a	n/a	1	51	351	1	3
2132.8953	1	10	n/a	n/a	1	51	351	1	4
2133.9452	1	10	n/a	n/a	1	51	351	1	5
2134.9952	1	21	n/a	n/a	1	51	351	1	0
2136.2118	1	10	n/a	n/a	1	51	351	1	1
2137.4284	1	21	n/a	n/a	1	51	351	1	0
2138.7283	1	10	n/a	n/a	1	51	351	1	1
2139.9949	1	10	n/a	n/a	1	51	351	1	2
2141.0782	1	10	n/a	n/a	1	51	351	1	3
2142.3948	1	10	n/a	n/a	1	51	351	1	4
2143.6947	1	10	n/a	n/a	1	51	351	1	5
2144.8613	1	10	n/a	n/a	1	51	351	1	6
2145.978	1	81	n/a	n/a	1	0	351	1	0
2146.178	1	81	n/a	n/a	1	0	351	1	0
2146.378	1	81	n/a	n/a	1	0	351	1	0
2146.578	1	81	n/a	n/a	1	0	351	1	0
2146.778	1	81	n/a	n/a	1	0	351	1	0
2146.978	1	81	n/a	n/a	1	0	351	1	0
2147.178	1	81	n/a	n/a	1	0	351	1	0
2147.378	1	81	n/a	n/a	1	0	351	1	0
2147.578	1	81	n/a	n/a	1	0	351	1	0
2147.778	1	81	n/a	n/a	1	0	351	1	0
2148.9944	1	10	n/a	n/a	1	51	351	1	1
2150.311	1	10	n/a	n/a	1	51	351	1	2
2151.5276	1	10	n/a	n/a	1	51	351	1	3
2152.7442	1	10	n/a	n/a	1	51	351	1	4
2153.8608	1	10	n/a	n/a	1	51	351	1	5
2154.9774	1	21	n/a	n/a	1	51	351	1	0
2156.1607	1	10	n/a	n/a	1	51	351	1	1
2157.2439	1	10	n/a	n/a	1	51	351	1	2
2158.5605	1	10	n/a	n/a	1	51	351	1	3
2159.7105	1	10	n/a	n/a	1	51	351	1	4
2160.9104	1	10	n/a	n/a	1	51	351	1	5
2162.1103	1	21	n/a	n/a	1	51	351	1	0
2163.2936	1	10	n/a	n/a	1	51	351	1	1
2164.3269	1	10	n/a	n/a	1	51	351	1	2
2165.4268	1	10	n/a	n/a	1	51	351	1	3
2166.6268	1	10	n/a	n/a	1	51	351	1	4
2167.7767	1	10	n/a	n/a	1	51	351	1	5
2168.9266	1	21	n/a	n/a	1	51	351	1	0
2170.1432	1	10	n/a	n/a	1	51	351	1	1
2171.2098	1	10	n/a	n/a	1	51	351	1	2
2172.0883	1	81	n/a	n/a	1	0	351	1	0
2172.2883	1	81	n/a	n/a	1	0	351	1	0
2172.4883	1	81	n/a	n/a	1	0	351	1	0
2172.6883	1	81	n/a	n/a	1	0	351	1	0
2172.8883	1	81	n/a	n/a	1	0	351	1	0
2173.0883	1	81	n/a	n/a	1	0	351	1	0
2173.2883	1	81	n/a	n/a	1	0	351	1	0
2173.4883	1	81	n/a	n/a	1	0	351	1	0
2173.6883	1	81	n/a	n/a	1	0	351	1	0
2173.8883	1	81	n/a	n/a	1	0	351	1	0
2175.1096	1	10	n/a	n/a	1	51	351	1	1
2176.2596	1	10	n/a	n/a	1	51	351	1	2
2177.5595	1	10	n/a	n/a	1	51	351	1	3
2178.8594	1	21	n/a	n/a	1	51	351	1	0
2180.076	1	10	n/a	n/a	1	51	351	1	1
2181.376	1	10	n/a	n/a	1	51	351	1	2
2182.6259	1	10	n/a	n/a	1	51	351	1	3
2183.8591	1	10	n/a	n/a	1	51	351	1	4
2185.0924	1	10	n/a	n/a	1	51	351	1	5
2186.3257	1	21	n/a	n/a	1	51	351	1	0
2187.5756	1	10	n/a	n/a	1	51	351	1	1
2188.6922	1	10	n/a	n/a	1	51	351	1	2
2190.0088	1	10	n/a	n/a	1	51	351	1	3
2191.3254	1	21	n/a	n/a	1	51	351	1	0
2192.392	1	10	n/a	n/a	1	51	351	1	1
2193.5919	1	10	n/a	n/a	1	51	351	1	2
2194.8585	1	10	n/a	n/a	1	51	351	1	3
2196.1418	1	10	n/a	n/a	1	51	351	1	4
2197.1917	1	10	n/a	n/a	1	51	351	1	5
2198.3583	1	10	n/a	n/a	1	51	351	1	6
