onset	duration	value	response	rt	good	TMS	seq
163.425	1	81	n/a	n/a	1	0	0
163.625	1	81	n/a	n/a	1	0	0
163.825	1	81	n/a	n/a	1	0	0
164.025	1	81	n/a	n/a	1	0	0
164.225	1	81	n/a	n/a	1	0	0
164.425	1	81	n/a	n/a	1	0	0
164.625	1	81	n/a	n/a	1	0	0
164.825	1	81	n/a	n/a	1	0	0
165.025	1	81	n/a	n/a	1	0	0
165.225	1	81	n/a	n/a	1	0	0
166.6346	1	10	n/a	n/a	1	51	1
167.9512	1	10	n/a	n/a	1	51	2
169.0344	1	10	n/a	n/a	1	51	3
170.1678	1	10	n/a	n/a	1	51	4
171.2344	1	10	n/a	n/a	1	51	5
172.301	1	21	n/a	n/a	1	51	0
173.5008	1	10	n/a	n/a	1	51	1
174.6008	1	10	n/a	n/a	1	51	2
175.6674	1	10	n/a	n/a	1	51	3
176.934	1	10	n/a	n/a	1	51	4
178.034	1	10	n/a	n/a	1	51	5
179.3506	1	10	n/a	n/a	1	51	6
180.4838	1	10	n/a	n/a	1	51	7
181.617	1	21	n/a	n/a	1	51	0
182.8002	1	10	n/a	n/a	1	51	1
183.8336	1	10	n/a	n/a	1	51	2
185.0334	1	10	n/a	n/a	1	51	3
186.1002	1	10	n/a	n/a	1	51	4
187.3334	1	10	n/a	n/a	1	51	5
188.5666	1	21	n/a	n/a	1	51	0
199.901	1	81	n/a	n/a	1	0	0
200.101	1	81	n/a	n/a	1	0	0
200.301	1	81	n/a	n/a	1	0	0
200.501	1	81	n/a	n/a	1	0	0
200.701	1	81	n/a	n/a	1	0	0
200.901	1	81	n/a	n/a	1	0	0
201.101	1	81	n/a	n/a	1	0	0
201.301	1	81	n/a	n/a	1	0	0
201.501	1	81	n/a	n/a	1	0	0
201.701	1	81	n/a	n/a	1	0	0
202.9324	1	10	n/a	n/a	1	51	1
204.099	1	10	n/a	n/a	1	51	2
205.199	1	10	n/a	n/a	1	51	3
206.5156	1	10	n/a	n/a	1	51	4
207.6488	1	10	n/a	n/a	1	51	5
208.782	1	21	n/a	n/a	1	51	0
209.932	1	10	n/a	n/a	1	51	1
211.0986	1	10	n/a	n/a	1	51	2
212.3818	1	10	n/a	n/a	1	51	3
213.6652	1	21	n/a	n/a	1	51	0
214.815	1	10	n/a	n/a	1	51	1
215.965	1	21	n/a	n/a	1	51	0
217.2816	1	10	n/a	n/a	1	51	1
218.5982	1	21	n/a	n/a	1	51	0
219.8814	1	10	n/a	n/a	1	51	1
220.9646	1	10	n/a	n/a	1	51	2
221.9812	1	10	n/a	n/a	1	51	3
223.0312	1	10	n/a	n/a	1	51	4
224.0646	1	10	n/a	n/a	1	51	5
225.2644	1	10	n/a	n/a	1	51	6
236.1788	1	81	n/a	n/a	1	0	0
236.3788	1	81	n/a	n/a	1	0	0
236.5788	1	81	n/a	n/a	1	0	0
236.7788	1	81	n/a	n/a	1	0	0
236.9788	1	81	n/a	n/a	1	0	0
237.1788	1	81	n/a	n/a	1	0	0
237.3788	1	81	n/a	n/a	1	0	0
237.5788	1	81	n/a	n/a	1	0	0
237.7788	1	81	n/a	n/a	1	0	0
237.9788	1	81	n/a	n/a	1	0	0
239.2636	1	10	n/a	n/a	1	51	1
240.5468	1	10	n/a	n/a	1	51	2
241.5802	1	10	n/a	n/a	1	51	3
242.6468	1	10	n/a	n/a	1	51	4
243.9634	1	10	n/a	n/a	1	51	5
245.28	1	21	n/a	n/a	1	51	0
246.3966	1	10	n/a	n/a	1	51	1
247.5464	1	10	n/a	n/a	1	51	2
248.5798	1	10	n/a	n/a	1	51	3
249.613	1	21	n/a	n/a	1	51	0
250.6462	1	10	n/a	n/a	1	51	1
251.8462	1	10	n/a	n/a	1	51	2
253.1462	1	10	n/a	n/a	1	51	3
254.4628	1	10	n/a	n/a	1	51	4
255.6626	1	10	n/a	n/a	1	51	5
256.8626	1	21	n/a	n/a	1	51	0
257.9124	1	10	n/a	n/a	1	51	1
259.1458	1	10	n/a	n/a	1	51	2
260.4624	1	10	n/a	n/a	1	51	3
261.729	1	10	n/a	n/a	1	51	4
272.1964	1	81	n/a	n/a	1	0	0
272.3964	1	81	n/a	n/a	1	0	0
272.5964	1	81	n/a	n/a	1	0	0
272.7964	1	81	n/a	n/a	1	0	0
272.9964	1	81	n/a	n/a	1	0	0
273.1964	1	81	n/a	n/a	1	0	0
273.3964	1	81	n/a	n/a	1	0	0
273.5964	1	81	n/a	n/a	1	0	0
273.7964	1	81	n/a	n/a	1	0	0
273.9964	1	81	n/a	n/a	1	0	0
275.3948	1	10	n/a	n/a	1	51	1
276.6948	1	21	n/a	n/a	1	51	0
277.9946	1	10	n/a	n/a	1	51	1
279.1612	1	10	n/a	n/a	1	51	2
280.2944	1	10	n/a	n/a	1	51	3
281.411	1	10	n/a	n/a	1	51	4
282.7444	1	10	n/a	n/a	1	51	5
283.9442	1	10	n/a	n/a	1	51	6
285.0442	1	10	n/a	n/a	1	51	7
286.1442	1	21	n/a	n/a	1	51	0
287.2274	1	10	n/a	n/a	1	51	1
288.5274	1	10	n/a	n/a	1	51	2
289.7106	1	10	n/a	n/a	1	51	3
291.0106	1	10	n/a	n/a	1	51	4
292.0772	1	10	n/a	n/a	1	51	5
293.3438	1	10	n/a	n/a	1	51	6
294.5604	1	10	n/a	n/a	1	51	7
295.777	1	21	n/a	n/a	1	51	0
297.0268	1	10	n/a	n/a	1	51	1
298.2768	1	10	n/a	n/a	1	51	2
359.1436	1	81	n/a	n/a	1	0	0
359.2266	1	81	n/a	n/a	1	0	0
359.5866	1	81	n/a	n/a	1	0	0
359.7546	1	81	n/a	n/a	1	0	0
359.9826	1	81	n/a	n/a	1	0	0
360.1436	1	81	n/a	n/a	1	0	0
360.4406	1	81	n/a	n/a	1	0	0
360.4626	1	81	n/a	n/a	1	0	0
360.5396	1	81	n/a	n/a	1	0	0
360.9766	1	81	n/a	n/a	1	0	0
362.3562	1	10	n/a	n/a	1	50	1
363.4896	1	10	n/a	n/a	1	50	2
364.8228	1	10	n/a	n/a	1	50	3
366.156	1	21	n/a	n/a	1	50	0
367.4394	1	10	n/a	n/a	1	50	1
368.7392	1	10	n/a	n/a	1	50	2
369.8726	1	10	n/a	n/a	1	50	3
371.0058	1	21	n/a	n/a	1	50	0
372.3058	1	10	n/a	n/a	1	50	1
373.589	1	10	n/a	n/a	1	50	2
374.7388	1	10	n/a	n/a	1	50	3
375.8888	1	21	n/a	n/a	1	50	0
376.9388	1	10	n/a	n/a	1	50	1
378.0386	1	10	n/a	n/a	1	50	2
379.2052	1	10	n/a	n/a	1	50	3
380.3718	1	21	n/a	n/a	1	50	0
381.6384	1	10	n/a	n/a	1	50	1
382.6718	1	10	n/a	n/a	1	50	2
383.9716	1	10	n/a	n/a	1	50	3
385.1716	1	10	n/a	n/a	1	50	4
396.3044	1	81	n/a	n/a	1	0	0
396.3414	1	81	n/a	n/a	1	0	0
396.4464	1	81	n/a	n/a	1	0	0
396.7614	1	81	n/a	n/a	1	0	0
397.1614	1	81	n/a	n/a	1	0	0
397.3044	1	81	n/a	n/a	1	0	0
397.4534	1	81	n/a	n/a	1	0	0
397.7424	1	81	n/a	n/a	1	0	0
398.0944	1	81	n/a	n/a	1	0	0
398.2154	1	81	n/a	n/a	1	0	0
399.504	1	10	n/a	n/a	1	50	1
400.804	1	21	n/a	n/a	1	50	0
402.054	1	10	n/a	n/a	1	50	1
403.3538	1	10	n/a	n/a	1	50	2
404.6538	1	10	n/a	n/a	1	50	3
405.787	1	10	n/a	n/a	1	50	4
406.937	1	10	n/a	n/a	1	50	5
408.1702	1	10	n/a	n/a	1	50	6
409.4202	1	10	n/a	n/a	1	50	7
410.67	1	21	n/a	n/a	1	50	0
411.9366	1	10	n/a	n/a	1	50	1
413.1032	1	10	n/a	n/a	1	50	2
414.3366	1	10	n/a	n/a	1	50	3
415.5698	1	21	n/a	n/a	1	50	0
416.603	1	10	n/a	n/a	1	50	1
417.6364	1	21	n/a	n/a	1	50	0
418.8362	1	10	n/a	n/a	1	50	1
420.1528	1	10	n/a	n/a	1	50	2
421.1862	1	10	n/a	n/a	1	50	3
422.286	1	10	n/a	n/a	1	50	4
433.3656	1	81	n/a	n/a	1	0	0
433.6116	1	81	n/a	n/a	1	0	0
433.8816	1	81	n/a	n/a	1	0	0
434.0476	1	81	n/a	n/a	1	0	0
434.0736	1	81	n/a	n/a	1	0	0
434.3656	1	81	n/a	n/a	1	0	0
434.4156	1	81	n/a	n/a	1	0	0
434.5586	1	81	n/a	n/a	1	0	0
434.7346	1	81	n/a	n/a	1	0	0
435.1116	1	81	n/a	n/a	1	0	0
436.4852	1	10	n/a	n/a	1	50	1
437.5352	1	10	n/a	n/a	1	50	2
438.6684	1	10	n/a	n/a	1	50	3
439.885	1	10	n/a	n/a	1	50	4
441.0182	1	10	n/a	n/a	1	50	5
442.3016	1	10	n/a	n/a	1	50	6
443.5014	1	10	n/a	n/a	1	50	7
444.7014	1	21	n/a	n/a	1	50	0
446.018	1	10	n/a	n/a	1	50	1
447.3346	1	21	n/a	n/a	1	50	0
448.3678	1	10	n/a	n/a	1	50	1
449.5512	1	10	n/a	n/a	1	50	2
450.701	1	10	n/a	n/a	1	50	3
451.7344	1	10	n/a	n/a	1	50	4
452.9676	1	10	n/a	n/a	1	50	5
454.0008	1	10	n/a	n/a	1	50	6
455.1842	1	10	n/a	n/a	1	50	7
456.3674	1	21	n/a	n/a	1	50	0
457.684	1	10	n/a	n/a	1	50	1
458.784	1	10	n/a	n/a	1	50	2
467.0074	1	81	n/a	n/a	1	0	0
467.2074	1	81	n/a	n/a	1	0	0
467.4074	1	81	n/a	n/a	1	0	0
467.6074	1	81	n/a	n/a	1	0	0
467.8074	1	81	n/a	n/a	1	0	0
468.0074	1	81	n/a	n/a	1	0	0
468.2074	1	81	n/a	n/a	1	0	0
468.4074	1	81	n/a	n/a	1	0	0
468.6074	1	81	n/a	n/a	1	0	0
468.8074	1	81	n/a	n/a	1	0	0
470.05	1	10	n/a	n/a	1	50	1
471.1832	1	10	n/a	n/a	1	50	2
472.2998	1	10	n/a	n/a	1	50	3
473.4164	1	21	n/a	n/a	1	50	0
474.6496	1	10	n/a	n/a	1	50	1
475.8662	1	10	n/a	n/a	1	50	2
477.0994	1	10	n/a	n/a	1	50	3
478.4328	1	10	n/a	n/a	1	50	4
479.6826	1	10	n/a	n/a	1	50	5
480.9326	1	21	n/a	n/a	1	50	0
482.0826	1	10	n/a	n/a	1	50	1
483.2324	1	21	n/a	n/a	1	50	0
484.499	1	10	n/a	n/a	1	50	1
485.5824	1	10	n/a	n/a	1	50	2
486.699	1	10	n/a	n/a	1	50	3
487.9322	1	10	n/a	n/a	1	50	4
489.1154	1	10	n/a	n/a	1	50	5
490.2988	1	21	n/a	n/a	1	50	0
491.332	1	10	n/a	n/a	1	50	1
492.3652	1	21	n/a	n/a	1	50	0
554.3378	1	81	n/a	n/a	1	0	0
554.4878	1	81	n/a	n/a	1	0	0
554.8128	1	81	n/a	n/a	1	0	0
554.8858	1	81	n/a	n/a	1	0	0
554.9378	1	81	n/a	n/a	1	0	0
555.3378	1	81	n/a	n/a	1	0	0
555.4718	1	81	n/a	n/a	1	0	0
555.7778	1	81	n/a	n/a	1	0	0
555.8818	1	81	n/a	n/a	1	0	0
556.1548	1	81	n/a	n/a	1	0	0
557.3614	1	10	n/a	n/a	1	52	1
558.478	1	10	n/a	n/a	1	52	2
559.778	1	10	n/a	n/a	1	52	3
561.0612	1	10	n/a	n/a	1	52	4
562.2444	1	10	n/a	n/a	1	52	5
563.4276	1	21	n/a	n/a	1	52	0
564.511	1	10	n/a	n/a	1	52	1
565.7442	1	10	n/a	n/a	1	52	2
566.7942	1	10	n/a	n/a	1	52	3
567.8442	1	21	n/a	n/a	1	52	0
568.994	1	10	n/a	n/a	1	52	1
570.1772	1	10	n/a	n/a	1	52	2
571.4938	1	10	n/a	n/a	1	52	3
572.5438	1	10	n/a	n/a	1	52	4
573.7438	1	10	n/a	n/a	1	52	5
574.9436	1	21	n/a	n/a	1	52	0
576.0936	1	10	n/a	n/a	1	52	1
577.3102	1	10	n/a	n/a	1	52	2
578.6102	1	10	n/a	n/a	1	52	3
579.91	1	21	n/a	n/a	1	52	0
588.2128	1	81	n/a	n/a	1	0	0
588.6048	1	81	n/a	n/a	1	0	0
588.8748	1	81	n/a	n/a	1	0	0
588.9268	1	81	n/a	n/a	1	0	0
589.0458	1	81	n/a	n/a	1	0	0
589.2128	1	81	n/a	n/a	1	0	0
589.3248	1	81	n/a	n/a	1	0	0
589.3858	1	81	n/a	n/a	1	0	0
589.6338	1	81	n/a	n/a	1	0	0
589.8008	1	81	n/a	n/a	1	0	0
591.3594	1	10	n/a	n/a	1	52	1
592.5926	1	10	n/a	n/a	1	52	2
593.7258	1	10	n/a	n/a	1	52	3
594.8592	1	21	n/a	n/a	1	52	0
596.0258	1	10	n/a	n/a	1	52	1
597.3256	1	10	n/a	n/a	1	52	2
598.409	1	10	n/a	n/a	1	52	3
599.5922	1	10	n/a	n/a	1	52	4
600.8588	1	10	n/a	n/a	1	52	5
602.1754	1	10	n/a	n/a	1	52	6
603.4586	1	10	n/a	n/a	1	52	7
604.742	1	21	n/a	n/a	1	52	0
606.0418	1	10	n/a	n/a	1	52	1
607.1918	1	10	n/a	n/a	1	52	2
608.425	1	10	n/a	n/a	1	52	3
609.6916	1	10	n/a	n/a	1	52	4
610.8748	1	10	n/a	n/a	1	52	5
612.0582	1	21	n/a	n/a	1	52	0
613.208	1	10	n/a	n/a	1	52	1
614.358	1	10	n/a	n/a	1	52	2
624.1754	1	81	n/a	n/a	1	0	0
624.3994	1	81	n/a	n/a	1	0	0
624.4954	1	81	n/a	n/a	1	0	0
624.6494	1	81	n/a	n/a	1	0	0
624.8254	1	81	n/a	n/a	1	0	0
625.1756	1	81	n/a	n/a	1	0	0
625.3986	1	81	n/a	n/a	1	0	0
625.5696	1	81	n/a	n/a	1	0	0
625.9746	1	81	n/a	n/a	1	0	0
626.0076	1	81	n/a	n/a	1	0	0
627.3906	1	10	n/a	n/a	1	52	1
628.4238	1	10	n/a	n/a	1	52	2
629.4904	1	10	n/a	n/a	1	52	3
630.557	1	21	n/a	n/a	1	52	0
631.7236	1	10	n/a	n/a	1	52	1
632.8402	1	10	n/a	n/a	1	52	2
634.0068	1	10	n/a	n/a	1	52	3
635.2568	1	10	n/a	n/a	1	52	4
636.3734	1	10	n/a	n/a	1	52	5
637.49	1	21	n/a	n/a	1	52	0
638.5732	1	10	n/a	n/a	1	52	1
639.6732	1	10	n/a	n/a	1	52	2
640.9398	1	10	n/a	n/a	1	52	3
642.2064	1	10	n/a	n/a	1	52	4
643.273	1	10	n/a	n/a	1	52	5
644.3396	1	21	n/a	n/a	1	52	0
645.5562	1	10	n/a	n/a	1	52	1
646.6728	1	10	n/a	n/a	1	52	2
648.006	1	10	n/a	n/a	1	52	3
649.3392	1	10	n/a	n/a	1	52	4
660.1818	1	81	n/a	n/a	1	0	0
660.5638	1	81	n/a	n/a	1	0	0
660.6388	1	81	n/a	n/a	1	0	0
660.6808	1	81	n/a	n/a	1	0	0
660.9808	1	81	n/a	n/a	1	0	0
661.1818	1	81	n/a	n/a	1	0	0
661.2528	1	81	n/a	n/a	1	0	0
661.3488	1	81	n/a	n/a	1	0	0
661.5098	1	81	n/a	n/a	1	0	0
661.8888	1	81	n/a	n/a	1	0	0
663.2718	1	10	n/a	n/a	1	52	1
664.3384	1	10	n/a	n/a	1	52	2
665.655	1	10	n/a	n/a	1	52	3
666.8382	1	10	n/a	n/a	1	52	4
668.1382	1	10	n/a	n/a	1	52	5
669.4548	1	10	n/a	n/a	1	52	6
670.638	1	10	n/a	n/a	1	52	7
671.7712	1	21	n/a	n/a	1	52	0
672.9712	1	10	n/a	n/a	1	52	1
674.1544	1	10	n/a	n/a	1	52	2
675.3044	1	10	n/a	n/a	1	52	3
676.4544	1	21	n/a	n/a	1	52	0
677.7376	1	10	n/a	n/a	1	52	1
678.7708	1	10	n/a	n/a	1	52	2
680.0042	1	10	n/a	n/a	1	52	3
681.2708	1	10	n/a	n/a	1	52	4
682.3874	1	10	n/a	n/a	1	52	5
683.504	1	21	n/a	n/a	1	52	0
684.7538	1	10	n/a	n/a	1	52	1
685.9704	1	10	n/a	n/a	1	52	2
776.319	1	81	n/a	n/a	1	0	0
776.519	1	81	n/a	n/a	1	0	0
776.719	1	81	n/a	n/a	1	0	0
776.919	1	81	n/a	n/a	1	0	0
777.119	1	81	n/a	n/a	1	0	0
777.319	1	81	n/a	n/a	1	0	0
777.519	1	81	n/a	n/a	1	0	0
777.719	1	81	n/a	n/a	1	0	0
777.919	1	81	n/a	n/a	1	0	0
778.119	1	81	n/a	n/a	1	0	0
779.4482	1	10	n/a	n/a	1	51	1
780.4982	1	10	n/a	n/a	1	51	2
781.5814	1	10	n/a	n/a	1	51	3
782.6646	1	21	n/a	n/a	1	51	0
783.9146	1	10	n/a	n/a	1	51	1
785.1478	1	10	n/a	n/a	1	51	2
786.2644	1	10	n/a	n/a	1	51	3
787.431	1	10	n/a	n/a	1	51	4
788.531	1	10	n/a	n/a	1	51	5
789.631	1	10	n/a	n/a	1	51	6
790.8142	1	10	n/a	n/a	1	51	7
791.9974	1	21	n/a	n/a	1	51	0
793.2974	1	10	n/a	n/a	1	51	1
794.3806	1	10	n/a	n/a	1	51	2
795.5306	1	10	n/a	n/a	1	51	3
796.6806	1	21	n/a	n/a	1	51	0
797.8138	1	10	n/a	n/a	1	51	1
799.097	1	10	n/a	n/a	1	51	2
800.4136	1	10	n/a	n/a	1	51	3
801.7302	1	21	n/a	n/a	1	51	0
812.9058	1	81	n/a	n/a	1	0	0
813.1058	1	81	n/a	n/a	1	0	0
813.3058	1	81	n/a	n/a	1	0	0
813.5058	1	81	n/a	n/a	1	0	0
813.7058	1	81	n/a	n/a	1	0	0
813.9058	1	81	n/a	n/a	1	0	0
814.1058	1	81	n/a	n/a	1	0	0
814.3058	1	81	n/a	n/a	1	0	0
814.5058	1	81	n/a	n/a	1	0	0
814.7058	1	81	n/a	n/a	1	0	0
816.0794	1	10	n/a	n/a	1	51	1
817.296	1	10	n/a	n/a	1	51	2
818.546	1	10	n/a	n/a	1	51	3
819.5792	1	10	n/a	n/a	1	51	4
820.8958	1	10	n/a	n/a	1	51	5
822.2124	1	21	n/a	n/a	1	51	0
823.4122	1	10	n/a	n/a	1	51	1
824.5288	1	10	n/a	n/a	1	51	2
825.8122	1	10	n/a	n/a	1	51	3
826.962	1	10	n/a	n/a	1	51	4
828.1786	1	10	n/a	n/a	1	51	5
829.312	1	10	n/a	n/a	1	51	6
830.3618	1	10	n/a	n/a	1	51	7
831.4118	1	21	n/a	n/a	1	51	0
832.5284	1	10	n/a	n/a	1	51	1
833.695	1	10	n/a	n/a	1	51	2
834.795	1	10	n/a	n/a	1	51	3
835.8948	1	21	n/a	n/a	1	51	0
837.0448	1	10	n/a	n/a	1	51	1
838.1948	1	21	n/a	n/a	1	51	0
847.6804	1	81	n/a	n/a	1	0	0
847.8804	1	81	n/a	n/a	1	0	0
848.0804	1	81	n/a	n/a	1	0	0
848.2804	1	81	n/a	n/a	1	0	0
848.4804	1	81	n/a	n/a	1	0	0
848.6804	1	81	n/a	n/a	1	0	0
848.8804	1	81	n/a	n/a	1	0	0
849.0804	1	81	n/a	n/a	1	0	0
849.2804	1	81	n/a	n/a	1	0	0
849.4804	1	81	n/a	n/a	1	0	0
850.8274	1	10	n/a	n/a	1	51	1
851.8772	1	10	n/a	n/a	1	51	2
853.0606	1	10	n/a	n/a	1	51	3
854.2104	1	10	n/a	n/a	1	51	4
855.327	1	10	n/a	n/a	1	51	5
856.4604	1	10	n/a	n/a	1	51	6
857.777	1	10	n/a	n/a	1	51	7
859.0934	1	21	n/a	n/a	1	51	0
860.1602	1	10	n/a	n/a	1	51	1
861.2434	1	10	n/a	n/a	1	51	2
862.2766	1	10	n/a	n/a	1	51	3
863.31	1	21	n/a	n/a	1	51	0
864.3432	1	10	n/a	n/a	1	51	1
865.3764	1	21	n/a	n/a	1	51	0
866.6098	1	10	n/a	n/a	1	51	1
867.843	1	21	n/a	n/a	1	51	0
869.093	1	10	n/a	n/a	1	51	1
870.1428	1	10	n/a	n/a	1	51	2
871.3762	1	10	n/a	n/a	1	51	3
872.4094	1	10	n/a	n/a	1	51	4
882.159	1	81	n/a	n/a	1	0	0
882.359	1	81	n/a	n/a	1	0	0
882.559	1	81	n/a	n/a	1	0	0
882.759	1	81	n/a	n/a	1	0	0
882.959	1	81	n/a	n/a	1	0	0
883.159	1	81	n/a	n/a	1	0	0
883.359	1	81	n/a	n/a	1	0	0
883.559	1	81	n/a	n/a	1	0	0
883.759	1	81	n/a	n/a	1	0	0
883.959	1	81	n/a	n/a	1	0	0
885.2586	1	10	n/a	n/a	1	51	1
886.3752	1	10	n/a	n/a	1	51	2
887.5584	1	10	n/a	n/a	1	51	3
888.7418	1	21	n/a	n/a	1	51	0
889.975	1	10	n/a	n/a	1	51	1
891.125	1	10	n/a	n/a	1	51	2
892.3582	1	10	n/a	n/a	1	51	3
893.4248	1	10	n/a	n/a	1	51	4
894.658	1	10	n/a	n/a	1	51	5
895.8914	1	21	n/a	n/a	1	51	0
897.0912	1	10	n/a	n/a	1	51	1
898.3412	1	10	n/a	n/a	1	51	2
899.3744	1	10	n/a	n/a	1	51	3
900.6744	1	10	n/a	n/a	1	51	4
901.8242	1	10	n/a	n/a	1	51	5
902.8576	1	10	n/a	n/a	1	51	6
904.1074	1	10	n/a	n/a	1	51	7
905.3574	1	21	n/a	n/a	1	51	0
906.474	1	10	n/a	n/a	1	51	1
907.5906	1	21	n/a	n/a	1	51	0
936.6772	1	81	n/a	n/a	1	0	0
936.8772	1	81	n/a	n/a	1	0	0
937.0772	1	81	n/a	n/a	1	0	0
937.2772	1	81	n/a	n/a	1	0	0
937.4772	1	81	n/a	n/a	1	0	0
937.6772	1	81	n/a	n/a	1	0	0
937.8772	1	81	n/a	n/a	1	0	0
938.0772	1	81	n/a	n/a	1	0	0
938.2772	1	81	n/a	n/a	1	0	0
938.4772	1	81	n/a	n/a	1	0	0
939.8888	1	10	n/a	n/a	1	50	1
941.2052	1	10	n/a	n/a	1	50	2
942.3052	1	10	n/a	n/a	1	50	3
943.4052	1	21	n/a	n/a	1	50	0
944.6218	1	10	n/a	n/a	1	50	1
945.7384	1	10	n/a	n/a	1	50	2
946.9716	1	10	n/a	n/a	1	50	3
948.1882	1	10	n/a	n/a	1	50	4
949.3382	1	10	n/a	n/a	1	50	5
950.4214	1	10	n/a	n/a	1	50	6
951.6546	1	10	n/a	n/a	1	50	7
952.888	1	21	n/a	n/a	1	50	0
954.1546	1	10	n/a	n/a	1	50	1
955.3712	1	10	n/a	n/a	1	50	2
956.421	1	10	n/a	n/a	1	50	3
957.6376	1	10	n/a	n/a	1	50	4
958.7876	1	10	n/a	n/a	1	50	5
959.9376	1	21	n/a	n/a	1	50	0
961.1708	1	10	n/a	n/a	1	50	1
962.4208	1	10	n/a	n/a	1	50	2
970.7752	1	81	n/a	n/a	1	0	0
970.9752	1	81	n/a	n/a	1	0	0
971.1752	1	81	n/a	n/a	1	0	0
971.3752	1	81	n/a	n/a	1	0	0
971.5752	1	81	n/a	n/a	1	0	0
971.7752	1	81	n/a	n/a	1	0	0
971.9752	1	81	n/a	n/a	1	0	0
972.1752	1	81	n/a	n/a	1	0	0
972.3752	1	81	n/a	n/a	1	0	0
972.5752	1	81	n/a	n/a	1	0	0
973.9034	1	10	n/a	n/a	1	50	1
975.1532	1	10	n/a	n/a	1	50	2
976.3532	1	10	n/a	n/a	1	50	3
977.4864	1	10	n/a	n/a	1	50	4
978.803	1	10	n/a	n/a	1	50	5
980.1196	1	21	n/a	n/a	1	50	0
981.3362	1	10	n/a	n/a	1	50	1
982.4028	1	10	n/a	n/a	1	50	2
983.4362	1	10	n/a	n/a	1	50	3
984.6694	1	10	n/a	n/a	1	50	4
985.7194	1	10	n/a	n/a	1	50	5
986.7692	1	21	n/a	n/a	1	50	0
988.0358	1	10	n/a	n/a	1	50	1
989.1858	1	10	n/a	n/a	1	50	2
990.419	1	10	n/a	n/a	1	50	3
991.6356	1	10	n/a	n/a	1	50	4
992.8522	1	10	n/a	n/a	1	50	5
993.9854	1	10	n/a	n/a	1	50	6
995.202	1	10	n/a	n/a	1	50	7
996.4186	1	21	n/a	n/a	1	50	0
1005.2314	1	81	n/a	n/a	1	0	0
1005.4314	1	81	n/a	n/a	1	0	0
1005.6314	1	81	n/a	n/a	1	0	0
1005.8314	1	81	n/a	n/a	1	0	0
1006.0314	1	81	n/a	n/a	1	0	0
1006.2314	1	81	n/a	n/a	1	0	0
1006.4314	1	81	n/a	n/a	1	0	0
1006.6314	1	81	n/a	n/a	1	0	0
1006.8314	1	81	n/a	n/a	1	0	0
1007.0314	1	81	n/a	n/a	1	0	0
1008.3346	1	10	n/a	n/a	1	50	1
1009.5012	1	10	n/a	n/a	1	50	2
1010.7178	1	10	n/a	n/a	1	50	3
1011.9344	1	21	n/a	n/a	1	50	0
1013.0344	1	10	n/a	n/a	1	50	1
1014.301	1	10	n/a	n/a	1	50	2
1015.5842	1	10	n/a	n/a	1	50	3
1016.8842	1	10	n/a	n/a	1	50	4
1018.134	1	10	n/a	n/a	1	50	5
1019.384	1	21	n/a	n/a	1	50	0
1020.634	1	10	n/a	n/a	1	50	1
1021.7172	1	10	n/a	n/a	1	50	2
1023.0338	1	10	n/a	n/a	1	50	3
1024.3504	1	21	n/a	n/a	1	50	0
1025.467	1	10	n/a	n/a	1	50	1
1026.6502	1	10	n/a	n/a	1	50	2
1027.8002	1	10	n/a	n/a	1	50	3
1029.0168	1	10	n/a	n/a	1	50	4
1030.2	1	10	n/a	n/a	1	50	5
1031.3832	1	21	n/a	n/a	1	50	0
1041.576	1	81	n/a	n/a	1	0	0
1041.776	1	81	n/a	n/a	1	0	0
1041.976	1	81	n/a	n/a	1	0	0
1042.176	1	81	n/a	n/a	1	0	0
1042.376	1	81	n/a	n/a	1	0	0
1042.576	1	81	n/a	n/a	1	0	0
1042.776	1	81	n/a	n/a	1	0	0
1042.976	1	81	n/a	n/a	1	0	0
1043.176	1	81	n/a	n/a	1	0	0
1043.376	1	81	n/a	n/a	1	0	0
1044.7158	1	10	n/a	n/a	1	50	1
1045.799	1	10	n/a	n/a	1	50	2
1046.899	1	10	n/a	n/a	1	50	3
1047.9822	1	10	n/a	n/a	1	50	4
1049.0156	1	10	n/a	n/a	1	50	5
1050.0488	1	21	n/a	n/a	1	50	0
1051.2488	1	10	n/a	n/a	1	50	1
1052.3654	1	10	n/a	n/a	1	50	2
1053.4652	1	10	n/a	n/a	1	50	3
1054.7818	1	10	n/a	n/a	1	50	4
1056.0984	1	10	n/a	n/a	1	50	5
1057.315	1	10	n/a	n/a	1	50	6
1058.5984	1	10	n/a	n/a	1	50	7
1059.8816	1	21	n/a	n/a	1	50	0
1060.9148	1	10	n/a	n/a	1	50	1
1061.9482	1	21	n/a	n/a	1	50	0
1063.2314	1	10	n/a	n/a	1	50	1
1064.448	1	10	n/a	n/a	1	50	2
1065.5312	1	10	n/a	n/a	1	50	3
1066.5812	1	10	n/a	n/a	1	50	4
1120.312	1	81	n/a	n/a	1	0	0
1120.343	1	81	n/a	n/a	1	0	0
1120.428	1	81	n/a	n/a	1	0	0
1120.801	1	81	n/a	n/a	1	0	0
1120.865	1	81	n/a	n/a	1	0	0
1121.312	1	81	n/a	n/a	1	0	0
1121.538	1	81	n/a	n/a	1	0	0
1121.668	1	81	n/a	n/a	1	0	0
1121.919	1	81	n/a	n/a	1	0	0
1122.093	1	81	n/a	n/a	1	0	0
1123.4444	1	10	n/a	n/a	1	52	1
1124.7278	1	10	n/a	n/a	1	52	2
1125.9276	1	10	n/a	n/a	1	52	3
1127.0942	1	10	n/a	n/a	1	52	4
1128.1776	1	10	n/a	n/a	1	52	5
1129.2608	1	21	n/a	n/a	1	52	0
1130.5608	1	10	n/a	n/a	1	52	1
1131.7274	1	10	n/a	n/a	1	52	2
1132.7772	1	10	n/a	n/a	1	52	3
1133.8272	1	21	n/a	n/a	1	52	0
1134.9104	1	10	n/a	n/a	1	52	1
1135.9604	1	10	n/a	n/a	1	52	2
1137.0936	1	10	n/a	n/a	1	52	3
1138.227	1	21	n/a	n/a	1	52	0
1139.2768	1	10	n/a	n/a	1	52	1
1140.4602	1	10	n/a	n/a	1	52	2
1141.5934	1	10	n/a	n/a	1	52	3
1142.7266	1	21	n/a	n/a	1	52	0
1143.8432	1	10	n/a	n/a	1	52	1
1144.9598	1	21	n/a	n/a	1	52	0
1157.0666	1	81	n/a	n/a	1	0	0
1157.1436	1	81	n/a	n/a	1	0	0
1157.2436	1	81	n/a	n/a	1	0	0
1157.6196	1	81	n/a	n/a	1	0	0
1157.6566	1	81	n/a	n/a	1	0	0
1158.0666	1	81	n/a	n/a	1	0	0
1158.0926	1	81	n/a	n/a	1	0	0
1158.1926	1	81	n/a	n/a	1	0	0
1158.3306	1	81	n/a	n/a	1	0	0
1158.7336	1	81	n/a	n/a	1	0	0
1160.259	1	10	n/a	n/a	1	52	1
1161.3256	1	10	n/a	n/a	1	52	2
1162.5922	1	10	n/a	n/a	1	52	3
1163.8588	1	21	n/a	n/a	1	52	0
1165.0586	1	10	n/a	n/a	1	52	1
1166.2586	1	21	n/a	n/a	1	52	0
1167.4418	1	10	n/a	n/a	1	52	1
1168.6918	1	10	n/a	n/a	1	52	2
1169.7584	1	10	n/a	n/a	1	52	3
1170.925	1	10	n/a	n/a	1	52	4
1172.1082	1	10	n/a	n/a	1	52	5
1173.2916	1	21	n/a	n/a	1	52	0
1174.4414	1	10	n/a	n/a	1	52	1
1175.6414	1	10	n/a	n/a	1	52	2
1176.8414	1	10	n/a	n/a	1	52	3
1177.9412	1	10	n/a	n/a	1	52	4
1179.0578	1	10	n/a	n/a	1	52	5
1180.1744	1	21	n/a	n/a	1	52	0
1181.3744	1	10	n/a	n/a	1	52	1
1182.4744	1	10	n/a	n/a	1	52	2
1191.4878	1	81	n/a	n/a	1	0	0
1191.6548	1	81	n/a	n/a	1	0	0
1191.9068	1	81	n/a	n/a	1	0	0
1192.1008	1	81	n/a	n/a	1	0	0
1192.3828	1	81	n/a	n/a	1	0	0
1192.4878	1	81	n/a	n/a	1	0	0
1192.8248	1	81	n/a	n/a	1	0	0
1192.8778	1	81	n/a	n/a	1	0	0
1193.2858	1	81	n/a	n/a	1	0	0
1193.3618	1	81	n/a	n/a	1	0	0
1194.607	1	10	n/a	n/a	1	52	1
1195.6902	1	10	n/a	n/a	1	52	2
1196.8402	1	10	n/a	n/a	1	52	3
1197.9734	1	10	n/a	n/a	1	52	4
1199.14	1	10	n/a	n/a	1	52	5
1200.3066	1	21	n/a	n/a	1	52	0
1201.4566	1	10	n/a	n/a	1	52	1
1202.6064	1	21	n/a	n/a	1	52	0
1203.6564	1	10	n/a	n/a	1	52	1
1204.8064	1	10	n/a	n/a	1	52	2
1205.9062	1	10	n/a	n/a	1	52	3
1207.0062	1	21	n/a	n/a	1	52	0
1208.3228	1	10	n/a	n/a	1	52	1
1209.6394	1	21	n/a	n/a	1	52	0
1210.906	1	10	n/a	n/a	1	52	1
1212.1726	1	21	n/a	n/a	1	52	0
1213.2892	1	10	n/a	n/a	1	52	1
1214.4058	1	10	n/a	n/a	1	52	2
1215.639	1	10	n/a	n/a	1	52	3
1216.9222	1	10	n/a	n/a	1	52	4
1225.7848	1	81	n/a	n/a	1	0	0
1226.1118	1	81	n/a	n/a	1	0	0
1226.1358	1	81	n/a	n/a	1	0	0
1226.5428	1	81	n/a	n/a	1	0	0
1226.6218	1	81	n/a	n/a	1	0	0
1226.7848	1	81	n/a	n/a	1	0	0
1226.9308	1	81	n/a	n/a	1	0	0
1227.0178	1	81	n/a	n/a	1	0	0
1227.2508	1	81	n/a	n/a	1	0	0
1227.3738	1	81	n/a	n/a	1	0	0
1228.9716	1	10	n/a	n/a	1	52	1
1230.1048	1	10	n/a	n/a	1	52	2
1231.1882	1	10	n/a	n/a	1	52	3
1232.5046	1	10	n/a	n/a	1	52	4
1233.688	1	10	n/a	n/a	1	52	5
1234.8712	1	21	n/a	n/a	1	52	0
1236.1378	1	10	n/a	n/a	1	52	1
1237.271	1	10	n/a	n/a	1	52	2
1238.371	1	10	n/a	n/a	1	52	3
1239.571	1	10	n/a	n/a	1	52	4
1240.7542	1	10	n/a	n/a	1	52	5
1241.8374	1	10	n/a	n/a	1	52	6
1242.954	1	10	n/a	n/a	1	52	7
1244.0706	1	21	n/a	n/a	1	52	0
1245.3372	1	10	n/a	n/a	1	52	1
1246.6038	1	21	n/a	n/a	1	52	0
1247.7372	1	10	n/a	n/a	1	52	1
1248.8704	1	21	n/a	n/a	1	52	0
1250.2036	1	10	n/a	n/a	1	52	1
1251.5368	1	21	n/a	n/a	1	52	0
1302.2926	1	81	n/a	n/a	1	0	0
1302.6696	1	81	n/a	n/a	1	0	0
1302.8106	1	81	n/a	n/a	1	0	0
1302.8486	1	81	n/a	n/a	1	0	0
1303.1036	1	81	n/a	n/a	1	0	0
1303.2926	1	81	n/a	n/a	1	0	0
1303.3806	1	81	n/a	n/a	1	0	0
1303.6126	1	81	n/a	n/a	1	0	0
1303.6526	1	81	n/a	n/a	1	0	0
1303.8156	1	81	n/a	n/a	1	0	0
1305.3722	1	10	n/a	n/a	1	52	1
1306.5388	1	10	n/a	n/a	1	52	2
1307.6886	1	10	n/a	n/a	1	52	3
1308.8552	1	10	n/a	n/a	1	52	4
1310.0218	1	10	n/a	n/a	1	52	5
1311.1884	1	21	n/a	n/a	1	52	0
1312.255	1	10	n/a	n/a	1	52	1
1313.405	1	10	n/a	n/a	1	52	2
1314.455	1	10	n/a	n/a	1	52	3
1315.5048	1	21	n/a	n/a	1	52	0
1316.7214	1	10	n/a	n/a	1	52	1
1317.938	1	21	n/a	n/a	1	52	0
1319.0546	1	10	n/a	n/a	1	52	1
1320.338	1	10	n/a	n/a	1	52	2
1321.6712	1	10	n/a	n/a	1	52	3
1322.9544	1	10	n/a	n/a	1	52	4
1324.021	1	10	n/a	n/a	1	52	5
1325.221	1	10	n/a	n/a	1	52	6
1326.4376	1	10	n/a	n/a	1	52	7
1327.6542	1	21	n/a	n/a	1	52	0
1337.0968	1	81	n/a	n/a	1	0	0
1337.3308	1	81	n/a	n/a	1	0	0
1337.4618	1	81	n/a	n/a	1	0	0
1337.5598	1	81	n/a	n/a	1	0	0
1337.8628	1	81	n/a	n/a	1	0	0
1338.0968	1	81	n/a	n/a	1	0	0
1338.1878	1	81	n/a	n/a	1	0	0
1338.4628	1	81	n/a	n/a	1	0	0
1338.4918	1	81	n/a	n/a	1	0	0
1338.5558	1	81	n/a	n/a	1	0	0
1340.12	1	10	n/a	n/a	1	52	1
1341.2534	1	21	n/a	n/a	1	52	0
1342.42	1	10	n/a	n/a	1	52	1
1343.6532	1	10	n/a	n/a	1	52	2
1344.9198	1	10	n/a	n/a	1	52	3
1346.1864	1	21	n/a	n/a	1	52	0
1347.253	1	10	n/a	n/a	1	52	1
1348.3196	1	21	n/a	n/a	1	52	0
1349.4696	1	10	n/a	n/a	1	52	1
1350.7194	1	10	n/a	n/a	1	52	2
1351.8194	1	10	n/a	n/a	1	52	3
1352.9194	1	21	n/a	n/a	1	52	0
1354.0526	1	10	n/a	n/a	1	52	1
1355.1858	1	21	n/a	n/a	1	52	0
1356.5024	1	10	n/a	n/a	1	52	1
1357.7024	1	10	n/a	n/a	1	52	2
1358.8356	1	10	n/a	n/a	1	52	3
1359.869	1	10	n/a	n/a	1	52	4
1360.9022	1	10	n/a	n/a	1	52	5
1361.9354	1	21	n/a	n/a	1	52	0
1370.7172	1	81	n/a	n/a	1	0	0
1370.7692	1	81	n/a	n/a	1	0	0
1370.8572	1	81	n/a	n/a	1	0	0
1371.2292	1	81	n/a	n/a	1	0	0
1371.5492	1	81	n/a	n/a	1	0	0
1371.7172	1	81	n/a	n/a	1	0	0
1371.8582	1	81	n/a	n/a	1	0	0
1371.9412	1	81	n/a	n/a	1	0	0
1372.1522	1	81	n/a	n/a	1	0	0
1372.5872	1	81	n/a	n/a	1	0	0
1373.7848	1	10	n/a	n/a	1	52	1
1375.0346	1	10	n/a	n/a	1	52	2
1376.1346	1	10	n/a	n/a	1	52	3
1377.218	1	10	n/a	n/a	1	52	4
1378.4846	1	10	n/a	n/a	1	52	5
1379.5512	1	10	n/a	n/a	1	52	6
1380.7178	1	10	n/a	n/a	1	52	7
1381.8842	1	21	n/a	n/a	1	52	0
1383.0176	1	10	n/a	n/a	1	52	1
1384.2342	1	10	n/a	n/a	1	52	2
1385.5174	1	10	n/a	n/a	1	52	3
1386.6006	1	10	n/a	n/a	1	52	4
1387.6506	1	10	n/a	n/a	1	52	5
1388.7006	1	21	n/a	n/a	1	52	0
1389.8338	1	10	n/a	n/a	1	52	1
1391.1004	1	10	n/a	n/a	1	52	2
1392.3836	1	10	n/a	n/a	1	52	3
1393.6336	1	10	n/a	n/a	1	52	4
1394.7836	1	10	n/a	n/a	1	52	5
1395.9668	1	10	n/a	n/a	1	52	6
1406.3922	1	81	n/a	n/a	1	0	0
1406.4552	1	81	n/a	n/a	1	0	0
1406.7232	1	81	n/a	n/a	1	0	0
1406.9602	1	81	n/a	n/a	1	0	0
1407.0452	1	81	n/a	n/a	1	0	0
1407.3922	1	81	n/a	n/a	1	0	0
1407.4982	1	81	n/a	n/a	1	0	0
1407.7712	1	81	n/a	n/a	1	0	0
1408.0892	1	81	n/a	n/a	1	0	0
1408.2672	1	81	n/a	n/a	1	0	0
1409.4494	1	10	n/a	n/a	1	52	1
1410.616	1	21	n/a	n/a	1	52	0
1411.6492	1	10	n/a	n/a	1	52	1
1412.6824	1	21	n/a	n/a	1	52	0
1413.949	1	10	n/a	n/a	1	52	1
1415.2324	1	10	n/a	n/a	1	52	2
1416.399	1	10	n/a	n/a	1	52	3
1417.5322	1	10	n/a	n/a	1	52	4
1418.6488	1	10	n/a	n/a	1	52	5
1419.6988	1	10	n/a	n/a	1	52	6
1420.9486	1	10	n/a	n/a	1	52	7
1422.1986	1	21	n/a	n/a	1	52	0
1423.5152	1	10	n/a	n/a	1	52	1
1424.6318	1	10	n/a	n/a	1	52	2
1425.7984	1	10	n/a	n/a	1	52	3
1427.0816	1	10	n/a	n/a	1	52	4
1428.215	1	10	n/a	n/a	1	52	5
1429.4648	1	10	n/a	n/a	1	52	6
1430.5314	1	10	n/a	n/a	1	52	7
1431.598	1	21	n/a	n/a	1	52	0
1456.9176	1	81	n/a	n/a	1	0	0
1457.1174	1	81	n/a	n/a	1	0	0
1457.3174	1	81	n/a	n/a	1	0	0
1457.5174	1	81	n/a	n/a	1	0	0
1457.7174	1	81	n/a	n/a	1	0	0
1457.9176	1	81	n/a	n/a	1	0	0
1458.1176	1	81	n/a	n/a	1	0	0
1458.3176	1	81	n/a	n/a	1	0	0
1458.5176	1	81	n/a	n/a	1	0	0
1458.7176	1	81	n/a	n/a	1	0	0
1460.0798	1	10	n/a	n/a	1	50	1
1461.3962	1	10	n/a	n/a	1	50	2
1462.5796	1	10	n/a	n/a	1	50	3
1463.7628	1	21	n/a	n/a	1	50	0
1464.996	1	10	n/a	n/a	1	50	1
1466.246	1	21	n/a	n/a	1	50	0
1467.3126	1	10	n/a	n/a	1	50	1
1468.4458	1	10	n/a	n/a	1	50	2
1469.5958	1	10	n/a	n/a	1	50	3
1470.7458	1	21	n/a	n/a	1	50	0
1471.7956	1	10	n/a	n/a	1	50	1
1472.929	1	10	n/a	n/a	1	50	2
1474.0122	1	10	n/a	n/a	1	50	3
1475.0954	1	21	n/a	n/a	1	50	0
1476.412	1	10	n/a	n/a	1	50	1
1477.7286	1	21	n/a	n/a	1	50	0
1478.862	1	10	n/a	n/a	1	50	1
1479.9452	1	10	n/a	n/a	1	50	2
1481.1284	1	10	n/a	n/a	1	50	3
1482.3118	1	21	n/a	n/a	1	50	0
1492.4784	1	81	n/a	n/a	1	0	0
1492.6784	1	81	n/a	n/a	1	0	0
1492.8784	1	81	n/a	n/a	1	0	0
1493.0784	1	81	n/a	n/a	1	0	0
1493.2784	1	81	n/a	n/a	1	0	0
1493.4784	1	81	n/a	n/a	1	0	0
1493.6784	1	81	n/a	n/a	1	0	0
1493.8784	1	81	n/a	n/a	1	0	0
1494.0784	1	81	n/a	n/a	1	0	0
1494.2784	1	81	n/a	n/a	1	0	0
1495.5942	1	10	n/a	n/a	1	50	1
1496.8108	1	21	n/a	n/a	1	50	0
1497.8774	1	10	n/a	n/a	1	50	1
1498.944	1	21	n/a	n/a	1	50	0
1500.0106	1	10	n/a	n/a	1	50	1
1501.2772	1	10	n/a	n/a	1	50	2
1502.3106	1	10	n/a	n/a	1	50	3
1503.3438	1	21	n/a	n/a	1	50	0
1504.5438	1	10	n/a	n/a	1	50	1
1505.7436	1	21	n/a	n/a	1	50	0
1506.8936	1	10	n/a	n/a	1	50	1
1508.0436	1	21	n/a	n/a	1	50	0
1509.1434	1	10	n/a	n/a	1	50	1
1510.2434	1	21	n/a	n/a	1	50	0
1511.56	1	10	n/a	n/a	1	50	1
1512.66	1	10	n/a	n/a	1	50	2
1513.8098	1	10	n/a	n/a	1	50	3
1514.9432	1	10	n/a	n/a	1	50	4
1515.993	1	10	n/a	n/a	1	50	5
1517.293	1	10	n/a	n/a	1	50	6
1528.0504	1	81	n/a	n/a	1	0	0
1528.2504	1	81	n/a	n/a	1	0	0
1528.4504	1	81	n/a	n/a	1	0	0
1528.6504	1	81	n/a	n/a	1	0	0
1528.8504	1	81	n/a	n/a	1	0	0
1529.0504	1	81	n/a	n/a	1	0	0
1529.2504	1	81	n/a	n/a	1	0	0
1529.4504	1	81	n/a	n/a	1	0	0
1529.6504	1	81	n/a	n/a	1	0	0
1529.8504	1	81	n/a	n/a	1	0	0
1531.1588	1	10	n/a	n/a	1	50	1
1532.2922	1	10	n/a	n/a	1	50	2
1533.3754	1	10	n/a	n/a	1	50	3
1534.6586	1	10	n/a	n/a	1	50	4
1535.7586	1	10	n/a	n/a	1	50	5
1536.8586	1	21	n/a	n/a	1	50	0
1537.9418	1	10	n/a	n/a	1	50	1
1539.025	1	21	n/a	n/a	1	50	0
1540.3084	1	10	n/a	n/a	1	50	1
1541.3416	1	10	n/a	n/a	1	50	2
1542.3748	1	10	n/a	n/a	1	50	3
1543.6248	1	10	n/a	n/a	1	50	4
1544.9414	1	10	n/a	n/a	1	50	5
1546.258	1	21	n/a	n/a	1	50	0
1547.308	1	10	n/a	n/a	1	50	1
1548.3578	1	10	n/a	n/a	1	50	2
1549.6744	1	10	n/a	n/a	1	50	3
1550.741	1	10	n/a	n/a	1	50	4
1551.8076	1	10	n/a	n/a	1	50	5
1552.8742	1	21	n/a	n/a	1	50	0
1564.5078	1	81	n/a	n/a	1	0	0
1564.7078	1	81	n/a	n/a	1	0	0
1564.9078	1	81	n/a	n/a	1	0	0
1565.1078	1	81	n/a	n/a	1	0	0
1565.3078	1	81	n/a	n/a	1	0	0
1565.5078	1	81	n/a	n/a	1	0	0
1565.7078	1	81	n/a	n/a	1	0	0
1565.9078	1	81	n/a	n/a	1	0	0
1566.1078	1	81	n/a	n/a	1	0	0
1566.3078	1	81	n/a	n/a	1	0	0
1567.6734	1	10	n/a	n/a	1	50	1
1568.7234	1	10	n/a	n/a	1	50	2
1569.84	1	10	n/a	n/a	1	50	3
1571.1398	1	10	n/a	n/a	1	50	4
1572.4564	1	10	n/a	n/a	1	50	5
1573.5064	1	10	n/a	n/a	1	50	6
1574.723	1	10	n/a	n/a	1	50	7
1575.9396	1	21	n/a	n/a	1	50	0
1577.1228	1	10	n/a	n/a	1	50	1
1578.406	1	10	n/a	n/a	1	50	2
1579.556	1	10	n/a	n/a	1	50	3
1580.8226	1	10	n/a	n/a	1	50	4
1582.0726	1	10	n/a	n/a	1	50	5
1583.2224	1	10	n/a	n/a	1	50	6
1584.5224	1	10	n/a	n/a	1	50	7
1585.8224	1	21	n/a	n/a	1	50	0
1587.1222	1	10	n/a	n/a	1	50	1
1588.4222	1	21	n/a	n/a	1	50	0
1589.472	1	10	n/a	n/a	1	50	1
1590.572	1	10	n/a	n/a	1	50	2
1618.7414	1	81	n/a	n/a	1	0	0
1619.0744	1	81	n/a	n/a	1	0	0
1619.1814	1	81	n/a	n/a	1	0	0
1619.3644	1	81	n/a	n/a	1	0	0
1619.6504	1	81	n/a	n/a	1	0	0
1619.7414	1	81	n/a	n/a	1	0	0
1620.1044	1	81	n/a	n/a	1	0	0
1620.4964	1	81	n/a	n/a	1	0	0
1620.5404	1	81	n/a	n/a	1	0	0
1620.6234	1	81	n/a	n/a	1	0	0
1621.9368	1	10	n/a	n/a	1	52	1
1623.2202	1	10	n/a	n/a	1	52	2
1624.3368	1	10	n/a	n/a	1	52	3
1625.52	1	10	n/a	n/a	1	52	4
1626.82	1	10	n/a	n/a	1	52	5
1628.1198	1	21	n/a	n/a	1	52	0
1629.2032	1	10	n/a	n/a	1	52	1
1630.4864	1	10	n/a	n/a	1	52	2
1631.5862	1	10	n/a	n/a	1	52	3
1632.6362	1	10	n/a	n/a	1	52	4
1633.9028	1	10	n/a	n/a	1	52	5
1635.1694	1	21	n/a	n/a	1	52	0
1636.4026	1	10	n/a	n/a	1	52	1
1637.5192	1	10	n/a	n/a	1	52	2
1638.6692	1	10	n/a	n/a	1	52	3
1639.7358	1	10	n/a	n/a	1	52	4
1640.8858	1	10	n/a	n/a	1	52	5
1642.0356	1	21	n/a	n/a	1	52	0
1643.2856	1	10	n/a	n/a	1	52	1
1644.4522	1	10	n/a	n/a	1	52	2
1656.4006	1	81	n/a	n/a	1	0	0
1656.7556	1	81	n/a	n/a	1	0	0
1656.8436	1	81	n/a	n/a	1	0	0
1657.0606	1	81	n/a	n/a	1	0	0
1657.3436	1	81	n/a	n/a	1	0	0
1657.4008	1	81	n/a	n/a	1	0	0
1657.7458	1	81	n/a	n/a	1	0	0
1657.8988	1	81	n/a	n/a	1	0	0
1657.9878	1	81	n/a	n/a	1	0	0
1658.2258	1	81	n/a	n/a	1	0	0
1659.4514	1	10	n/a	n/a	1	52	1
1660.4846	1	10	n/a	n/a	1	52	2
1661.6012	1	10	n/a	n/a	1	52	3
1662.8844	1	10	n/a	n/a	1	52	4
1664.101	1	10	n/a	n/a	1	52	5
1665.1676	1	10	n/a	n/a	1	52	6
1666.251	1	10	n/a	n/a	1	52	7
1667.3342	1	21	n/a	n/a	1	52	0
1668.6508	1	10	n/a	n/a	1	52	1
1669.684	1	10	n/a	n/a	1	52	2
1670.9506	1	10	n/a	n/a	1	52	3
1672.2672	1	10	n/a	n/a	1	52	4
1673.4006	1	10	n/a	n/a	1	52	5
1674.5338	1	21	n/a	n/a	1	52	0
1675.817	1	10	n/a	n/a	1	52	1
1677.117	1	21	n/a	n/a	1	52	0
1678.3336	1	10	n/a	n/a	1	52	1
1679.5502	1	21	n/a	n/a	1	52	0
1680.85	1	10	n/a	n/a	1	52	1
1682.15	1	21	n/a	n/a	1	52	0
1692.7676	1	81	n/a	n/a	1	0	0
1693.1776	1	81	n/a	n/a	1	0	0
1693.4546	1	81	n/a	n/a	1	0	0
1693.4936	1	81	n/a	n/a	1	0	0
1693.5986	1	81	n/a	n/a	1	0	0
1693.7676	1	81	n/a	n/a	1	0	0
1694.0386	1	81	n/a	n/a	1	0	0
1694.0886	1	81	n/a	n/a	1	0	0
1694.4046	1	81	n/a	n/a	1	0	0
1694.6466	1	81	n/a	n/a	1	0	0
1695.8992	1	10	n/a	n/a	1	52	1
1696.9324	1	10	n/a	n/a	1	52	2
1698.249	1	10	n/a	n/a	1	52	3
1699.4656	1	10	n/a	n/a	1	52	4
1700.549	1	10	n/a	n/a	1	52	5
1701.6322	1	21	n/a	n/a	1	52	0
1702.8154	1	10	n/a	n/a	1	52	1
1704.132	1	10	n/a	n/a	1	52	2
1705.3654	1	10	n/a	n/a	1	52	3
1706.6818	1	10	n/a	n/a	1	52	4
1707.9318	1	10	n/a	n/a	1	52	5
1709.115	1	10	n/a	n/a	1	52	6
1710.3316	1	10	n/a	n/a	1	52	7
1711.5482	1	21	n/a	n/a	1	52	0
1712.6148	1	10	n/a	n/a	1	52	1
1713.8648	1	10	n/a	n/a	1	52	2
1715.0148	1	10	n/a	n/a	1	52	3
1716.1646	1	21	n/a	n/a	1	52	0
1717.4646	1	10	n/a	n/a	1	52	1
1718.6646	1	10	n/a	n/a	1	52	2
1727.592	1	81	n/a	n/a	1	0	0
1727.652	1	81	n/a	n/a	1	0	0
1727.77	1	81	n/a	n/a	1	0	0
1728.077	1	81	n/a	n/a	1	0	0
1728.326	1	81	n/a	n/a	1	0	0
1728.592	1	81	n/a	n/a	1	0	0
1728.694	1	81	n/a	n/a	1	0	0
1728.994	1	81	n/a	n/a	1	0	0
1729.148	1	81	n/a	n/a	1	0	0
1729.28	1	81	n/a	n/a	1	0	0
1730.6472	1	10	n/a	n/a	1	52	1
1731.9304	1	10	n/a	n/a	1	52	2
1733.147	1	10	n/a	n/a	1	52	3
1734.2636	1	10	n/a	n/a	1	52	4
1735.5468	1	10	n/a	n/a	1	52	5
1736.7968	1	10	n/a	n/a	1	52	6
1737.9468	1	10	n/a	n/a	1	52	7
1739.0966	1	21	n/a	n/a	1	52	0
1740.1966	1	10	n/a	n/a	1	52	1
1741.2966	1	21	n/a	n/a	1	52	0
1742.3464	1	10	n/a	n/a	1	52	1
1743.3964	1	21	n/a	n/a	1	52	0
1744.463	1	10	n/a	n/a	1	52	1
1745.5296	1	21	n/a	n/a	1	52	0
1746.7628	1	10	n/a	n/a	1	52	1
1747.7962	1	10	n/a	n/a	1	52	2
1748.846	1	10	n/a	n/a	1	52	3
1749.896	1	21	n/a	n/a	1	52	0
1751.2126	1	10	n/a	n/a	1	52	1
1752.4958	1	10	n/a	n/a	1	52	2
2560.2852	1	81	n/a	n/a	1	0	0
2560.4852	1	81	n/a	n/a	1	0	0
2560.6852	1	81	n/a	n/a	1	0	0
2560.8852	1	81	n/a	n/a	1	0	0
2561.0852	1	81	n/a	n/a	1	0	0
2561.2852	1	81	n/a	n/a	1	0	0
2561.4852	1	81	n/a	n/a	1	0	0
2561.6852	1	81	n/a	n/a	1	0	0
2561.8852	1	81	n/a	n/a	1	0	0
2562.0852	1	81	n/a	n/a	1	0	0
2563.3818	1	10	n/a	n/a	1	51	1
2564.5984	1	21	n/a	n/a	1	51	0
2565.665	1	10	n/a	n/a	1	51	1
2566.7316	1	21	n/a	n/a	1	51	0
2568.0482	1	10	n/a	n/a	1	51	1
2569.248	1	10	n/a	n/a	1	51	2
2570.548	1	10	n/a	n/a	1	51	3
2571.798	1	10	n/a	n/a	1	51	4
2572.9812	1	10	n/a	n/a	1	51	5
2574.1644	1	21	n/a	n/a	1	51	0
2575.381	1	10	n/a	n/a	1	51	1
2576.5976	1	10	n/a	n/a	1	51	2
2577.7808	1	10	n/a	n/a	1	51	3
2578.9808	1	10	n/a	n/a	1	51	4
2580.164	1	10	n/a	n/a	1	51	5
2581.4806	1	10	n/a	n/a	1	51	6
2582.564	1	10	n/a	n/a	1	51	7
2583.6472	1	21	n/a	n/a	1	51	0
2584.8638	1	10	n/a	n/a	1	51	1
2586.1304	1	10	n/a	n/a	1	51	2
2594.3278	1	81	n/a	n/a	1	0	0
2594.5278	1	81	n/a	n/a	1	0	0
2594.7278	1	81	n/a	n/a	1	0	0
2594.9278	1	81	n/a	n/a	1	0	0
2595.1278	1	81	n/a	n/a	1	0	0
2595.3278	1	81	n/a	n/a	1	0	0
2595.5278	1	81	n/a	n/a	1	0	0
2595.7278	1	81	n/a	n/a	1	0	0
2595.9278	1	81	n/a	n/a	1	0	0
2596.1278	1	81	n/a	n/a	1	0	0
2597.4964	1	10	n/a	n/a	1	51	1
2598.763	1	10	n/a	n/a	1	51	2
2599.8796	1	10	n/a	n/a	1	51	3
2600.9296	1	10	n/a	n/a	1	51	4
2602.0628	1	10	n/a	n/a	1	51	5
2603.2628	1	10	n/a	n/a	1	51	6
2604.3294	1	10	n/a	n/a	1	51	7
2605.396	1	21	n/a	n/a	1	51	0
2606.6126	1	10	n/a	n/a	1	51	1
2607.7792	1	10	n/a	n/a	1	51	2
2608.8958	1	10	n/a	n/a	1	51	3
2610.0624	1	10	n/a	n/a	1	51	4
2611.2456	1	10	n/a	n/a	1	51	5
2612.4288	1	10	n/a	n/a	1	51	6
2613.5122	1	10	n/a	n/a	1	51	7
2614.5954	1	21	n/a	n/a	1	51	0
2615.7286	1	10	n/a	n/a	1	51	1
2617.012	1	10	n/a	n/a	1	51	2
2618.0618	1	10	n/a	n/a	1	51	3
2619.1118	1	10	n/a	n/a	1	51	4
2627.4362	1	81	n/a	n/a	1	0	0
2627.6362	1	81	n/a	n/a	1	0	0
2627.8362	1	81	n/a	n/a	1	0	0
2628.0362	1	81	n/a	n/a	1	0	0
2628.2362	1	81	n/a	n/a	1	0	0
2628.4362	1	81	n/a	n/a	1	0	0
2628.6362	1	81	n/a	n/a	1	0	0
2628.8362	1	81	n/a	n/a	1	0	0
2629.0362	1	81	n/a	n/a	1	0	0
2629.2362	1	81	n/a	n/a	1	0	0
2630.5612	1	10	n/a	n/a	1	51	1
2631.7944	1	21	n/a	n/a	1	51	0
2632.9444	1	10	n/a	n/a	1	51	1
2634.0942	1	21	n/a	n/a	1	51	0
2635.1608	1	10	n/a	n/a	1	51	1
2636.4608	1	10	n/a	n/a	1	51	2
2637.644	1	10	n/a	n/a	1	51	3
2638.694	1	10	n/a	n/a	1	51	4
2639.9106	1	10	n/a	n/a	1	51	5
2641.1772	1	10	n/a	n/a	1	51	6
2642.4104	1	10	n/a	n/a	1	51	7
2643.6436	1	21	n/a	n/a	1	51	0
2644.8602	1	10	n/a	n/a	1	51	1
2646.0602	1	10	n/a	n/a	1	51	2
2647.3268	1	10	n/a	n/a	1	51	3
2648.5434	1	10	n/a	n/a	1	51	4
2649.86	1	10	n/a	n/a	1	51	5
2651.1766	1	21	n/a	n/a	1	51	0
2652.4098	1	10	n/a	n/a	1	51	1
2653.5764	1	10	n/a	n/a	1	51	2
2665.1788	1	81	n/a	n/a	1	0	0
2665.3788	1	81	n/a	n/a	1	0	0
2665.5788	1	81	n/a	n/a	1	0	0
2665.7788	1	81	n/a	n/a	1	0	0
2665.9788	1	81	n/a	n/a	1	0	0
2666.1788	1	81	n/a	n/a	1	0	0
2666.3788	1	81	n/a	n/a	1	0	0
2666.5788	1	81	n/a	n/a	1	0	0
2666.7788	1	81	n/a	n/a	1	0	0
2666.9788	1	81	n/a	n/a	1	0	0
2668.209	1	10	n/a	n/a	1	51	1
2669.4922	1	10	n/a	n/a	1	51	2
2670.6754	1	10	n/a	n/a	1	51	3
2671.892	1	10	n/a	n/a	1	51	4
2673.0086	1	10	n/a	n/a	1	51	5
2674.1252	1	21	n/a	n/a	1	51	0
2675.2586	1	10	n/a	n/a	1	51	1
2676.2918	1	10	n/a	n/a	1	51	2
2677.5584	1	10	n/a	n/a	1	51	3
2678.8584	1	10	n/a	n/a	1	51	4
2679.9916	1	10	n/a	n/a	1	51	5
2681.3082	1	10	n/a	n/a	1	51	6
2682.408	1	10	n/a	n/a	1	51	7
2683.508	1	21	n/a	n/a	1	51	0
2684.6746	1	10	n/a	n/a	1	51	1
2685.7246	1	10	n/a	n/a	1	51	2
2686.9578	1	10	n/a	n/a	1	51	3
2688.1578	1	10	n/a	n/a	1	51	4
2689.2744	1	10	n/a	n/a	1	51	5
2690.391	1	21	n/a	n/a	1	51	0
2711.4444	1	81	n/a	n/a	1	0	0
2711.6444	1	81	n/a	n/a	1	0	0
2711.8444	1	81	n/a	n/a	1	0	0
2712.0444	1	81	n/a	n/a	1	0	0
2712.2444	1	81	n/a	n/a	1	0	0
2712.4444	1	81	n/a	n/a	1	0	0
2712.6444	1	81	n/a	n/a	1	0	0
2712.8444	1	81	n/a	n/a	1	0	0
2713.0444	1	81	n/a	n/a	1	0	0
2713.2444	1	81	n/a	n/a	1	0	0
2714.6228	1	10	n/a	n/a	1	50	1
2715.9062	1	21	n/a	n/a	1	50	0
2716.9728	1	10	n/a	n/a	1	50	1
2718.0394	1	10	n/a	n/a	1	50	2
2719.1726	1	10	n/a	n/a	1	50	3
2720.3058	1	21	n/a	n/a	1	50	0
2721.3558	1	10	n/a	n/a	1	50	1
2722.4724	1	10	n/a	n/a	1	50	2
2723.5724	1	10	n/a	n/a	1	50	3
2724.8222	1	10	n/a	n/a	1	50	4
2726.0556	1	10	n/a	n/a	1	50	5
2727.3722	1	10	n/a	n/a	1	50	6
2728.4888	1	10	n/a	n/a	1	50	7
2729.6054	1	21	n/a	n/a	1	50	0
2730.722	1	10	n/a	n/a	1	50	1
2731.8386	1	21	n/a	n/a	1	50	0
2732.9384	1	10	n/a	n/a	1	50	1
2734.2218	1	10	n/a	n/a	1	50	2
2735.4884	1	10	n/a	n/a	1	50	3
2736.7382	1	10	n/a	n/a	1	50	4
2745.3108	1	81	n/a	n/a	1	0	0
2745.6058	1	81	n/a	n/a	1	0	0
2745.7798	1	81	n/a	n/a	1	0	0
2745.8658	1	81	n/a	n/a	1	0	0
2745.9158	1	81	n/a	n/a	1	0	0
2746.3108	1	81	n/a	n/a	1	0	0
2746.5738	1	81	n/a	n/a	1	0	0
2746.5988	1	81	n/a	n/a	1	0	0
2746.8228	1	81	n/a	n/a	1	0	0
2746.9998	1	81	n/a	n/a	1	0	0
2748.4042	1	10	n/a	n/a	1	50	1
2749.4374	1	10	n/a	n/a	1	50	2
2750.6208	1	10	n/a	n/a	1	50	3
2751.804	1	21	n/a	n/a	1	50	0
2752.9372	1	10	n/a	n/a	1	50	1
2754.0706	1	21	n/a	n/a	1	50	0
2755.3704	1	10	n/a	n/a	1	50	1
2756.4204	1	10	n/a	n/a	1	50	2
2757.587	1	10	n/a	n/a	1	50	3
2758.887	1	10	n/a	n/a	1	50	4
2759.9868	1	10	n/a	n/a	1	50	5
2761.0868	1	21	n/a	n/a	1	50	0
2762.12	1	10	n/a	n/a	1	50	1
2763.3534	1	10	n/a	n/a	1	50	2
2764.4866	1	10	n/a	n/a	1	50	3
2765.6198	1	10	n/a	n/a	1	50	4
2766.7198	1	10	n/a	n/a	1	50	5
2767.9864	1	10	n/a	n/a	1	50	6
2769.303	1	10	n/a	n/a	1	50	7
2770.6196	1	21	n/a	n/a	1	50	0
2780.229	1	81	n/a	n/a	1	0	0
2780.662	1	81	n/a	n/a	1	0	0
2780.937	1	81	n/a	n/a	1	0	0
2781.111	1	81	n/a	n/a	1	0	0
2781.144	1	81	n/a	n/a	1	0	0
2781.229	1	81	n/a	n/a	1	0	0
2781.333	1	81	n/a	n/a	1	0	0
2781.673	1	81	n/a	n/a	1	0	0
2781.854	1	81	n/a	n/a	1	0	0
2782.173	1	81	n/a	n/a	1	0	0
2783.3188	1	10	n/a	n/a	1	50	1
2784.4022	1	10	n/a	n/a	1	50	2
2785.7188	1	10	n/a	n/a	1	50	3
2786.902	1	10	n/a	n/a	1	50	4
2788.2186	1	10	n/a	n/a	1	50	5
2789.4518	1	10	n/a	n/a	1	50	6
2790.6018	1	10	n/a	n/a	1	50	7
2791.7516	1	21	n/a	n/a	1	50	0
2792.8182	1	10	n/a	n/a	1	50	1
2794.0016	1	10	n/a	n/a	1	50	2
2795.1182	1	10	n/a	n/a	1	50	3
2796.3014	1	10	n/a	n/a	1	50	4
2797.5014	1	10	n/a	n/a	1	50	5
2798.5846	1	10	n/a	n/a	1	50	6
2799.6846	1	10	n/a	n/a	1	50	7
2800.7844	1	21	n/a	n/a	1	50	0
2802.001	1	10	n/a	n/a	1	50	1
2803.2176	1	21	n/a	n/a	1	50	0
2804.2842	1	10	n/a	n/a	1	50	1
2805.4342	1	10	n/a	n/a	1	50	2
2816.2626	1	81	n/a	n/a	1	0	0
2816.6776	1	81	n/a	n/a	1	0	0
2816.7536	1	81	n/a	n/a	1	0	0
2816.7836	1	81	n/a	n/a	1	0	0
2816.9526	1	81	n/a	n/a	1	0	0
2817.2628	1	81	n/a	n/a	1	0	0
2817.5058	1	81	n/a	n/a	1	0	0
2817.8368	1	81	n/a	n/a	1	0	0
2818.0568	1	81	n/a	n/a	1	0	0
2818.0858	1	81	n/a	n/a	1	0	0
2819.45	1	10	n/a	n/a	1	50	1
2820.6834	1	10	n/a	n/a	1	50	2
2821.9332	1	10	n/a	n/a	1	50	3
2823.1332	1	10	n/a	n/a	1	50	4
2824.4332	1	10	n/a	n/a	1	50	5
2825.733	1	21	n/a	n/a	1	50	0
2826.8496	1	10	n/a	n/a	1	50	1
2827.983	1	10	n/a	n/a	1	50	2
2829.1996	1	10	n/a	n/a	1	50	3
2830.2494	1	10	n/a	n/a	1	50	4
2831.3828	1	10	n/a	n/a	1	50	5
2832.516	1	21	n/a	n/a	1	50	0
2833.5992	1	10	n/a	n/a	1	50	1
2834.7158	1	10	n/a	n/a	1	50	2
2835.7992	1	10	n/a	n/a	1	50	3
2836.8324	1	10	n/a	n/a	1	50	4
2838.1156	1	10	n/a	n/a	1	50	5
2839.399	1	21	n/a	n/a	1	50	0
2840.4656	1	10	n/a	n/a	1	50	1
2841.782	1	10	n/a	n/a	1	50	2
2860.006	1	81	n/a	n/a	1	0	0
2860.079	1	81	n/a	n/a	1	0	0
2860.113	1	81	n/a	n/a	1	0	0
2860.293	1	81	n/a	n/a	1	0	0
2860.62	1	81	n/a	n/a	1	0	0
2861.006	1	81	n/a	n/a	1	0	0
2861.287	1	81	n/a	n/a	1	0	0
2861.414	1	81	n/a	n/a	1	0	0
2861.763	1	81	n/a	n/a	1	0	0
2861.918	1	81	n/a	n/a	1	0	0
2863.0308	1	10	n/a	n/a	1	52	1
2864.0974	1	10	n/a	n/a	1	52	2
2865.2308	1	10	n/a	n/a	1	52	3
2866.3306	1	10	n/a	n/a	1	52	4
2867.5472	1	10	n/a	n/a	1	52	5
2868.7638	1	21	n/a	n/a	1	52	0
2869.7972	1	10	n/a	n/a	1	52	1
2871.0804	1	10	n/a	n/a	1	52	2
2872.297	1	10	n/a	n/a	1	52	3
2873.5136	1	21	n/a	n/a	1	52	0
2874.7468	1	10	n/a	n/a	1	52	1
2875.98	1	21	n/a	n/a	1	52	0
2877.0134	1	10	n/a	n/a	1	52	1
2878.0466	1	21	n/a	n/a	1	52	0
2879.3132	1	10	n/a	n/a	1	52	1
2880.6132	1	10	n/a	n/a	1	52	2
2881.7464	1	10	n/a	n/a	1	52	3
2882.9796	1	10	n/a	n/a	1	52	4
2884.1962	1	10	n/a	n/a	1	52	5
2885.4128	1	21	n/a	n/a	1	52	0
2895.7224	1	81	n/a	n/a	1	0	0
2895.8914	1	81	n/a	n/a	1	0	0
2895.9514	1	81	n/a	n/a	1	0	0
2896.1704	1	81	n/a	n/a	1	0	0
2896.4414	1	81	n/a	n/a	1	0	0
2896.7224	1	81	n/a	n/a	1	0	0
2896.8454	1	81	n/a	n/a	1	0	0
2897.0874	1	81	n/a	n/a	1	0	0
2897.1074	1	81	n/a	n/a	1	0	0
2897.4614	1	81	n/a	n/a	1	0	0
2898.912	1	10	n/a	n/a	1	52	1
2899.962	1	10	n/a	n/a	1	52	2
2901.2286	1	10	n/a	n/a	1	52	3
2902.3952	1	10	n/a	n/a	1	52	4
2903.6952	1	10	n/a	n/a	1	52	5
2904.995	1	21	n/a	n/a	1	52	0
2906.2616	1	10	n/a	n/a	1	52	1
2907.345	1	10	n/a	n/a	1	52	2
2908.5782	1	10	n/a	n/a	1	52	3
2909.8448	1	10	n/a	n/a	1	52	4
2910.8948	1	10	n/a	n/a	1	52	5
2911.9446	1	21	n/a	n/a	1	52	0
2913.1446	1	10	n/a	n/a	1	52	1
2914.3446	1	21	n/a	n/a	1	52	0
2915.3944	1	10	n/a	n/a	1	52	1
2916.5778	1	10	n/a	n/a	1	52	2
2917.6444	1	10	n/a	n/a	1	52	3
2918.7776	1	10	n/a	n/a	1	52	4
2919.8942	1	10	n/a	n/a	1	52	5
2921.0108	1	21	n/a	n/a	1	52	0
2930.9614	1	81	n/a	n/a	1	0	0
2931.1154	1	81	n/a	n/a	1	0	0
2931.3734	1	81	n/a	n/a	1	0	0
2931.7264	1	81	n/a	n/a	1	0	0
2931.8424	1	81	n/a	n/a	1	0	0
2931.9614	1	81	n/a	n/a	1	0	0
2932.3924	1	81	n/a	n/a	1	0	0
2932.4444	1	81	n/a	n/a	1	0	0
2932.8054	1	81	n/a	n/a	1	0	0
2932.8354	1	81	n/a	n/a	1	0	0
2934.1434	1	10	n/a	n/a	1	52	1
2935.4266	1	21	n/a	n/a	1	52	0
2936.6766	1	10	n/a	n/a	1	52	1
2937.9264	1	21	n/a	n/a	1	52	0
2939.1764	1	10	n/a	n/a	1	52	1
2940.2096	1	10	n/a	n/a	1	52	2
2941.5096	1	10	n/a	n/a	1	52	3
2942.6428	1	10	n/a	n/a	1	52	4
2943.9428	1	10	n/a	n/a	1	52	5
2945.2428	1	21	n/a	n/a	1	52	0
2946.3094	1	10	n/a	n/a	1	52	1
2947.626	1	10	n/a	n/a	1	52	2
2948.7426	1	10	n/a	n/a	1	52	3
2949.8092	1	10	n/a	n/a	1	52	4
2951.1256	1	10	n/a	n/a	1	52	5
2952.4256	1	10	n/a	n/a	1	52	6
2953.5922	1	10	n/a	n/a	1	52	7
2954.7588	1	21	n/a	n/a	1	52	0
2955.942	1	10	n/a	n/a	1	52	1
2957.242	1	10	n/a	n/a	1	52	2
2967.3266	1	81	n/a	n/a	1	0	0
2967.5686	1	81	n/a	n/a	1	0	0
2967.6586	1	81	n/a	n/a	1	0	0
2967.6866	1	81	n/a	n/a	1	0	0
2968.1156	1	81	n/a	n/a	1	0	0
2968.3266	1	81	n/a	n/a	1	0	0
2968.5706	1	81	n/a	n/a	1	0	0
2968.6086	1	81	n/a	n/a	1	0	0
2968.7486	1	81	n/a	n/a	1	0	0
2969.0296	1	81	n/a	n/a	1	0	0
2970.4746	1	10	n/a	n/a	1	52	1
2971.6744	1	10	n/a	n/a	1	52	2
2972.7078	1	10	n/a	n/a	1	52	3
2973.9744	1	10	n/a	n/a	1	52	4
2975.0076	1	10	n/a	n/a	1	52	5
2976.041	1	21	n/a	n/a	1	52	0
2977.3574	1	10	n/a	n/a	1	52	1
2978.674	1	21	n/a	n/a	1	52	0
2979.874	1	10	n/a	n/a	1	52	1
2981.0406	1	10	n/a	n/a	1	52	2
2982.1072	1	10	n/a	n/a	1	52	3
2983.3072	1	10	n/a	n/a	1	52	4
2984.3738	1	10	n/a	n/a	1	52	5
2985.657	1	10	n/a	n/a	1	52	6
2986.8736	1	10	n/a	n/a	1	52	7
2988.0902	1	21	n/a	n/a	1	52	0
2989.2734	1	10	n/a	n/a	1	52	1
2990.4568	1	21	n/a	n/a	1	52	0
2991.7066	1	10	n/a	n/a	1	52	1
2992.84	1	10	n/a	n/a	1	52	2
3010.5178	1	81	n/a	n/a	1	0	0
3010.6688	1	81	n/a	n/a	1	0	0
3010.7858	1	81	n/a	n/a	1	0	0
3010.8698	1	81	n/a	n/a	1	0	0
3011.3008	1	81	n/a	n/a	1	0	0
3011.5178	1	81	n/a	n/a	1	0	0
3011.8668	1	81	n/a	n/a	1	0	0
3012.1828	1	81	n/a	n/a	1	0	0
3012.3098	1	81	n/a	n/a	1	0	0
3012.3828	1	81	n/a	n/a	1	0	0
3013.7448	1	10	n/a	n/a	1	52	1
3015.078	1	21	n/a	n/a	1	52	0
3016.2446	1	10	n/a	n/a	1	52	1
3017.2946	1	10	n/a	n/a	1	52	2
3018.4112	1	10	n/a	n/a	1	52	3
3019.4778	1	10	n/a	n/a	1	52	4
3020.5776	1	10	n/a	n/a	1	52	5
3021.7776	1	10	n/a	n/a	1	52	6
3022.8942	1	10	n/a	n/a	1	52	7
3024.0108	1	21	n/a	n/a	1	52	0
3025.1108	1	10	n/a	n/a	1	52	1
3026.294	1	10	n/a	n/a	1	52	2
3027.5772	1	10	n/a	n/a	1	52	3
3028.8272	1	10	n/a	n/a	1	52	4
3029.9438	1	10	n/a	n/a	1	52	5
3031.1104	1	10	n/a	n/a	1	52	6
3032.1936	1	10	n/a	n/a	1	52	7
3033.277	1	21	n/a	n/a	1	52	0
3034.6102	1	10	n/a	n/a	1	52	1
3035.71	1	10	n/a	n/a	1	52	2
3044.3456	1	81	n/a	n/a	1	0	0
3044.7136	1	81	n/a	n/a	1	0	0
3044.8596	1	81	n/a	n/a	1	0	0
3044.9176	1	81	n/a	n/a	1	0	0
3045.2416	1	81	n/a	n/a	1	0	0
3045.3456	1	81	n/a	n/a	1	0	0
3045.4526	1	81	n/a	n/a	1	0	0
3045.8756	1	81	n/a	n/a	1	0	0
3045.9006	1	81	n/a	n/a	1	0	0
3046.2786	1	81	n/a	n/a	1	0	0
3047.5094	1	10	n/a	n/a	1	52	1
3048.776	1	21	n/a	n/a	1	52	0
3049.926	1	10	n/a	n/a	1	52	1
3051.1426	1	10	n/a	n/a	1	52	2
3052.1924	1	10	n/a	n/a	1	52	3
3053.2424	1	21	n/a	n/a	1	52	0
3054.3424	1	10	n/a	n/a	1	52	1
3055.4756	1	10	n/a	n/a	1	52	2
3056.5256	1	10	n/a	n/a	1	52	3
3057.7422	1	10	n/a	n/a	1	52	4
3058.842	1	10	n/a	n/a	1	52	5
3059.942	1	21	n/a	n/a	1	52	0
3060.992	1	10	n/a	n/a	1	52	1
3062.0418	1	21	n/a	n/a	1	52	0
3063.3418	1	10	n/a	n/a	1	52	1
3064.525	1	10	n/a	n/a	1	52	2
3065.825	1	10	n/a	n/a	1	52	3
3066.8916	1	10	n/a	n/a	1	52	4
3067.9748	1	10	n/a	n/a	1	52	5
3069.0414	1	21	n/a	n/a	1	52	0
3078.2698	1	81	n/a	n/a	1	0	0
3078.4188	1	81	n/a	n/a	1	0	0
3078.7338	1	81	n/a	n/a	1	0	0
3078.9488	1	81	n/a	n/a	1	0	0
3078.9738	1	81	n/a	n/a	1	0	0
3079.2698	1	81	n/a	n/a	1	0	0
3079.3568	1	81	n/a	n/a	1	0	0
3079.5088	1	81	n/a	n/a	1	0	0
3079.5488	1	81	n/a	n/a	1	0	0
3079.9018	1	81	n/a	n/a	1	0	0
3081.4074	1	10	n/a	n/a	1	52	1
3082.6574	1	21	n/a	n/a	1	52	0
3083.7906	1	10	n/a	n/a	1	52	1
3084.9238	1	10	n/a	n/a	1	52	2
3086.2404	1	10	n/a	n/a	1	52	3
3087.307	1	10	n/a	n/a	1	52	4
3088.4236	1	10	n/a	n/a	1	52	5
3089.5402	1	21	n/a	n/a	1	52	0
3090.8068	1	10	n/a	n/a	1	52	1
3091.8402	1	10	n/a	n/a	1	52	2
3093.1068	1	10	n/a	n/a	1	52	3
3094.2734	1	10	n/a	n/a	1	52	4
3095.59	1	10	n/a	n/a	1	52	5
3096.8898	1	10	n/a	n/a	1	52	6
3097.9232	1	10	n/a	n/a	1	52	7
3098.9564	1	21	n/a	n/a	1	52	0
3100.0396	1	10	n/a	n/a	1	52	1
3101.323	1	10	n/a	n/a	1	52	2
3102.3228	1	10	n/a	n/a	1	52	3
3103.3728	1	21	n/a	n/a	1	52	0
3113.6944	1	81	n/a	n/a	1	0	0
3113.7474	1	81	n/a	n/a	1	0	0
3114.0074	1	81	n/a	n/a	1	0	0
3114.3314	1	81	n/a	n/a	1	0	0
3114.6154	1	81	n/a	n/a	1	0	0
3114.6944	1	81	n/a	n/a	1	0	0
3114.9644	1	81	n/a	n/a	1	0	0
3115.0754	1	81	n/a	n/a	1	0	0
3115.1194	1	81	n/a	n/a	1	0	0
3115.1874	1	81	n/a	n/a	1	0	0
3116.8886	1	10	n/a	n/a	1	52	1
3118.1386	1	10	n/a	n/a	1	52	2
3119.4218	1	10	n/a	n/a	1	52	3
3120.7052	1	10	n/a	n/a	1	52	4
3121.905	1	10	n/a	n/a	1	52	5
3123.0716	1	10	n/a	n/a	1	52	6
3124.3382	1	10	n/a	n/a	1	52	7
3125.6048	1	21	n/a	n/a	1	52	0
3126.6548	1	10	n/a	n/a	1	52	1
3127.9214	1	10	n/a	n/a	1	52	2
3128.9714	1	10	n/a	n/a	1	52	3
3130.2546	1	10	n/a	n/a	1	52	4
3131.4212	1	10	n/a	n/a	1	52	5
3132.5878	1	21	n/a	n/a	1	52	0
3133.6544	1	10	n/a	n/a	1	52	1
3134.8542	1	10	n/a	n/a	1	52	2
3136.0376	1	10	n/a	n/a	1	52	3
3137.1208	1	10	n/a	n/a	1	52	4
3138.4374	1	10	n/a	n/a	1	52	5
3139.754	1	21	n/a	n/a	1	52	0
3158.1164	1	81	n/a	n/a	1	0	0
3158.2094	1	81	n/a	n/a	1	0	0
3158.6474	1	81	n/a	n/a	1	0	0
3158.6794	1	81	n/a	n/a	1	0	0
3159.0254	1	81	n/a	n/a	1	0	0
3159.1164	1	81	n/a	n/a	1	0	0
3159.3714	1	81	n/a	n/a	1	0	0
3159.4604	1	81	n/a	n/a	1	0	0
3159.8234	1	81	n/a	n/a	1	0	0
3159.8644	1	81	n/a	n/a	1	0	0
3161.136	1	10	n/a	n/a	1	50	1
3162.2694	1	10	n/a	n/a	1	50	2
3163.5526	1	10	n/a	n/a	1	50	3
3164.6526	1	10	n/a	n/a	1	50	4
3165.8524	1	10	n/a	n/a	1	50	5
3167.1024	1	10	n/a	n/a	1	50	6
3168.2856	1	10	n/a	n/a	1	50	7
3169.469	1	21	n/a	n/a	1	50	0
3170.5522	1	10	n/a	n/a	1	50	1
3171.8688	1	10	n/a	n/a	1	50	2
3172.902	1	10	n/a	n/a	1	50	3
3173.9354	1	21	n/a	n/a	1	50	0
3175.0686	1	10	n/a	n/a	1	50	1
3176.1018	1	10	n/a	n/a	1	50	2
3177.3184	1	10	n/a	n/a	1	50	3
3178.6184	1	10	n/a	n/a	1	50	4
3179.835	1	10	n/a	n/a	1	50	5
3181.1516	1	10	n/a	n/a	1	50	6
3182.4182	1	10	n/a	n/a	1	50	7
3183.6848	1	21	n/a	n/a	1	50	0
3194.3874	1	81	n/a	n/a	1	0	0
3194.5874	1	81	n/a	n/a	1	0	0
3194.7874	1	81	n/a	n/a	1	0	0
3194.9874	1	81	n/a	n/a	1	0	0
3195.1874	1	81	n/a	n/a	1	0	0
3195.3874	1	81	n/a	n/a	1	0	0
3195.5874	1	81	n/a	n/a	1	0	0
3195.7874	1	81	n/a	n/a	1	0	0
3195.9874	1	81	n/a	n/a	1	0	0
3196.1874	1	81	n/a	n/a	1	0	0
3197.5006	1	10	n/a	n/a	1	50	1
3198.7172	1	10	n/a	n/a	1	50	2
3199.8672	1	10	n/a	n/a	1	50	3
3201.017	1	21	n/a	n/a	1	50	0
3202.2004	1	10	n/a	n/a	1	50	1
3203.367	1	10	n/a	n/a	1	50	2
3204.6668	1	10	n/a	n/a	1	50	3
3205.9834	1	10	n/a	n/a	1	50	4
3207.2	1	10	n/a	n/a	1	50	5
3208.4	1	10	n/a	n/a	1	50	6
3209.4832	1	10	n/a	n/a	1	50	7
3210.5666	1	21	n/a	n/a	1	50	0
3211.7498	1	10	n/a	n/a	1	50	1
3212.933	1	21	n/a	n/a	1	50	0
3214.2496	1	10	n/a	n/a	1	50	1
3215.3162	1	10	n/a	n/a	1	50	2
3216.4328	1	10	n/a	n/a	1	50	3
3217.5494	1	21	n/a	n/a	1	50	0
3218.866	1	10	n/a	n/a	1	50	1
3220.1826	1	21	n/a	n/a	1	50	0
3230.0092	1	81	n/a	n/a	1	0	0
3230.2092	1	81	n/a	n/a	1	0	0
3230.4092	1	81	n/a	n/a	1	0	0
3230.6092	1	81	n/a	n/a	1	0	0
3230.8092	1	81	n/a	n/a	1	0	0
3231.0092	1	81	n/a	n/a	1	0	0
3231.2092	1	81	n/a	n/a	1	0	0
3231.4092	1	81	n/a	n/a	1	0	0
3231.6092	1	81	n/a	n/a	1	0	0
3231.8092	1	81	n/a	n/a	1	0	0
3233.0986	1	10	n/a	n/a	1	50	1
3234.2484	1	10	n/a	n/a	1	50	2
3235.4984	1	10	n/a	n/a	1	50	3
3236.7484	1	21	n/a	n/a	1	50	0
3237.865	1	10	n/a	n/a	1	50	1
3238.9816	1	21	n/a	n/a	1	50	0
3240.0314	1	10	n/a	n/a	1	50	1
3241.2148	1	10	n/a	n/a	1	50	2
3242.348	1	10	n/a	n/a	1	50	3
3243.5312	1	10	n/a	n/a	1	50	4
3244.7478	1	10	n/a	n/a	1	50	5
3245.9312	1	10	n/a	n/a	1	50	6
3247.0978	1	10	n/a	n/a	1	50	7
3248.2644	1	21	n/a	n/a	1	50	0
3249.4642	1	10	n/a	n/a	1	50	1
3250.5142	1	10	n/a	n/a	1	50	2
3251.7808	1	10	n/a	n/a	1	50	3
3253.0308	1	10	n/a	n/a	1	50	4
3254.3306	1	10	n/a	n/a	1	50	5
3255.6306	1	21	n/a	n/a	1	50	0
3265.9202	1	81	n/a	n/a	1	0	0
3266.0582	1	81	n/a	n/a	1	0	0
3266.3462	1	81	n/a	n/a	1	0	0
3266.4172	1	81	n/a	n/a	1	0	0
3266.4412	1	81	n/a	n/a	1	0	0
3266.9202	1	81	n/a	n/a	1	0	0
3267.3422	1	81	n/a	n/a	1	0	0
3267.4912	1	81	n/a	n/a	1	0	0
3267.5122	1	81	n/a	n/a	1	0	0
3267.7902	1	81	n/a	n/a	1	0	0
3269.0132	1	10	n/a	n/a	1	50	1
3270.2796	1	10	n/a	n/a	1	50	2
3271.4796	1	10	n/a	n/a	1	50	3
3272.7462	1	10	n/a	n/a	1	50	4
3274.0628	1	10	n/a	n/a	1	50	5
3275.096	1	10	n/a	n/a	1	50	6
3276.2126	1	10	n/a	n/a	1	50	7
3277.3292	1	21	n/a	n/a	1	50	0
3278.4292	1	10	n/a	n/a	1	50	1
3279.5292	1	21	n/a	n/a	1	50	0
3280.779	1	10	n/a	n/a	1	50	1
3281.8624	1	10	n/a	n/a	1	50	2
3283.179	1	10	n/a	n/a	1	50	3
3284.4956	1	10	n/a	n/a	1	50	4
3285.6954	1	10	n/a	n/a	1	50	5
3286.8954	1	21	n/a	n/a	1	50	0
3288.0954	1	10	n/a	n/a	1	50	1
3289.2286	1	10	n/a	n/a	1	50	2
3290.3952	1	10	n/a	n/a	1	50	3
3291.5952	1	10	n/a	n/a	1	50	4
3310.9734	1	81	n/a	n/a	1	0	0
3311.0074	1	81	n/a	n/a	1	0	0
3311.3604	1	81	n/a	n/a	1	0	0
3311.4204	1	81	n/a	n/a	1	0	0
3311.5144	1	81	n/a	n/a	1	0	0
3311.9734	1	81	n/a	n/a	1	0	0
3312.2414	1	81	n/a	n/a	1	0	0
3312.5394	1	81	n/a	n/a	1	0	0
3312.7654	1	81	n/a	n/a	1	0	0
3312.8844	1	81	n/a	n/a	1	0	0
3314.1604	1	10	n/a	n/a	1	52	1
3315.377	1	10	n/a	n/a	1	52	2
3316.527	1	10	n/a	n/a	1	52	3
3317.677	1	21	n/a	n/a	1	52	0
3318.8936	1	10	n/a	n/a	1	52	1
3320.2102	1	10	n/a	n/a	1	52	2
3321.5268	1	10	n/a	n/a	1	52	3
3322.7932	1	10	n/a	n/a	1	52	4
3324.0432	1	10	n/a	n/a	1	52	5
3325.1764	1	10	n/a	n/a	1	52	6
3326.343	1	10	n/a	n/a	1	52	7
3327.5096	1	21	n/a	n/a	1	52	0
3328.7762	1	10	n/a	n/a	1	52	1
3330.0428	1	21	n/a	n/a	1	52	0
3331.0762	1	10	n/a	n/a	1	52	1
3332.376	1	10	n/a	n/a	1	52	2
3333.5594	1	10	n/a	n/a	1	52	3
3334.8592	1	10	n/a	n/a	1	52	4
3335.8926	1	10	n/a	n/a	1	52	5
3336.9258	1	21	n/a	n/a	1	52	0
3348.4684	1	81	n/a	n/a	1	0	0
3348.6424	1	81	n/a	n/a	1	0	0
3348.7434	1	81	n/a	n/a	1	0	0
3348.9824	1	81	n/a	n/a	1	0	0
3349.3544	1	81	n/a	n/a	1	0	0
3349.4686	1	81	n/a	n/a	1	0	0
3349.8896	1	81	n/a	n/a	1	0	0
3349.9296	1	81	n/a	n/a	1	0	0
3350.1526	1	81	n/a	n/a	1	0	0
3350.2686	1	81	n/a	n/a	1	0	0
3351.675	1	10	n/a	n/a	1	52	1
3352.9248	1	10	n/a	n/a	1	52	2
3354.1914	1	10	n/a	n/a	1	52	3
3355.358	1	10	n/a	n/a	1	52	4
3356.3914	1	10	n/a	n/a	1	52	5
3357.4246	1	21	n/a	n/a	1	52	0
3358.6746	1	10	n/a	n/a	1	52	1
3359.9744	1	10	n/a	n/a	1	52	2
3361.2078	1	10	n/a	n/a	1	52	3
3362.4076	1	10	n/a	n/a	1	52	4
3363.491	1	10	n/a	n/a	1	52	5
3364.5576	1	10	n/a	n/a	1	52	6
3365.7242	1	10	n/a	n/a	1	52	7
3366.8908	1	21	n/a	n/a	1	52	0
3367.924	1	10	n/a	n/a	1	52	1
3369.0572	1	10	n/a	n/a	1	52	2
3370.2906	1	10	n/a	n/a	1	52	3
3371.6072	1	10	n/a	n/a	1	52	4
3372.8238	1	10	n/a	n/a	1	52	5
3374.0402	1	21	n/a	n/a	1	52	0
3383.826	1	81	n/a	n/a	1	0	0
3383.862	1	81	n/a	n/a	1	0	0
3383.99	1	81	n/a	n/a	1	0	0
3384.252	1	81	n/a	n/a	1	0	0
3384.672	1	81	n/a	n/a	1	0	0
3384.826	1	81	n/a	n/a	1	0	0
3385.139	1	81	n/a	n/a	1	0	0
3385.293	1	81	n/a	n/a	1	0	0
3385.549	1	81	n/a	n/a	1	0	0
3385.583	1	81	n/a	n/a	1	0	0
3387.0228	1	10	n/a	n/a	1	52	1
3388.0894	1	10	n/a	n/a	1	52	2
3389.1394	1	10	n/a	n/a	1	52	3
3390.3394	1	10	n/a	n/a	1	52	4
3391.4726	1	10	n/a	n/a	1	52	5
3392.6058	1	21	n/a	n/a	1	52	0
3393.7224	1	10	n/a	n/a	1	52	1
3395.039	1	10	n/a	n/a	1	52	2
3396.1556	1	10	n/a	n/a	1	52	3
3397.3556	1	10	n/a	n/a	1	52	4
3398.5722	1	10	n/a	n/a	1	52	5
3399.7222	1	10	n/a	n/a	1	52	6
3400.9888	1	10	n/a	n/a	1	52	7
3402.2554	1	21	n/a	n/a	1	52	0
3403.4052	1	10	n/a	n/a	1	52	1
3404.4386	1	10	n/a	n/a	1	52	2
3405.6884	1	10	n/a	n/a	1	52	3
3407.005	1	10	n/a	n/a	1	52	4
3408.155	1	10	n/a	n/a	1	52	5
3409.3048	1	21	n/a	n/a	1	52	0
3419.9216	1	81	n/a	n/a	1	0	0
3419.9676	1	81	n/a	n/a	1	0	0
3420.0996	1	81	n/a	n/a	1	0	0
3420.1706	1	81	n/a	n/a	1	0	0
3420.2756	1	81	n/a	n/a	1	0	0
3420.9216	1	81	n/a	n/a	1	0	0
3421.2536	1	81	n/a	n/a	1	0	0
3421.4216	1	81	n/a	n/a	1	0	0
3421.5196	1	81	n/a	n/a	1	0	0
3421.6466	1	81	n/a	n/a	1	0	0
3423.0374	1	10	n/a	n/a	1	52	1
3424.254	1	21	n/a	n/a	1	52	0
3425.3706	1	10	n/a	n/a	1	52	1
3426.6538	1	10	n/a	n/a	1	52	2
3427.9038	1	10	n/a	n/a	1	52	3
3429.1538	1	21	n/a	n/a	1	52	0
3430.3204	1	10	n/a	n/a	1	52	1
3431.487	1	21	n/a	n/a	1	52	0
3432.7702	1	10	n/a	n/a	1	52	1
3434.0034	1	10	n/a	n/a	1	52	2
3435.07	1	10	n/a	n/a	1	52	3
3436.1366	1	10	n/a	n/a	1	52	4
3437.4366	1	10	n/a	n/a	1	52	5
3438.7366	1	21	n/a	n/a	1	52	0
3440.0364	1	10	n/a	n/a	1	52	1
3441.2364	1	10	n/a	n/a	1	52	2
3442.353	1	10	n/a	n/a	1	52	3
3443.5696	1	10	n/a	n/a	1	52	4
3444.6862	1	10	n/a	n/a	1	52	5
3445.8528	1	10	n/a	n/a	1	52	6
