onset	duration	value	response	rt	good	TMS	seq
136.3352	1	82	n/a	n/a	1	0	0
136.3752	1	82	n/a	n/a	1	0	0
136.5502	1	82	n/a	n/a	1	0	0
136.8842	1	82	n/a	n/a	1	0	0
136.9512	1	82	n/a	n/a	1	0	0
137.3352	1	82	n/a	n/a	1	0	0
137.3802	1	82	n/a	n/a	1	0	0
137.6672	1	82	n/a	n/a	1	0	0
137.8792	1	82	n/a	n/a	1	0	0
137.9522	1	82	n/a	n/a	1	0	0
139.3558	1	10	n/a	n/a	1	52	1
140.4558	1	10	n/a	n/a	1	52	2
141.6056	1	10	n/a	n/a	1	52	3
142.9056	1	10	n/a	n/a	1	52	4
144.1056	1	10	n/a	n/a	1	52	5
145.3054	1	21	n/a	n/a	1	52	0
146.4554	1	10	n/a	n/a	1	52	1
147.722	1	10	n/a	n/a	1	52	2
148.9052	1	10	n/a	n/a	1	52	3
150.0886	1	21	n/a	n/a	1	52	0
151.3218	1	10	n/a	n/a	1	52	1
152.505	1	10	n/a	n/a	1	52	2
153.6884	1	10	n/a	n/a	1	52	3
154.8716	1	21	n/a	n/a	1	52	0
156.1882	1	10	n/a	n/a	1	52	1
157.5048	1	21	n/a	n/a	1	52	0
158.6546	1	10	n/a	n/a	1	52	1
159.8046	1	10	n/a	n/a	1	52	2
161.0546	1	10	n/a	n/a	1	52	3
162.2212	1	10	n/a	n/a	1	52	4
163.1056	1	82	n/a	n/a	1	0	0
163.1886	1	82	n/a	n/a	1	0	0
163.2936	1	82	n/a	n/a	1	0	0
163.6806	1	82	n/a	n/a	1	0	0
164.0176	1	82	n/a	n/a	1	0	0
164.1056	1	82	n/a	n/a	1	0	0
164.5066	1	82	n/a	n/a	1	0	0
164.6106	1	82	n/a	n/a	1	0	0
164.8806	1	82	n/a	n/a	1	0	0
164.9316	1	82	n/a	n/a	1	0	0
166.2876	1	10	n/a	n/a	1	52	1
167.3208	1	10	n/a	n/a	1	52	2
168.4542	1	10	n/a	n/a	1	52	3
169.7708	1	10	n/a	n/a	1	52	4
170.854	1	10	n/a	n/a	1	52	5
171.9372	1	21	n/a	n/a	1	52	0
173.2372	1	10	n/a	n/a	1	52	1
174.3204	1	10	n/a	n/a	1	52	2
175.4704	1	10	n/a	n/a	1	52	3
176.6204	1	10	n/a	n/a	1	52	4
177.8536	1	10	n/a	n/a	1	52	5
179.0868	1	21	n/a	n/a	1	52	0
180.2868	1	10	n/a	n/a	1	52	1
181.5034	1	21	n/a	n/a	1	52	0
182.82	1	10	n/a	n/a	1	52	1
184.0366	1	10	n/a	n/a	1	52	2
185.1364	1	10	n/a	n/a	1	52	3
186.3198	1	10	n/a	n/a	1	52	4
187.4364	1	10	n/a	n/a	1	52	5
188.553	1	21	n/a	n/a	1	52	0
189.5966	1	82	n/a	n/a	1	0	0
189.7606	1	82	n/a	n/a	1	0	0
189.8766	1	82	n/a	n/a	1	0	0
190.1566	1	82	n/a	n/a	1	0	0
190.5276	1	82	n/a	n/a	1	0	0
190.5966	1	82	n/a	n/a	1	0	0
190.6696	1	82	n/a	n/a	1	0	0
190.7696	1	82	n/a	n/a	1	0	0
190.9446	1	82	n/a	n/a	1	0	0
191.0736	1	82	n/a	n/a	1	0	0
192.7026	1	10	n/a	n/a	1	52	1
194.0192	1	10	n/a	n/a	1	52	2
195.1526	1	10	n/a	n/a	1	52	3
196.2858	1	21	n/a	n/a	1	52	0
197.5024	1	10	n/a	n/a	1	52	1
198.8024	1	10	n/a	n/a	1	52	2
200.1022	1	10	n/a	n/a	1	52	3
201.4022	1	21	n/a	n/a	1	52	0
202.6688	1	10	n/a	n/a	1	52	1
203.752	1	10	n/a	n/a	1	52	2
204.902	1	10	n/a	n/a	1	52	3
206.1352	1	10	n/a	n/a	1	52	4
207.2684	1	10	n/a	n/a	1	52	5
208.435	1	10	n/a	n/a	1	52	6
209.7016	1	10	n/a	n/a	1	52	7
210.9682	1	21	n/a	n/a	1	52	0
212.1848	1	10	n/a	n/a	1	52	1
213.3182	1	10	n/a	n/a	1	52	2
214.6014	1	10	n/a	n/a	1	52	3
215.6346	1	10	n/a	n/a	1	52	4
216.4982	1	82	n/a	n/a	1	0	0
216.9242	1	82	n/a	n/a	1	0	0
217.1532	1	82	n/a	n/a	1	0	0
217.2722	1	82	n/a	n/a	1	0	0
217.3022	1	82	n/a	n/a	1	0	0
217.4982	1	82	n/a	n/a	1	0	0
217.8932	1	82	n/a	n/a	1	0	0
218.1152	1	82	n/a	n/a	1	0	0
218.3652	1	82	n/a	n/a	1	0	0
218.4322	1	82	n/a	n/a	1	0	0
219.7012	1	10	n/a	n/a	1	52	1
221.0176	1	21	n/a	n/a	1	52	0
222.1676	1	10	n/a	n/a	1	52	1
223.3176	1	21	n/a	n/a	1	52	0
224.6342	1	10	n/a	n/a	1	52	1
225.734	1	10	n/a	n/a	1	52	2
226.9006	1	10	n/a	n/a	1	52	3
228.0672	1	21	n/a	n/a	1	52	0
229.1672	1	10	n/a	n/a	1	52	1
230.3838	1	10	n/a	n/a	1	52	2
231.7004	1	10	n/a	n/a	1	52	3
232.8004	1	10	n/a	n/a	1	52	4
233.8502	1	10	n/a	n/a	1	52	5
234.9002	1	21	n/a	n/a	1	52	0
235.9502	1	10	n/a	n/a	1	52	1
237.05	1	10	n/a	n/a	1	52	2
238.2334	1	10	n/a	n/a	1	52	3
239.2832	1	10	n/a	n/a	1	52	4
240.5832	1	10	n/a	n/a	1	52	5
241.8832	1	21	n/a	n/a	1	52	0
242.7098	1	82	n/a	n/a	1	0	0
242.8028	1	82	n/a	n/a	1	0	0
243.1328	1	82	n/a	n/a	1	0	0
243.1988	1	82	n/a	n/a	1	0	0
243.5548	1	82	n/a	n/a	1	0	0
243.7098	1	82	n/a	n/a	1	0	0
243.7478	1	82	n/a	n/a	1	0	0
243.8668	1	82	n/a	n/a	1	0	0
244.0168	1	82	n/a	n/a	1	0	0
244.3728	1	82	n/a	n/a	1	0	0
245.9162	1	10	n/a	n/a	1	52	1
247.0828	1	10	n/a	n/a	1	52	2
248.116	1	10	n/a	n/a	1	52	3
249.1494	1	21	n/a	n/a	1	52	0
250.3492	1	10	n/a	n/a	1	52	1
251.6658	1	10	n/a	n/a	1	52	2
252.6992	1	10	n/a	n/a	1	52	3
253.7324	1	21	n/a	n/a	1	52	0
255.0156	1	10	n/a	n/a	1	52	1
256.299	1	21	n/a	n/a	1	52	0
257.4822	1	10	n/a	n/a	1	52	1
258.6154	1	10	n/a	n/a	1	52	2
259.8488	1	10	n/a	n/a	1	52	3
261.0654	1	10	n/a	n/a	1	52	4
262.182	1	10	n/a	n/a	1	52	5
263.4318	1	10	n/a	n/a	1	52	6
264.6984	1	10	n/a	n/a	1	52	7
265.965	1	21	n/a	n/a	1	52	0
267.065	1	10	n/a	n/a	1	52	1
268.165	1	21	n/a	n/a	1	52	0
292.9288	1	82	n/a	n/a	1	0	0
293.0418	1	82	n/a	n/a	1	0	0
293.1208	1	82	n/a	n/a	1	0	0
293.4578	1	82	n/a	n/a	1	0	0
293.7728	1	82	n/a	n/a	1	0	0
293.9288	1	82	n/a	n/a	1	0	0
294.0718	1	82	n/a	n/a	1	0	0
294.2438	1	82	n/a	n/a	1	0	0
294.6608	1	82	n/a	n/a	1	0	0
294.7428	1	82	n/a	n/a	1	0	0
295.88	1	10	n/a	n/a	1	50	1
297.0298	1	10	n/a	n/a	1	50	2
298.0798	1	10	n/a	n/a	1	50	3
299.1298	1	21	n/a	n/a	1	50	0
300.263	1	10	n/a	n/a	1	50	1
301.363	1	10	n/a	n/a	1	50	2
302.5796	1	10	n/a	n/a	1	50	3
303.7962	1	21	n/a	n/a	1	50	0
304.9294	1	10	n/a	n/a	1	50	1
306.1626	1	10	n/a	n/a	1	50	2
307.4792	1	10	n/a	n/a	1	50	3
308.6626	1	10	n/a	n/a	1	50	4
309.7624	1	10	n/a	n/a	1	50	5
311.079	1	10	n/a	n/a	1	50	6
312.3624	1	10	n/a	n/a	1	50	7
313.6456	1	21	n/a	n/a	1	50	0
314.6956	1	10	n/a	n/a	1	50	1
315.9288	1	10	n/a	n/a	1	50	2
316.9788	1	10	n/a	n/a	1	50	3
318.0286	1	21	n/a	n/a	1	50	0
318.9624	1	82	n/a	n/a	1	0	0
319.0024	1	82	n/a	n/a	1	0	0
319.2664	1	82	n/a	n/a	1	0	0
319.5884	1	82	n/a	n/a	1	0	0
319.6784	1	82	n/a	n/a	1	0	0
319.9624	1	82	n/a	n/a	1	0	0
319.9924	1	82	n/a	n/a	1	0	0
320.1464	1	82	n/a	n/a	1	0	0
320.5514	1	82	n/a	n/a	1	0	0
320.6054	1	82	n/a	n/a	1	0	0
322.095	1	10	n/a	n/a	1	50	1
323.195	1	10	n/a	n/a	1	50	2
324.3616	1	10	n/a	n/a	1	50	3
325.5282	1	21	n/a	n/a	1	50	0
326.7282	1	10	n/a	n/a	1	50	1
328.0114	1	10	n/a	n/a	1	50	2
329.2946	1	10	n/a	n/a	1	50	3
330.578	1	21	n/a	n/a	1	50	0
331.6946	1	10	n/a	n/a	1	50	1
332.8778	1	10	n/a	n/a	1	50	2
334.111	1	10	n/a	n/a	1	50	3
335.3442	1	21	n/a	n/a	1	50	0
336.5942	1	10	n/a	n/a	1	50	1
337.7774	1	10	n/a	n/a	1	50	2
338.894	1	10	n/a	n/a	1	50	3
340.1274	1	10	n/a	n/a	1	50	4
341.3772	1	10	n/a	n/a	1	50	5
342.5272	1	10	n/a	n/a	1	50	6
343.6272	1	10	n/a	n/a	1	50	7
344.727	1	21	n/a	n/a	1	50	0
345.6818	1	82	n/a	n/a	1	0	0
346.0258	1	82	n/a	n/a	1	0	0
346.1768	1	82	n/a	n/a	1	0	0
346.4818	1	82	n/a	n/a	1	0	0
346.5098	1	82	n/a	n/a	1	0	0
346.6818	1	82	n/a	n/a	1	0	0
346.9358	1	82	n/a	n/a	1	0	0
347.0008	1	82	n/a	n/a	1	0	0
347.1018	1	82	n/a	n/a	1	0	0
347.2298	1	82	n/a	n/a	1	0	0
348.6602	1	10	n/a	n/a	1	50	1
349.7768	1	10	n/a	n/a	1	50	2
351.0434	1	10	n/a	n/a	1	50	3
352.31	1	21	n/a	n/a	1	50	0
353.5098	1	10	n/a	n/a	1	50	1
354.7264	1	10	n/a	n/a	1	50	2
355.7598	1	10	n/a	n/a	1	50	3
356.8764	1	10	n/a	n/a	1	50	4
358.2096	1	10	n/a	n/a	1	50	5
359.543	1	21	n/a	n/a	1	50	0
360.5928	1	10	n/a	n/a	1	50	1
361.8094	1	10	n/a	n/a	1	50	2
362.8594	1	10	n/a	n/a	1	50	3
364.1092	1	10	n/a	n/a	1	50	4
365.4426	1	10	n/a	n/a	1	50	5
366.4758	1	10	n/a	n/a	1	50	6
367.659	1	10	n/a	n/a	1	50	7
368.8424	1	21	n/a	n/a	1	50	0
370.1256	1	10	n/a	n/a	1	50	1
371.4088	1	10	n/a	n/a	1	50	2
372.2842	1	82	n/a	n/a	1	0	0
372.3592	1	82	n/a	n/a	1	0	0
372.6732	1	82	n/a	n/a	1	0	0
372.7832	1	82	n/a	n/a	1	0	0
372.8032	1	82	n/a	n/a	1	0	0
373.2842	1	82	n/a	n/a	1	0	0
373.6072	1	82	n/a	n/a	1	0	0
373.8292	1	82	n/a	n/a	1	0	0
373.9162	1	82	n/a	n/a	1	0	0
374.0752	1	82	n/a	n/a	1	0	0
375.4086	1	10	n/a	n/a	1	50	1
376.6418	1	21	n/a	n/a	1	50	0
377.9418	1	10	n/a	n/a	1	50	1
379.2084	1	10	n/a	n/a	1	50	2
380.4084	1	10	n/a	n/a	1	50	3
381.575	1	10	n/a	n/a	1	50	4
382.7748	1	10	n/a	n/a	1	50	5
383.9748	1	21	n/a	n/a	1	50	0
385.008	1	10	n/a	n/a	1	50	1
386.108	1	10	n/a	n/a	1	50	2
387.2912	1	10	n/a	n/a	1	50	3
388.4744	1	10	n/a	n/a	1	50	4
389.791	1	10	n/a	n/a	1	50	5
391.1076	1	21	n/a	n/a	1	50	0
392.1576	1	10	n/a	n/a	1	50	1
393.2076	1	21	n/a	n/a	1	50	0
394.4242	1	10	n/a	n/a	1	50	1
395.6574	1	10	n/a	n/a	1	50	2
396.7906	1	10	n/a	n/a	1	50	3
397.9406	1	10	n/a	n/a	1	50	4
398.98	1	82	n/a	n/a	1	0	0
399.27	1	82	n/a	n/a	1	0	0
399.402	1	82	n/a	n/a	1	0	0
399.665	1	82	n/a	n/a	1	0	0
399.828	1	82	n/a	n/a	1	0	0
399.98	1	82	n/a	n/a	1	0	0
400.333	1	82	n/a	n/a	1	0	0
400.508	1	82	n/a	n/a	1	0	0
400.642	1	82	n/a	n/a	1	0	0
400.924	1	82	n/a	n/a	1	0	0
402.007	1	10	n/a	n/a	1	50	1
403.1404	1	21	n/a	n/a	1	50	0
404.3402	1	10	n/a	n/a	1	50	1
405.4902	1	10	n/a	n/a	1	50	2
406.7568	1	10	n/a	n/a	1	50	3
408.0234	1	21	n/a	n/a	1	50	0
409.1732	1	10	n/a	n/a	1	50	1
410.4566	1	10	n/a	n/a	1	50	2
411.5732	1	10	n/a	n/a	1	50	3
412.7064	1	10	n/a	n/a	1	50	4
413.8064	1	10	n/a	n/a	1	50	5
414.9062	1	21	n/a	n/a	1	50	0
416.0728	1	10	n/a	n/a	1	50	1
417.1894	1	10	n/a	n/a	1	50	2
418.2228	1	10	n/a	n/a	1	50	3
419.5394	1	10	n/a	n/a	1	50	4
420.606	1	10	n/a	n/a	1	50	5
421.8392	1	10	n/a	n/a	1	50	6
423.0224	1	10	n/a	n/a	1	50	7
424.2058	1	21	n/a	n/a	1	50	0
460.5972	1	81	n/a	n/a	1	0	0
460.7972	1	81	n/a	n/a	1	0	0
460.9972	1	81	n/a	n/a	1	0	0
461.1972	1	81	n/a	n/a	1	0	0
461.3972	1	81	n/a	n/a	1	0	0
461.5972	1	81	n/a	n/a	1	0	0
461.7972	1	81	n/a	n/a	1	0	0
461.9972	1	81	n/a	n/a	1	0	0
462.1972	1	81	n/a	n/a	1	0	0
462.3972	1	81	n/a	n/a	1	0	0
463.5868	1	10	n/a	n/a	1	51	1
464.67	1	10	n/a	n/a	1	51	2
465.9866	1	10	n/a	n/a	1	51	3
467.3032	1	21	n/a	n/a	1	51	0
468.4698	1	10	n/a	n/a	1	51	1
469.6864	1	10	n/a	n/a	1	51	2
470.8864	1	10	n/a	n/a	1	51	3
471.9862	1	10	n/a	n/a	1	51	4
473.2862	1	10	n/a	n/a	1	51	5
474.586	1	21	n/a	n/a	1	51	0
475.636	1	10	n/a	n/a	1	51	1
476.686	1	21	n/a	n/a	1	51	0
477.7526	1	10	n/a	n/a	1	51	1
478.8192	1	10	n/a	n/a	1	51	2
479.8858	1	10	n/a	n/a	1	51	3
480.9524	1	21	n/a	n/a	1	51	0
482.119	1	10	n/a	n/a	1	51	1
483.2022	1	10	n/a	n/a	1	51	2
484.3856	1	10	n/a	n/a	1	51	3
485.5688	1	21	n/a	n/a	1	51	0
486.3584	1	81	n/a	n/a	1	0	0
486.5584	1	81	n/a	n/a	1	0	0
486.7584	1	81	n/a	n/a	1	0	0
486.9584	1	81	n/a	n/a	1	0	0
487.1584	1	81	n/a	n/a	1	0	0
487.3584	1	81	n/a	n/a	1	0	0
487.5584	1	81	n/a	n/a	1	0	0
487.7584	1	81	n/a	n/a	1	0	0
487.9584	1	81	n/a	n/a	1	0	0
488.1584	1	81	n/a	n/a	1	0	0
489.4352	1	10	n/a	n/a	1	51	1
490.6184	1	21	n/a	n/a	1	51	0
491.7184	1	10	n/a	n/a	1	51	1
492.985	1	10	n/a	n/a	1	51	2
494.085	1	10	n/a	n/a	1	51	3
495.3848	1	10	n/a	n/a	1	51	4
496.5848	1	10	n/a	n/a	1	51	5
497.8848	1	10	n/a	n/a	1	51	6
499.018	1	10	n/a	n/a	1	51	7
500.1512	1	21	n/a	n/a	1	51	0
501.2512	1	10	n/a	n/a	1	51	1
502.5512	1	10	n/a	n/a	1	51	2
503.701	1	10	n/a	n/a	1	51	3
504.851	1	21	n/a	n/a	1	51	0
506.1342	1	10	n/a	n/a	1	51	1
507.4174	1	21	n/a	n/a	1	51	0
508.6674	1	10	n/a	n/a	1	51	1
509.7506	1	10	n/a	n/a	1	51	2
510.8172	1	10	n/a	n/a	1	51	3
511.9838	1	10	n/a	n/a	1	51	4
512.7884	1	81	n/a	n/a	1	0	0
512.9884	1	81	n/a	n/a	1	0	0
513.1884	1	81	n/a	n/a	1	0	0
513.3884	1	81	n/a	n/a	1	0	0
513.5884	1	81	n/a	n/a	1	0	0
513.7884	1	81	n/a	n/a	1	0	0
513.9884	1	81	n/a	n/a	1	0	0
514.1884	1	81	n/a	n/a	1	0	0
514.3884	1	81	n/a	n/a	1	0	0
514.5884	1	81	n/a	n/a	1	0	0
515.817	1	10	n/a	n/a	1	51	1
516.9336	1	10	n/a	n/a	1	51	2
517.9836	1	10	n/a	n/a	1	51	3
519.0334	1	21	n/a	n/a	1	51	0
520.1834	1	10	n/a	n/a	1	51	1
521.3334	1	21	n/a	n/a	1	51	0
522.6166	1	10	n/a	n/a	1	51	1
523.7332	1	10	n/a	n/a	1	51	2
525.0164	1	10	n/a	n/a	1	51	3
526.1664	1	10	n/a	n/a	1	51	4
527.4164	1	10	n/a	n/a	1	51	5
528.6662	1	21	n/a	n/a	1	51	0
529.7496	1	10	n/a	n/a	1	51	1
530.8328	1	21	n/a	n/a	1	51	0
531.8828	1	10	n/a	n/a	1	51	1
532.916	1	10	n/a	n/a	1	51	2
534.166	1	10	n/a	n/a	1	51	3
535.2326	1	10	n/a	n/a	1	51	4
536.4992	1	10	n/a	n/a	1	51	5
537.6824	1	10	n/a	n/a	1	51	6
538.6508	1	81	n/a	n/a	1	0	0
538.8508	1	81	n/a	n/a	1	0	0
539.0508	1	81	n/a	n/a	1	0	0
539.2508	1	81	n/a	n/a	1	0	0
539.4508	1	81	n/a	n/a	1	0	0
539.6508	1	81	n/a	n/a	1	0	0
539.8508	1	81	n/a	n/a	1	0	0
540.0508	1	81	n/a	n/a	1	0	0
540.2508	1	81	n/a	n/a	1	0	0
540.4508	1	81	n/a	n/a	1	0	0
541.7154	1	10	n/a	n/a	1	51	1
542.9154	1	10	n/a	n/a	1	51	2
544.1486	1	10	n/a	n/a	1	51	3
545.3652	1	10	n/a	n/a	1	51	4
546.6818	1	10	n/a	n/a	1	51	5
547.9152	1	10	n/a	n/a	1	51	6
549.015	1	10	n/a	n/a	1	51	7
550.115	1	21	n/a	n/a	1	51	0
551.2482	1	10	n/a	n/a	1	51	1
552.4148	1	10	n/a	n/a	1	51	2
553.5482	1	10	n/a	n/a	1	51	3
554.7814	1	10	n/a	n/a	1	51	4
555.9146	1	10	n/a	n/a	1	51	5
556.9646	1	10	n/a	n/a	1	51	6
558.2478	1	10	n/a	n/a	1	51	7
559.531	1	21	n/a	n/a	1	51	0
560.5644	1	10	n/a	n/a	1	51	1
561.6142	1	10	n/a	n/a	1	51	2
562.7808	1	10	n/a	n/a	1	51	3
563.9808	1	10	n/a	n/a	1	51	4
564.7282	1	81	n/a	n/a	1	0	0
564.9282	1	81	n/a	n/a	1	0	0
565.1282	1	81	n/a	n/a	1	0	0
565.3282	1	81	n/a	n/a	1	0	0
565.5282	1	81	n/a	n/a	1	0	0
565.7282	1	81	n/a	n/a	1	0	0
565.9282	1	81	n/a	n/a	1	0	0
566.1282	1	81	n/a	n/a	1	0	0
566.3282	1	81	n/a	n/a	1	0	0
566.5282	1	81	n/a	n/a	1	0	0
567.914	1	10	n/a	n/a	1	51	1
569.2138	1	21	n/a	n/a	1	51	0
570.4304	1	10	n/a	n/a	1	51	1
571.4804	1	10	n/a	n/a	1	51	2
572.647	1	10	n/a	n/a	1	51	3
573.9136	1	10	n/a	n/a	1	51	4
575.1968	1	10	n/a	n/a	1	51	5
576.48	1	21	n/a	n/a	1	51	0
577.63	1	10	n/a	n/a	1	51	1
578.78	1	10	n/a	n/a	1	51	2
580.0966	1	10	n/a	n/a	1	51	3
581.3798	1	10	n/a	n/a	1	51	4
582.5298	1	10	n/a	n/a	1	51	5
583.6796	1	21	n/a	n/a	1	51	0
584.813	1	10	n/a	n/a	1	51	1
585.8796	1	10	n/a	n/a	1	51	2
587.1294	1	10	n/a	n/a	1	51	3
588.3794	1	21	n/a	n/a	1	51	0
589.696	1	10	n/a	n/a	1	51	1
590.7626	1	10	n/a	n/a	1	51	2
703.9764	1	82	n/a	n/a	1	0	0
704.0684	1	82	n/a	n/a	1	0	0
704.1024	1	82	n/a	n/a	1	0	0
704.3914	1	82	n/a	n/a	1	0	0
704.5214	1	82	n/a	n/a	1	0	0
704.9764	1	82	n/a	n/a	1	0	0
705.1004	1	82	n/a	n/a	1	0	0
705.5324	1	82	n/a	n/a	1	0	0
705.5754	1	82	n/a	n/a	1	0	0
705.6754	1	82	n/a	n/a	1	0	0
706.9058	1	10	n/a	n/a	1	52	1
708.189	1	10	n/a	n/a	1	52	2
709.2556	1	10	n/a	n/a	1	52	3
710.3556	1	10	n/a	n/a	1	52	4
711.4888	1	10	n/a	n/a	1	52	5
712.622	1	21	n/a	n/a	1	52	0
713.8386	1	10	n/a	n/a	1	52	1
715.0552	1	21	n/a	n/a	1	52	0
716.3386	1	10	n/a	n/a	1	52	1
717.5384	1	10	n/a	n/a	1	52	2
718.6384	1	10	n/a	n/a	1	52	3
719.955	1	10	n/a	n/a	1	52	4
721.1548	1	10	n/a	n/a	1	52	5
722.3548	1	21	n/a	n/a	1	52	0
723.638	1	10	n/a	n/a	1	52	1
724.7214	1	10	n/a	n/a	1	52	2
725.7712	1	10	n/a	n/a	1	52	3
726.8212	1	21	n/a	n/a	1	52	0
727.9212	1	10	n/a	n/a	1	52	1
729.1878	1	10	n/a	n/a	1	52	2
730.2672	1	82	n/a	n/a	1	0	0
730.4322	1	82	n/a	n/a	1	0	0
730.7322	1	82	n/a	n/a	1	0	0
730.7552	1	82	n/a	n/a	1	0	0
731.1262	1	82	n/a	n/a	1	0	0
731.2672	1	82	n/a	n/a	1	0	0
731.6452	1	82	n/a	n/a	1	0	0
731.9862	1	82	n/a	n/a	1	0	0
732.0312	1	82	n/a	n/a	1	0	0
732.1342	1	82	n/a	n/a	1	0	0
733.2042	1	10	n/a	n/a	1	52	1
734.2542	1	21	n/a	n/a	1	52	0
735.404	1	10	n/a	n/a	1	52	1
736.554	1	21	n/a	n/a	1	52	0
737.6706	1	10	n/a	n/a	1	52	1
738.9372	1	10	n/a	n/a	1	52	2
740.0538	1	10	n/a	n/a	1	52	3
741.2038	1	10	n/a	n/a	1	52	4
742.2704	1	10	n/a	n/a	1	52	5
743.537	1	10	n/a	n/a	1	52	6
744.6702	1	10	n/a	n/a	1	52	7
745.8034	1	21	n/a	n/a	1	52	0
747.02	1	10	n/a	n/a	1	52	1
748.2366	1	21	n/a	n/a	1	52	0
749.5532	1	10	n/a	n/a	1	52	1
750.6198	1	10	n/a	n/a	1	52	2
751.903	1	10	n/a	n/a	1	52	3
753.153	1	10	n/a	n/a	1	52	4
754.253	1	10	n/a	n/a	1	52	5
755.4362	1	10	n/a	n/a	1	52	6
756.2106	1	82	n/a	n/a	1	0	0
756.3646	1	82	n/a	n/a	1	0	0
756.6006	1	82	n/a	n/a	1	0	0
756.8986	1	82	n/a	n/a	1	0	0
756.9186	1	82	n/a	n/a	1	0	0
757.2106	1	82	n/a	n/a	1	0	0
757.2546	1	82	n/a	n/a	1	0	0
757.5186	1	82	n/a	n/a	1	0	0
757.9526	1	82	n/a	n/a	1	0	0
758.0696	1	82	n/a	n/a	1	0	0
759.3194	1	10	n/a	n/a	1	52	1
760.3526	1	10	n/a	n/a	1	52	2
761.6358	1	10	n/a	n/a	1	52	3
762.6692	1	10	n/a	n/a	1	52	4
763.969	1	10	n/a	n/a	1	52	5
765.269	1	21	n/a	n/a	1	52	0
766.4856	1	10	n/a	n/a	1	52	1
767.7022	1	21	n/a	n/a	1	52	0
768.9188	1	10	n/a	n/a	1	52	1
770.1686	1	10	n/a	n/a	1	52	2
771.2852	1	10	n/a	n/a	1	52	3
772.5518	1	10	n/a	n/a	1	52	4
773.7184	1	10	n/a	n/a	1	52	5
774.885	1	21	n/a	n/a	1	52	0
775.9516	1	10	n/a	n/a	1	52	1
777.0182	1	21	n/a	n/a	1	52	0
778.1516	1	10	n/a	n/a	1	52	1
779.2848	1	10	n/a	n/a	1	52	2
780.5848	1	10	n/a	n/a	1	52	3
781.8846	1	21	n/a	n/a	1	52	0
782.6662	1	82	n/a	n/a	1	0	0
782.7602	1	82	n/a	n/a	1	0	0
782.9262	1	82	n/a	n/a	1	0	0
783.3012	1	82	n/a	n/a	1	0	0
783.3302	1	82	n/a	n/a	1	0	0
783.6662	1	82	n/a	n/a	1	0	0
783.7262	1	82	n/a	n/a	1	0	0
783.9532	1	82	n/a	n/a	1	0	0
784.3902	1	82	n/a	n/a	1	0	0
784.5182	1	82	n/a	n/a	1	0	0
785.7678	1	10	n/a	n/a	1	52	1
786.9844	1	10	n/a	n/a	1	52	2
788.2676	1	10	n/a	n/a	1	52	3
789.5508	1	21	n/a	n/a	1	52	0
790.6174	1	10	n/a	n/a	1	52	1
791.684	1	10	n/a	n/a	1	52	2
792.834	1	10	n/a	n/a	1	52	3
793.984	1	21	n/a	n/a	1	52	0
795.1338	1	10	n/a	n/a	1	52	1
796.3338	1	10	n/a	n/a	1	52	2
797.5338	1	10	n/a	n/a	1	52	3
798.7336	1	21	n/a	n/a	1	52	0
799.9002	1	10	n/a	n/a	1	52	1
801.0668	1	10	n/a	n/a	1	52	2
802.3334	1	10	n/a	n/a	1	52	3
803.45	1	10	n/a	n/a	1	52	4
804.5666	1	10	n/a	n/a	1	52	5
805.7166	1	10	n/a	n/a	1	52	6
806.8666	1	10	n/a	n/a	1	52	7
808.0164	1	21	n/a	n/a	1	52	0
809.1282	1	82	n/a	n/a	1	0	0
809.5012	1	82	n/a	n/a	1	0	0
809.6452	1	82	n/a	n/a	1	0	0
809.9282	1	82	n/a	n/a	1	0	0
810.0192	1	82	n/a	n/a	1	0	0
810.1282	1	82	n/a	n/a	1	0	0
810.4202	1	82	n/a	n/a	1	0	0
810.5412	1	82	n/a	n/a	1	0	0
810.9782	1	82	n/a	n/a	1	0	0
811.0722	1	82	n/a	n/a	1	0	0
812.1996	1	10	n/a	n/a	1	52	1
813.2662	1	10	n/a	n/a	1	52	2
814.5828	1	10	n/a	n/a	1	52	3
815.8494	1	10	n/a	n/a	1	52	4
816.8992	1	10	n/a	n/a	1	52	5
817.9492	1	21	n/a	n/a	1	52	0
819.1492	1	10	n/a	n/a	1	52	1
820.349	1	21	n/a	n/a	1	52	0
821.4156	1	10	n/a	n/a	1	52	1
822.4822	1	10	n/a	n/a	1	52	2
823.7822	1	10	n/a	n/a	1	52	3
825.032	1	10	n/a	n/a	1	52	4
826.1154	1	10	n/a	n/a	1	52	5
827.182	1	10	n/a	n/a	1	52	6
828.3652	1	10	n/a	n/a	1	52	7
829.5484	1	21	n/a	n/a	1	52	0
830.6152	1	10	n/a	n/a	1	52	1
831.8984	1	10	n/a	n/a	1	52	2
833.0316	1	10	n/a	n/a	1	52	3
834.1982	1	10	n/a	n/a	1	52	4
845.95	1	81	n/a	n/a	1	0	0
846.15	1	81	n/a	n/a	1	0	0
846.35	1	81	n/a	n/a	1	0	0
846.55	1	81	n/a	n/a	1	0	0
846.7498	1	81	n/a	n/a	1	0	0
846.95	1	81	n/a	n/a	1	0	0
847.15	1	81	n/a	n/a	1	0	0
847.35	1	81	n/a	n/a	1	0	0
847.55	1	81	n/a	n/a	1	0	0
847.75	1	81	n/a	n/a	1	0	0
849.164	1	10	n/a	n/a	1	50	1
850.414	1	10	n/a	n/a	1	50	2
851.4638	1	10	n/a	n/a	1	50	3
852.7138	1	10	n/a	n/a	1	50	4
853.8304	1	10	n/a	n/a	1	50	5
855.147	1	10	n/a	n/a	1	50	6
856.447	1	10	n/a	n/a	1	50	7
857.7468	1	21	n/a	n/a	1	50	0
858.9302	1	10	n/a	n/a	1	50	1
860.1134	1	21	n/a	n/a	1	50	0
861.28	1	10	n/a	n/a	1	50	1
862.5966	1	10	n/a	n/a	1	50	2
863.8964	1	10	n/a	n/a	1	50	3
865.1964	1	21	n/a	n/a	1	50	0
866.3796	1	10	n/a	n/a	1	50	1
867.6796	1	10	n/a	n/a	1	50	2
868.8128	1	10	n/a	n/a	1	50	3
869.9128	1	10	n/a	n/a	1	50	4
871.046	1	10	n/a	n/a	1	50	5
872.3626	1	10	n/a	n/a	1	50	6
873.327	1	81	n/a	n/a	1	0	0
873.527	1	81	n/a	n/a	1	0	0
873.727	1	81	n/a	n/a	1	0	0
873.927	1	81	n/a	n/a	1	0	0
874.127	1	81	n/a	n/a	1	0	0
874.327	1	81	n/a	n/a	1	0	0
874.527	1	81	n/a	n/a	1	0	0
874.727	1	81	n/a	n/a	1	0	0
874.927	1	81	n/a	n/a	1	0	0
875.127	1	81	n/a	n/a	1	0	0
876.329	1	10	n/a	n/a	1	50	1
877.4456	1	10	n/a	n/a	1	50	2
878.5622	1	10	n/a	n/a	1	50	3
879.6788	1	21	n/a	n/a	1	50	0
880.9288	1	10	n/a	n/a	1	50	1
882.2454	1	10	n/a	n/a	1	50	2
883.512	1	10	n/a	n/a	1	50	3
884.6286	1	10	n/a	n/a	1	50	4
885.7952	1	10	n/a	n/a	1	50	5
886.9618	1	21	n/a	n/a	1	50	0
888.0284	1	10	n/a	n/a	1	50	1
889.145	1	10	n/a	n/a	1	50	2
890.3116	1	10	n/a	n/a	1	50	3
891.5948	1	10	n/a	n/a	1	50	4
892.7614	1	10	n/a	n/a	1	50	5
893.928	1	21	n/a	n/a	1	50	0
895.1612	1	10	n/a	n/a	1	50	1
896.3946	1	21	n/a	n/a	1	50	0
897.6444	1	10	n/a	n/a	1	50	1
898.7944	1	10	n/a	n/a	1	50	2
899.8358	1	81	n/a	n/a	1	0	0
900.0358	1	81	n/a	n/a	1	0	0
900.2358	1	81	n/a	n/a	1	0	0
900.4358	1	81	n/a	n/a	1	0	0
900.6358	1	81	n/a	n/a	1	0	0
900.8358	1	81	n/a	n/a	1	0	0
901.0358	1	81	n/a	n/a	1	0	0
901.2358	1	81	n/a	n/a	1	0	0
901.4358	1	81	n/a	n/a	1	0	0
901.6358	1	81	n/a	n/a	1	0	0
902.9608	1	10	n/a	n/a	1	50	1
904.0108	1	10	n/a	n/a	1	50	2
905.1274	1	10	n/a	n/a	1	50	3
906.3274	1	10	n/a	n/a	1	50	4
907.5938	1	10	n/a	n/a	1	50	5
908.8604	1	21	n/a	n/a	1	50	0
909.8938	1	10	n/a	n/a	1	50	1
911.0104	1	10	n/a	n/a	1	50	2
912.177	1	10	n/a	n/a	1	50	3
913.3936	1	10	n/a	n/a	1	50	4
914.6434	1	10	n/a	n/a	1	50	5
915.8268	1	10	n/a	n/a	1	50	6
916.9766	1	10	n/a	n/a	1	50	7
918.1266	1	21	n/a	n/a	1	50	0
919.3432	1	10	n/a	n/a	1	50	1
920.4764	1	10	n/a	n/a	1	50	2
921.6264	1	10	n/a	n/a	1	50	3
922.743	1	10	n/a	n/a	1	50	4
923.943	1	10	n/a	n/a	1	50	5
925.1428	1	21	n/a	n/a	1	50	0
926.0736	1	81	n/a	n/a	1	0	0
926.2736	1	81	n/a	n/a	1	0	0
926.4736	1	81	n/a	n/a	1	0	0
926.6736	1	81	n/a	n/a	1	0	0
926.8736	1	81	n/a	n/a	1	0	0
927.0736	1	81	n/a	n/a	1	0	0
927.2736	1	81	n/a	n/a	1	0	0
927.4736	1	81	n/a	n/a	1	0	0
927.6736	1	81	n/a	n/a	1	0	0
927.8736	1	81	n/a	n/a	1	0	0
929.1926	1	10	n/a	n/a	1	50	1
930.3258	1	10	n/a	n/a	1	50	2
931.4592	1	10	n/a	n/a	1	50	3
932.5924	1	21	n/a	n/a	1	50	0
933.809	1	10	n/a	n/a	1	50	1
935.0256	1	10	n/a	n/a	1	50	2
936.2422	1	10	n/a	n/a	1	50	3
937.4254	1	10	n/a	n/a	1	50	4
938.4588	1	10	n/a	n/a	1	50	5
939.492	1	21	n/a	n/a	1	50	0
940.6086	1	10	n/a	n/a	1	50	1
941.8418	1	10	n/a	n/a	1	50	2
942.9918	1	10	n/a	n/a	1	50	3
944.075	1	10	n/a	n/a	1	50	4
945.1084	1	10	n/a	n/a	1	50	5
946.1416	1	21	n/a	n/a	1	50	0
947.2416	1	10	n/a	n/a	1	50	1
948.4414	1	10	n/a	n/a	1	50	2
949.758	1	10	n/a	n/a	1	50	3
951.0746	1	21	n/a	n/a	1	50	0
951.9414	1	81	n/a	n/a	1	0	0
952.1414	1	81	n/a	n/a	1	0	0
952.3414	1	81	n/a	n/a	1	0	0
952.5414	1	81	n/a	n/a	1	0	0
952.7414	1	81	n/a	n/a	1	0	0
952.9414	1	81	n/a	n/a	1	0	0
953.1414	1	81	n/a	n/a	1	0	0
953.3414	1	81	n/a	n/a	1	0	0
953.5414	1	81	n/a	n/a	1	0	0
953.7414	1	81	n/a	n/a	1	0	0
954.9244	1	10	n/a	n/a	1	50	1
956.0578	1	10	n/a	n/a	1	50	2
957.191	1	10	n/a	n/a	1	50	3
958.4576	1	10	n/a	n/a	1	50	4
959.7242	1	10	n/a	n/a	1	50	5
960.8074	1	10	n/a	n/a	1	50	6
962.0906	1	10	n/a	n/a	1	50	7
963.374	1	21	n/a	n/a	1	50	0
964.6406	1	10	n/a	n/a	1	50	1
965.8738	1	10	n/a	n/a	1	50	2
967.1404	1	10	n/a	n/a	1	50	3
968.407	1	10	n/a	n/a	1	50	4
969.5402	1	10	n/a	n/a	1	50	5
970.6736	1	21	n/a	n/a	1	50	0
971.8068	1	10	n/a	n/a	1	50	1
973.04	1	10	n/a	n/a	1	50	2
974.2066	1	10	n/a	n/a	1	50	3
975.3732	1	21	n/a	n/a	1	50	0
976.4398	1	10	n/a	n/a	1	50	1
977.5064	1	21	n/a	n/a	1	50	0
1007.212	1	81	n/a	n/a	1	0	0
1007.412	1	81	n/a	n/a	1	0	0
1007.612	1	81	n/a	n/a	1	0	0
1007.812	1	81	n/a	n/a	1	0	0
1008.012	1	81	n/a	n/a	1	0	0
1008.212	1	81	n/a	n/a	1	0	0
1008.412	1	81	n/a	n/a	1	0	0
1008.612	1	81	n/a	n/a	1	0	0
1008.812	1	81	n/a	n/a	1	0	0
1009.012	1	81	n/a	n/a	1	0	0
1010.3878	1	10	n/a	n/a	1	51	1
1011.5378	1	10	n/a	n/a	1	51	2
1012.721	1	10	n/a	n/a	1	51	3
1013.9042	1	21	n/a	n/a	1	51	0
1015.0542	1	10	n/a	n/a	1	51	1
1016.2042	1	21	n/a	n/a	1	51	0
1017.5208	1	10	n/a	n/a	1	51	1
1018.6706	1	10	n/a	n/a	1	51	2
1019.854	1	10	n/a	n/a	1	51	3
1021.1206	1	10	n/a	n/a	1	51	4
1022.3704	1	10	n/a	n/a	1	51	5
1023.6204	1	21	n/a	n/a	1	51	0
1024.737	1	10	n/a	n/a	1	51	1
1025.9204	1	10	n/a	n/a	1	51	2
1027.2036	1	10	n/a	n/a	1	51	3
1028.2868	1	10	n/a	n/a	1	51	4
1029.4034	1	10	n/a	n/a	1	51	5
1030.72	1	10	n/a	n/a	1	51	6
1032.0032	1	10	n/a	n/a	1	51	7
1033.2864	1	21	n/a	n/a	1	51	0
1034.0122	1	81	n/a	n/a	1	0	0
1034.2122	1	81	n/a	n/a	1	0	0
1034.4122	1	81	n/a	n/a	1	0	0
1034.6122	1	81	n/a	n/a	1	0	0
1034.8122	1	81	n/a	n/a	1	0	0
1035.0122	1	81	n/a	n/a	1	0	0
1035.2122	1	81	n/a	n/a	1	0	0
1035.4122	1	81	n/a	n/a	1	0	0
1035.6122	1	81	n/a	n/a	1	0	0
1035.8122	1	81	n/a	n/a	1	0	0
1037.1696	1	10	n/a	n/a	1	51	1
1038.2028	1	10	n/a	n/a	1	51	2
1039.3528	1	10	n/a	n/a	1	51	3
1040.486	1	10	n/a	n/a	1	51	4
1041.7194	1	10	n/a	n/a	1	51	5
1043.036	1	10	n/a	n/a	1	51	6
1044.2692	1	10	n/a	n/a	1	51	7
1045.5024	1	21	n/a	n/a	1	51	0
1046.6856	1	10	n/a	n/a	1	51	1
1047.869	1	21	n/a	n/a	1	51	0
1048.9688	1	10	n/a	n/a	1	51	1
1050.0022	1	10	n/a	n/a	1	51	2
1051.1688	1	10	n/a	n/a	1	51	3
1052.3354	1	21	n/a	n/a	1	51	0
1053.6186	1	10	n/a	n/a	1	51	1
1054.8018	1	10	n/a	n/a	1	51	2
1055.9184	1	10	n/a	n/a	1	51	3
1057.035	1	21	n/a	n/a	1	51	0
1058.1684	1	10	n/a	n/a	1	51	1
1059.335	1	10	n/a	n/a	1	51	2
1060.1394	1	81	n/a	n/a	1	0	0
1060.3394	1	81	n/a	n/a	1	0	0
1060.5394	1	81	n/a	n/a	1	0	0
1060.7394	1	81	n/a	n/a	1	0	0
1060.9394	1	81	n/a	n/a	1	0	0
1061.1394	1	81	n/a	n/a	1	0	0
1061.3394	1	81	n/a	n/a	1	0	0
1061.5394	1	81	n/a	n/a	1	0	0
1061.7394	1	81	n/a	n/a	1	0	0
1061.9394	1	81	n/a	n/a	1	0	0
1063.2348	1	10	n/a	n/a	1	51	1
1064.318	1	10	n/a	n/a	1	51	2
1065.518	1	10	n/a	n/a	1	51	3
1066.5512	1	10	n/a	n/a	1	51	4
1067.7178	1	10	n/a	n/a	1	51	5
1068.8844	1	21	n/a	n/a	1	51	0
1070.0176	1	10	n/a	n/a	1	51	1
1071.1176	1	10	n/a	n/a	1	51	2
1072.2676	1	10	n/a	n/a	1	51	3
1073.4174	1	21	n/a	n/a	1	51	0
1074.7008	1	10	n/a	n/a	1	51	1
1075.8006	1	10	n/a	n/a	1	51	2
1076.9672	1	10	n/a	n/a	1	51	3
1078.0172	1	10	n/a	n/a	1	51	4
1079.2004	1	10	n/a	n/a	1	51	5
1080.3838	1	21	n/a	n/a	1	51	0
1081.4836	1	10	n/a	n/a	1	51	1
1082.6502	1	10	n/a	n/a	1	51	2
1083.9002	1	10	n/a	n/a	1	51	3
1084.9834	1	10	n/a	n/a	1	51	4
1085.9248	1	81	n/a	n/a	1	0	0
1086.1248	1	81	n/a	n/a	1	0	0
1086.3248	1	81	n/a	n/a	1	0	0
1086.5248	1	81	n/a	n/a	1	0	0
1086.7248	1	81	n/a	n/a	1	0	0
1086.9248	1	81	n/a	n/a	1	0	0
1087.1248	1	81	n/a	n/a	1	0	0
1087.3248	1	81	n/a	n/a	1	0	0
1087.5248	1	81	n/a	n/a	1	0	0
1087.7248	1	81	n/a	n/a	1	0	0
1088.9832	1	10	n/a	n/a	1	51	1
1090.1498	1	21	n/a	n/a	1	51	0
1091.3664	1	10	n/a	n/a	1	51	1
1092.533	1	10	n/a	n/a	1	51	2
1093.733	1	10	n/a	n/a	1	51	3
1094.8496	1	10	n/a	n/a	1	51	4
1095.9162	1	10	n/a	n/a	1	51	5
1097.216	1	10	n/a	n/a	1	51	6
1098.4494	1	10	n/a	n/a	1	51	7
1099.6826	1	21	n/a	n/a	1	51	0
1100.8324	1	10	n/a	n/a	1	51	1
1101.9492	1	10	n/a	n/a	1	51	2
1103.1324	1	10	n/a	n/a	1	51	3
1104.299	1	10	n/a	n/a	1	51	4
1105.3322	1	10	n/a	n/a	1	51	5
1106.4988	1	10	n/a	n/a	1	51	6
1107.7988	1	10	n/a	n/a	1	51	7
1109.0986	1	21	n/a	n/a	1	51	0
1110.232	1	10	n/a	n/a	1	51	1
1111.5318	1	10	n/a	n/a	1	51	2
1112.4862	1	81	n/a	n/a	1	0	0
1112.6862	1	81	n/a	n/a	1	0	0
1112.8862	1	81	n/a	n/a	1	0	0
1113.0862	1	81	n/a	n/a	1	0	0
1113.2862	1	81	n/a	n/a	1	0	0
1113.4862	1	81	n/a	n/a	1	0	0
1113.6862	1	81	n/a	n/a	1	0	0
1113.8862	1	81	n/a	n/a	1	0	0
1114.0862	1	81	n/a	n/a	1	0	0
1114.2862	1	81	n/a	n/a	1	0	0
1115.4816	1	10	n/a	n/a	1	51	1
1116.5482	1	10	n/a	n/a	1	51	2
1117.7148	1	10	n/a	n/a	1	51	3
1118.7814	1	10	n/a	n/a	1	51	4
1119.9814	1	10	n/a	n/a	1	51	5
1121.148	1	10	n/a	n/a	1	51	6
1122.1812	1	10	n/a	n/a	1	51	7
1123.2146	1	21	n/a	n/a	1	51	0
1124.2978	1	10	n/a	n/a	1	51	1
1125.5644	1	10	n/a	n/a	1	51	2
1126.831	1	10	n/a	n/a	1	51	3
1128.0976	1	21	n/a	n/a	1	51	0
1129.1808	1	10	n/a	n/a	1	51	1
1130.2308	1	10	n/a	n/a	1	51	2
1131.4474	1	10	n/a	n/a	1	51	3
1132.614	1	10	n/a	n/a	1	51	4
1133.7306	1	10	n/a	n/a	1	51	5
1134.8472	1	21	n/a	n/a	1	51	0
1135.9304	1	10	n/a	n/a	1	51	1
1136.997	1	10	n/a	n/a	1	51	2
1233.1868	1	82	n/a	n/a	1	0	0
1233.2448	1	82	n/a	n/a	1	0	0
1233.3808	1	82	n/a	n/a	1	0	0
1233.5628	1	82	n/a	n/a	1	0	0
1233.8848	1	82	n/a	n/a	1	0	0
1234.1868	1	82	n/a	n/a	1	0	0
1234.4268	1	82	n/a	n/a	1	0	0
1234.7108	1	82	n/a	n/a	1	0	0
1234.8168	1	82	n/a	n/a	1	0	0
1234.8938	1	82	n/a	n/a	1	0	0
1236.2244	1	10	n/a	n/a	1	52	1
1237.391	1	21	n/a	n/a	1	52	0
1238.591	1	10	n/a	n/a	1	52	1
1239.791	1	21	n/a	n/a	1	52	0
1240.9408	1	10	n/a	n/a	1	52	1
1242.1908	1	10	n/a	n/a	1	52	2
1243.2408	1	10	n/a	n/a	1	52	3
1244.2906	1	21	n/a	n/a	1	52	0
1245.424	1	10	n/a	n/a	1	52	1
1246.6406	1	10	n/a	n/a	1	52	2
1247.8572	1	10	n/a	n/a	1	52	3
1249.1238	1	10	n/a	n/a	1	52	4
1250.207	1	10	n/a	n/a	1	52	5
1251.5236	1	10	n/a	n/a	1	52	6
1252.6568	1	10	n/a	n/a	1	52	7
1253.7902	1	21	n/a	n/a	1	52	0
1254.8234	1	10	n/a	n/a	1	52	1
1255.8566	1	21	n/a	n/a	1	52	0
1257.14	1	10	n/a	n/a	1	52	1
1258.4232	1	21	n/a	n/a	1	52	0
1259.2908	1	82	n/a	n/a	1	0	0
1259.4128	1	82	n/a	n/a	1	0	0
1259.5808	1	82	n/a	n/a	1	0	0
1259.7248	1	82	n/a	n/a	1	0	0
1259.7468	1	82	n/a	n/a	1	0	0
1260.291	1	82	n/a	n/a	1	0	0
1260.3478	1	82	n/a	n/a	1	0	0
1260.6738	1	82	n/a	n/a	1	0	0
1260.8588	1	82	n/a	n/a	1	0	0
1260.9758	1	82	n/a	n/a	1	0	0
1262.473	1	10	n/a	n/a	1	52	1
1263.6062	1	10	n/a	n/a	1	52	2
1264.7062	1	10	n/a	n/a	1	52	3
1265.7728	1	10	n/a	n/a	1	52	4
1267.0894	1	10	n/a	n/a	1	52	5
1268.406	1	21	n/a	n/a	1	52	0
1269.6226	1	10	n/a	n/a	1	52	1
1270.7724	1	10	n/a	n/a	1	52	2
1271.9558	1	10	n/a	n/a	1	52	3
1273.139	1	21	n/a	n/a	1	52	0
1274.189	1	10	n/a	n/a	1	52	1
1275.2722	1	10	n/a	n/a	1	52	2
1276.5722	1	10	n/a	n/a	1	52	3
1277.7554	1	10	n/a	n/a	1	52	4
1278.822	1	10	n/a	n/a	1	52	5
1279.9052	1	10	n/a	n/a	1	52	6
1281.0718	1	10	n/a	n/a	1	52	7
1282.2384	1	21	n/a	n/a	1	52	0
1283.455	1	10	n/a	n/a	1	52	1
1284.7216	1	10	n/a	n/a	1	52	2
1285.8052	1	82	n/a	n/a	1	0	0
1286.1592	1	82	n/a	n/a	1	0	0
1286.1862	1	82	n/a	n/a	1	0	0
1286.2762	1	82	n/a	n/a	1	0	0
1286.6872	1	82	n/a	n/a	1	0	0
1286.8052	1	82	n/a	n/a	1	0	0
1286.9212	1	82	n/a	n/a	1	0	0
1287.1632	1	82	n/a	n/a	1	0	0
1287.3082	1	82	n/a	n/a	1	0	0
1287.6102	1	82	n/a	n/a	1	0	0
1288.8214	1	10	n/a	n/a	1	52	1
1289.8714	1	10	n/a	n/a	1	52	2
1291.1212	1	10	n/a	n/a	1	52	3
1292.3712	1	21	n/a	n/a	1	52	0
1293.6544	1	10	n/a	n/a	1	52	1
1294.8378	1	10	n/a	n/a	1	52	2
1296.1042	1	10	n/a	n/a	1	52	3
1297.1376	1	10	n/a	n/a	1	52	4
1298.1876	1	10	n/a	n/a	1	52	5
1299.3874	1	10	n/a	n/a	1	52	6
1300.5208	1	10	n/a	n/a	1	52	7
1301.654	1	21	n/a	n/a	1	52	0
1302.9706	1	10	n/a	n/a	1	52	1
1304.2872	1	10	n/a	n/a	1	52	2
1305.6038	1	10	n/a	n/a	1	52	3
1306.787	1	10	n/a	n/a	1	52	4
1308.087	1	10	n/a	n/a	1	52	5
1309.3868	1	21	n/a	n/a	1	52	0
1310.5368	1	10	n/a	n/a	1	52	1
1311.6034	1	10	n/a	n/a	1	52	2
1312.5958	1	82	n/a	n/a	1	0	0
1312.9528	1	82	n/a	n/a	1	0	0
1313.0008	1	82	n/a	n/a	1	0	0
1313.1398	1	82	n/a	n/a	1	0	0
1313.4448	1	82	n/a	n/a	1	0	0
1313.5958	1	82	n/a	n/a	1	0	0
1313.6748	1	82	n/a	n/a	1	0	0
1314.0408	1	82	n/a	n/a	1	0	0
1314.2278	1	82	n/a	n/a	1	0	0
1314.5158	1	82	n/a	n/a	1	0	0
1315.7532	1	10	n/a	n/a	1	52	1
1316.7864	1	10	n/a	n/a	1	52	2
1318.0864	1	10	n/a	n/a	1	52	3
1319.1362	1	10	n/a	n/a	1	52	4
1320.3362	1	10	n/a	n/a	1	52	5
1321.5362	1	21	n/a	n/a	1	52	0
1322.686	1	10	n/a	n/a	1	52	1
1323.9526	1	10	n/a	n/a	1	52	2
1325.236	1	10	n/a	n/a	1	52	3
1326.4858	1	10	n/a	n/a	1	52	4
1327.6358	1	10	n/a	n/a	1	52	5
1328.919	1	10	n/a	n/a	1	52	6
1330.119	1	10	n/a	n/a	1	52	7
1331.3188	1	21	n/a	n/a	1	52	0
1332.5688	1	10	n/a	n/a	1	52	1
1333.802	1	10	n/a	n/a	1	52	2
1335.0354	1	10	n/a	n/a	1	52	3
1336.0852	1	10	n/a	n/a	1	52	4
1337.3518	1	10	n/a	n/a	1	52	5
1338.4518	1	10	n/a	n/a	1	52	6
1339.4552	1	82	n/a	n/a	1	0	0
1339.6832	1	82	n/a	n/a	1	0	0
1340.0962	1	82	n/a	n/a	1	0	0
1340.2862	1	82	n/a	n/a	1	0	0
1340.3702	1	82	n/a	n/a	1	0	0
1340.4552	1	82	n/a	n/a	1	0	0
1340.5932	1	82	n/a	n/a	1	0	0
1340.8362	1	82	n/a	n/a	1	0	0
1341.0292	1	82	n/a	n/a	1	0	0
1341.1092	1	82	n/a	n/a	1	0	0
1342.5516	1	10	n/a	n/a	1	52	1
1343.6348	1	10	n/a	n/a	1	52	2
1344.7348	1	10	n/a	n/a	1	52	3
1345.8346	1	21	n/a	n/a	1	52	0
1347.118	1	10	n/a	n/a	1	52	1
1348.2012	1	10	n/a	n/a	1	52	2
1349.5012	1	10	n/a	n/a	1	52	3
1350.801	1	21	n/a	n/a	1	52	0
1351.851	1	10	n/a	n/a	1	52	1
1352.901	1	21	n/a	n/a	1	52	0
1354.0508	1	10	n/a	n/a	1	52	1
1355.2008	1	10	n/a	n/a	1	52	2
1356.3508	1	10	n/a	n/a	1	52	3
1357.434	1	10	n/a	n/a	1	52	4
1358.684	1	10	n/a	n/a	1	52	5
1359.9338	1	21	n/a	n/a	1	52	0
1362.467	1	21	n/a	n/a	1	52	0
1363.717	1	10	n/a	n/a	1	52	1
1364.9668	1	21	n/a	n/a	1	52	0
1377.0842	1	82	n/a	n/a	1	0	0
1377.4832	1	82	n/a	n/a	1	0	0
1377.6512	1	82	n/a	n/a	1	0	0
1377.9072	1	82	n/a	n/a	1	0	0
1378.0332	1	82	n/a	n/a	1	0	0
1378.0842	1	82	n/a	n/a	1	0	0
1378.1652	1	82	n/a	n/a	1	0	0
1378.3162	1	82	n/a	n/a	1	0	0
1378.6712	1	82	n/a	n/a	1	0	0
1378.9632	1	82	n/a	n/a	1	0	0
1380.0994	1	10	n/a	n/a	1	50	1
1381.1326	1	10	n/a	n/a	1	50	2
1382.1992	1	10	n/a	n/a	1	50	3
1383.2658	1	10	n/a	n/a	1	50	4
1384.5824	1	10	n/a	n/a	1	50	5
1385.899	1	21	n/a	n/a	1	50	0
1386.9322	1	10	n/a	n/a	1	50	1
1388.1488	1	10	n/a	n/a	1	50	2
1389.4654	1	10	n/a	n/a	1	50	3
1390.632	1	10	n/a	n/a	1	50	4
1391.8654	1	10	n/a	n/a	1	50	5
1393.0986	1	21	n/a	n/a	1	50	0
1394.2318	1	10	n/a	n/a	1	50	1
1395.5318	1	10	n/a	n/a	1	50	2
1396.6316	1	10	n/a	n/a	1	50	3
1397.665	1	10	n/a	n/a	1	50	4
1398.7316	1	10	n/a	n/a	1	50	5
1400.0148	1	10	n/a	n/a	1	50	6
1401.148	1	10	n/a	n/a	1	50	7
1402.2814	1	21	n/a	n/a	1	50	0
1403.278	1	82	n/a	n/a	1	0	0
1403.594	1	82	n/a	n/a	1	0	0
1403.834	1	82	n/a	n/a	1	0	0
1404.121	1	82	n/a	n/a	1	0	0
1404.151	1	82	n/a	n/a	1	0	0
1404.278	1	82	n/a	n/a	1	0	0
1404.523	1	82	n/a	n/a	1	0	0
1404.697	1	82	n/a	n/a	1	0	0
1405.086	1	82	n/a	n/a	1	0	0
1405.127	1	82	n/a	n/a	1	0	0
1406.3144	1	10	n/a	n/a	1	50	1
1407.4644	1	21	n/a	n/a	1	50	0
1408.7476	1	10	n/a	n/a	1	50	1
1410.031	1	10	n/a	n/a	1	50	2
1411.0808	1	10	n/a	n/a	1	50	3
1412.2642	1	10	n/a	n/a	1	50	4
1413.3974	1	10	n/a	n/a	1	50	5
1414.4474	1	10	n/a	n/a	1	50	6
1415.7638	1	10	n/a	n/a	1	50	7
1417.0804	1	21	n/a	n/a	1	50	0
1418.2638	1	10	n/a	n/a	1	50	1
1419.5136	1	10	n/a	n/a	1	50	2
1420.597	1	10	n/a	n/a	1	50	3
1421.6802	1	10	n/a	n/a	1	50	4
1422.9634	1	10	n/a	n/a	1	50	5
1424.2468	1	21	n/a	n/a	1	50	0
1425.3466	1	10	n/a	n/a	1	50	1
1426.5132	1	10	n/a	n/a	1	50	2
1427.7632	1	10	n/a	n/a	1	50	3
1428.8798	1	10	n/a	n/a	1	50	4
1429.7554	1	82	n/a	n/a	1	0	0
1429.9854	1	82	n/a	n/a	1	0	0
1430.0384	1	82	n/a	n/a	1	0	0
1430.4654	1	82	n/a	n/a	1	0	0
1430.5754	1	82	n/a	n/a	1	0	0
1430.7554	1	82	n/a	n/a	1	0	0
1430.8294	1	82	n/a	n/a	1	0	0
1431.1934	1	82	n/a	n/a	1	0	0
1431.4204	1	82	n/a	n/a	1	0	0
1431.5274	1	82	n/a	n/a	1	0	0
1432.8796	1	10	n/a	n/a	1	50	1
1434.1128	1	21	n/a	n/a	1	50	0
1435.1628	1	10	n/a	n/a	1	50	1
1436.2794	1	10	n/a	n/a	1	50	2
1437.3626	1	10	n/a	n/a	1	50	3
1438.5958	1	10	n/a	n/a	1	50	4
1439.7124	1	10	n/a	n/a	1	50	5
1440.829	1	21	n/a	n/a	1	50	0
1441.9956	1	10	n/a	n/a	1	50	1
1443.1622	1	10	n/a	n/a	1	50	2
1444.1956	1	10	n/a	n/a	1	50	3
1445.2954	1	10	n/a	n/a	1	50	4
1446.3788	1	10	n/a	n/a	1	50	5
1447.6954	1	10	n/a	n/a	1	50	6
1448.7452	1	10	n/a	n/a	1	50	7
1449.7952	1	21	n/a	n/a	1	50	0
1450.8784	1	10	n/a	n/a	1	50	1
1452.195	1	10	n/a	n/a	1	50	2
1453.2616	1	10	n/a	n/a	1	50	3
1454.3782	1	10	n/a	n/a	1	50	4
1455.2056	1	82	n/a	n/a	1	0	0
1455.3766	1	82	n/a	n/a	1	0	0
1455.5266	1	82	n/a	n/a	1	0	0
1455.7536	1	82	n/a	n/a	1	0	0
1455.8096	1	82	n/a	n/a	1	0	0
1456.2056	1	82	n/a	n/a	1	0	0
1456.4496	1	82	n/a	n/a	1	0	0
1456.5486	1	82	n/a	n/a	1	0	0
1456.9586	1	82	n/a	n/a	1	0	0
1457.1216	1	82	n/a	n/a	1	0	0
1458.1948	1	10	n/a	n/a	1	50	1
1459.2946	1	21	n/a	n/a	1	50	0
1460.3946	1	10	n/a	n/a	1	50	1
1461.4946	1	21	n/a	n/a	1	50	0
1462.7444	1	10	n/a	n/a	1	50	1
1463.8278	1	10	n/a	n/a	1	50	2
1465.1444	1	10	n/a	n/a	1	50	3
1466.461	1	21	n/a	n/a	1	50	0
1467.7108	1	10	n/a	n/a	1	50	1
1468.9608	1	21	n/a	n/a	1	50	0
1470.0274	1	10	n/a	n/a	1	50	1
1471.094	1	21	n/a	n/a	1	50	0
1472.1606	1	10	n/a	n/a	1	50	1
1473.2772	1	10	n/a	n/a	1	50	2
1474.4438	1	10	n/a	n/a	1	50	3
1475.4936	1	10	n/a	n/a	1	50	4
1476.777	1	10	n/a	n/a	1	50	5
1477.9436	1	10	n/a	n/a	1	50	6
1478.9934	1	10	n/a	n/a	1	50	7
1480.0434	1	21	n/a	n/a	1	50	0
1480.8552	1	82	n/a	n/a	1	0	0
1481.1572	1	82	n/a	n/a	1	0	0
1481.2452	1	82	n/a	n/a	1	0	0
1481.3862	1	82	n/a	n/a	1	0	0
1481.6112	1	82	n/a	n/a	1	0	0
1481.8552	1	82	n/a	n/a	1	0	0
1481.9412	1	82	n/a	n/a	1	0	0
1482.1892	1	82	n/a	n/a	1	0	0
1482.2482	1	82	n/a	n/a	1	0	0
1482.4272	1	82	n/a	n/a	1	0	0
1483.9932	1	10	n/a	n/a	1	50	1
1485.2932	1	10	n/a	n/a	1	50	2
1486.343	1	10	n/a	n/a	1	50	3
1487.393	1	21	n/a	n/a	1	50	0
1488.7096	1	10	n/a	n/a	1	50	1
1490.0096	1	10	n/a	n/a	1	50	2
1491.0594	1	10	n/a	n/a	1	50	3
1492.1094	1	21	n/a	n/a	1	50	0
1493.3094	1	10	n/a	n/a	1	50	1
1494.476	1	10	n/a	n/a	1	50	2
1495.6592	1	10	n/a	n/a	1	50	3
1496.8758	1	10	n/a	n/a	1	50	4
1498.1256	1	10	n/a	n/a	1	50	5
1499.3756	1	21	n/a	n/a	1	50	0
1500.4088	1	10	n/a	n/a	1	50	1
1501.5754	1	10	n/a	n/a	1	50	2
1502.7088	1	10	n/a	n/a	1	50	3
1503.992	1	10	n/a	n/a	1	50	4
1505.1252	1	10	n/a	n/a	1	50	5
1506.2586	1	21	n/a	n/a	1	50	0
1533.126	1	81	n/a	n/a	1	0	0
1533.326	1	81	n/a	n/a	1	0	0
1533.526	1	81	n/a	n/a	1	0	0
1533.726	1	81	n/a	n/a	1	0	0
1533.926	1	81	n/a	n/a	1	0	0
1534.126	1	81	n/a	n/a	1	0	0
1534.326	1	81	n/a	n/a	1	0	0
1534.526	1	81	n/a	n/a	1	0	0
1534.726	1	81	n/a	n/a	1	0	0
1534.926	1	81	n/a	n/a	1	0	0
1536.2568	1	10	n/a	n/a	1	51	1
1537.3068	1	10	n/a	n/a	1	51	2
1538.5234	1	10	n/a	n/a	1	51	3
1539.7232	1	10	n/a	n/a	1	51	4
1540.8898	1	10	n/a	n/a	1	51	5
1542.0564	1	21	n/a	n/a	1	51	0
1543.1064	1	10	n/a	n/a	1	51	1
1544.273	1	10	n/a	n/a	1	51	2
1545.3396	1	10	n/a	n/a	1	51	3
1546.4062	1	21	n/a	n/a	1	51	0
1547.5062	1	10	n/a	n/a	1	51	1
1548.606	1	10	n/a	n/a	1	51	2
1549.9226	1	10	n/a	n/a	1	51	3
1551.2392	1	21	n/a	n/a	1	51	0
1552.5558	1	10	n/a	n/a	1	51	1
1553.639	1	10	n/a	n/a	1	51	2
1554.9556	1	10	n/a	n/a	1	51	3
1556.0222	1	10	n/a	n/a	1	51	4
1557.1222	1	10	n/a	n/a	1	51	5
1558.2222	1	21	n/a	n/a	1	51	0
1558.9438	1	81	n/a	n/a	1	0	0
1559.1438	1	81	n/a	n/a	1	0	0
1559.3438	1	81	n/a	n/a	1	0	0
1559.5438	1	81	n/a	n/a	1	0	0
1559.7438	1	81	n/a	n/a	1	0	0
1559.9438	1	81	n/a	n/a	1	0	0
1560.1438	1	81	n/a	n/a	1	0	0
1560.3438	1	81	n/a	n/a	1	0	0
1560.5438	1	81	n/a	n/a	1	0	0
1560.7438	1	81	n/a	n/a	1	0	0
1562.122	1	10	n/a	n/a	1	51	1
1563.4052	1	21	n/a	n/a	1	51	0
1564.5218	1	10	n/a	n/a	1	51	1
1565.705	1	10	n/a	n/a	1	51	2
1566.755	1	10	n/a	n/a	1	51	3
1567.805	1	10	n/a	n/a	1	51	4
1568.9882	1	10	n/a	n/a	1	51	5
1570.1048	1	10	n/a	n/a	1	51	6
1571.438	1	10	n/a	n/a	1	51	7
1572.7712	1	21	n/a	n/a	1	51	0
1573.9878	1	10	n/a	n/a	1	51	1
1575.2712	1	10	n/a	n/a	1	51	2
1576.3544	1	10	n/a	n/a	1	51	3
1577.4376	1	21	n/a	n/a	1	51	0
1578.6376	1	10	n/a	n/a	1	51	1
1579.8376	1	21	n/a	n/a	1	51	0
1581.1208	1	10	n/a	n/a	1	51	1
1582.3374	1	10	n/a	n/a	1	51	2
1583.4374	1	10	n/a	n/a	1	51	3
1584.5372	1	21	n/a	n/a	1	51	0
1585.396	1	81	n/a	n/a	1	0	0
1585.596	1	81	n/a	n/a	1	0	0
1585.796	1	81	n/a	n/a	1	0	0
1585.996	1	81	n/a	n/a	1	0	0
1586.196	1	81	n/a	n/a	1	0	0
1586.396	1	81	n/a	n/a	1	0	0
1586.596	1	81	n/a	n/a	1	0	0
1586.796	1	81	n/a	n/a	1	0	0
1586.996	1	81	n/a	n/a	1	0	0
1587.196	1	81	n/a	n/a	1	0	0
1588.537	1	10	n/a	n/a	1	51	1
1589.6202	1	10	n/a	n/a	1	51	2
1590.6702	1	10	n/a	n/a	1	51	3
1591.9868	1	10	n/a	n/a	1	51	4
1593.1368	1	10	n/a	n/a	1	51	5
1594.27	1	10	n/a	n/a	1	51	6
1595.57	1	10	n/a	n/a	1	51	7
1596.8698	1	21	n/a	n/a	1	51	0
1597.9532	1	10	n/a	n/a	1	51	1
1599.2698	1	10	n/a	n/a	1	51	2
1600.5696	1	10	n/a	n/a	1	51	3
1601.8696	1	21	n/a	n/a	1	51	0
1603.0028	1	10	n/a	n/a	1	51	1
1604.1528	1	10	n/a	n/a	1	51	2
1605.2194	1	10	n/a	n/a	1	51	3
1606.386	1	10	n/a	n/a	1	51	4
1607.5192	1	10	n/a	n/a	1	51	5
1608.6526	1	21	n/a	n/a	1	51	0
1609.919	1	10	n/a	n/a	1	51	1
1610.9856	1	10	n/a	n/a	1	51	2
1612.0712	1	81	n/a	n/a	1	0	0
1612.2712	1	81	n/a	n/a	1	0	0
1612.4712	1	81	n/a	n/a	1	0	0
1612.6712	1	81	n/a	n/a	1	0	0
1612.8712	1	81	n/a	n/a	1	0	0
1613.0712	1	81	n/a	n/a	1	0	0
1613.2712	1	81	n/a	n/a	1	0	0
1613.4712	1	81	n/a	n/a	1	0	0
1613.6712	1	81	n/a	n/a	1	0	0
1613.8712	1	81	n/a	n/a	1	0	0
1615.0022	1	10	n/a	n/a	1	51	1
1616.302	1	10	n/a	n/a	1	51	2
1617.3854	1	10	n/a	n/a	1	51	3
1618.4686	1	21	n/a	n/a	1	51	0
1619.5352	1	10	n/a	n/a	1	51	1
1620.6018	1	21	n/a	n/a	1	51	0
1621.9018	1	10	n/a	n/a	1	51	1
1623.2016	1	21	n/a	n/a	1	51	0
1624.4182	1	10	n/a	n/a	1	51	1
1625.7014	1	10	n/a	n/a	1	51	2
1627.0014	1	10	n/a	n/a	1	51	3
1628.0514	1	10	n/a	n/a	1	51	4
1629.368	1	10	n/a	n/a	1	51	5
1630.6512	1	10	n/a	n/a	1	51	6
1631.7678	1	10	n/a	n/a	1	51	7
1632.8844	1	21	n/a	n/a	1	51	0
1633.9176	1	10	n/a	n/a	1	51	1
1635.1342	1	10	n/a	n/a	1	51	2
1636.3008	1	10	n/a	n/a	1	51	3
1637.3508	1	10	n/a	n/a	1	51	4
1638.1082	1	81	n/a	n/a	1	0	0
1638.3082	1	81	n/a	n/a	1	0	0
1638.5082	1	81	n/a	n/a	1	0	0
1638.7082	1	81	n/a	n/a	1	0	0
1638.9082	1	81	n/a	n/a	1	0	0
1639.1082	1	81	n/a	n/a	1	0	0
1639.3082	1	81	n/a	n/a	1	0	0
1639.5082	1	81	n/a	n/a	1	0	0
1639.7082	1	81	n/a	n/a	1	0	0
1639.9082	1	81	n/a	n/a	1	0	0
1641.3172	1	10	n/a	n/a	1	51	1
1642.4004	1	10	n/a	n/a	1	51	2
1643.6004	1	10	n/a	n/a	1	51	3
1644.8004	1	21	n/a	n/a	1	51	0
1646.0836	1	10	n/a	n/a	1	51	1
1647.1836	1	10	n/a	n/a	1	51	2
1648.3668	1	10	n/a	n/a	1	51	3
1649.5	1	10	n/a	n/a	1	51	4
1650.6834	1	10	n/a	n/a	1	51	5
1651.8666	1	21	n/a	n/a	1	51	0
1652.8998	1	10	n/a	n/a	1	51	1
1653.9332	1	21	n/a	n/a	1	51	0
1655.2498	1	10	n/a	n/a	1	51	1
1656.3996	1	10	n/a	n/a	1	51	2
1657.4662	1	10	n/a	n/a	1	51	3
1658.7162	1	10	n/a	n/a	1	51	4
1660.0328	1	10	n/a	n/a	1	51	5
1661.3494	1	21	n/a	n/a	1	51	0
1662.3826	1	10	n/a	n/a	1	51	1
1663.5992	1	10	n/a	n/a	1	51	2
1736.442	1	82	n/a	n/a	1	0	0
1736.603	1	82	n/a	n/a	1	0	0
1736.705	1	82	n/a	n/a	1	0	0
1736.887	1	82	n/a	n/a	1	0	0
1737.215	1	82	n/a	n/a	1	0	0
1737.442	1	82	n/a	n/a	1	0	0
1737.535	1	82	n/a	n/a	1	0	0
1737.93	1	82	n/a	n/a	1	0	0
1738.229	1	82	n/a	n/a	1	0	0
1738.351	1	82	n/a	n/a	1	0	0
1739.5448	1	10	n/a	n/a	1	52	1
1740.7614	1	10	n/a	n/a	1	52	2
1742.028	1	10	n/a	n/a	1	52	3
1743.2446	1	10	n/a	n/a	1	52	4
1744.4278	1	10	n/a	n/a	1	52	5
1745.611	1	21	n/a	n/a	1	52	0
1746.761	1	10	n/a	n/a	1	52	1
1747.911	1	21	n/a	n/a	1	52	0
1749.0442	1	10	n/a	n/a	1	52	1
1750.3608	1	10	n/a	n/a	1	52	2
1751.5774	1	10	n/a	n/a	1	52	3
1752.894	1	10	n/a	n/a	1	52	4
1753.9272	1	10	n/a	n/a	1	52	5
1754.9606	1	21	n/a	n/a	1	52	0
1756.2772	1	10	n/a	n/a	1	52	1
1757.5604	1	10	n/a	n/a	1	52	2
1758.5936	1	10	n/a	n/a	1	52	3
1759.6602	1	10	n/a	n/a	1	52	4
1760.7602	1	10	n/a	n/a	1	52	5
1761.8602	1	21	n/a	n/a	1	52	0
1762.7778	1	82	n/a	n/a	1	0	0
1763.0918	1	82	n/a	n/a	1	0	0
1763.1178	1	82	n/a	n/a	1	0	0
1763.3248	1	82	n/a	n/a	1	0	0
1763.6898	1	82	n/a	n/a	1	0	0
1763.7778	1	82	n/a	n/a	1	0	0
1764.1448	1	82	n/a	n/a	1	0	0
1764.1658	1	82	n/a	n/a	1	0	0
1764.3888	1	82	n/a	n/a	1	0	0
1764.6638	1	82	n/a	n/a	1	0	0
1765.9766	1	10	n/a	n/a	1	52	1
1767.0598	1	10	n/a	n/a	1	52	2
1768.3098	1	10	n/a	n/a	1	52	3
1769.4096	1	10	n/a	n/a	1	52	4
1770.7262	1	10	n/a	n/a	1	52	5
1772.0096	1	10	n/a	n/a	1	52	6
1773.1094	1	10	n/a	n/a	1	52	7
1774.2094	1	21	n/a	n/a	1	52	0
1775.5092	1	10	n/a	n/a	1	52	1
1776.6426	1	10	n/a	n/a	1	52	2
1777.7092	1	10	n/a	n/a	1	52	3
1778.7758	1	21	n/a	n/a	1	52	0
1780.0424	1	10	n/a	n/a	1	52	1
1781.159	1	10	n/a	n/a	1	52	2
1782.2422	1	10	n/a	n/a	1	52	3
1783.5588	1	10	n/a	n/a	1	52	4
1784.8088	1	10	n/a	n/a	1	52	5
1786.0586	1	21	n/a	n/a	1	52	0
1787.342	1	10	n/a	n/a	1	52	1
1788.3752	1	10	n/a	n/a	1	52	2
1789.4696	1	82	n/a	n/a	1	0	0
1789.6346	1	82	n/a	n/a	1	0	0
1789.7406	1	82	n/a	n/a	1	0	0
1790.0306	1	82	n/a	n/a	1	0	0
1790.0766	1	82	n/a	n/a	1	0	0
1790.4696	1	82	n/a	n/a	1	0	0
1790.5686	1	82	n/a	n/a	1	0	0
1790.7136	1	82	n/a	n/a	1	0	0
1791.1476	1	82	n/a	n/a	1	0	0
1791.2256	1	82	n/a	n/a	1	0	0
1792.575	1	10	n/a	n/a	1	52	1
1793.7248	1	10	n/a	n/a	1	52	2
1794.9748	1	10	n/a	n/a	1	52	3
1796.2248	1	21	n/a	n/a	1	52	0
1797.508	1	10	n/a	n/a	1	52	1
1798.7912	1	21	n/a	n/a	1	52	0
1799.8912	1	10	n/a	n/a	1	52	1
1801.1244	1	10	n/a	n/a	1	52	2
1802.3744	1	10	n/a	n/a	1	52	3
1803.541	1	10	n/a	n/a	1	52	4
1804.5742	1	10	n/a	n/a	1	52	5
1805.6076	1	21	n/a	n/a	1	52	0
1806.8242	1	10	n/a	n/a	1	52	1
1808.0408	1	21	n/a	n/a	1	52	0
1809.2406	1	10	n/a	n/a	1	52	1
1810.4906	1	10	n/a	n/a	1	52	2
1811.6406	1	10	n/a	n/a	1	52	3
1812.9238	1	10	n/a	n/a	1	52	4
1814.1404	1	10	n/a	n/a	1	52	5
1815.357	1	21	n/a	n/a	1	52	0
1816.1944	1	82	n/a	n/a	1	0	0
1816.3164	1	82	n/a	n/a	1	0	0
1816.6844	1	82	n/a	n/a	1	0	0
1816.8394	1	82	n/a	n/a	1	0	0
1816.8604	1	82	n/a	n/a	1	0	0
1817.1944	1	82	n/a	n/a	1	0	0
1817.5654	1	82	n/a	n/a	1	0	0
1817.6464	1	82	n/a	n/a	1	0	0
1817.8274	1	82	n/a	n/a	1	0	0
1817.8504	1	82	n/a	n/a	1	0	0
1819.1734	1	10	n/a	n/a	1	52	1
1820.44	1	10	n/a	n/a	1	52	2
1821.54	1	10	n/a	n/a	1	52	3
1822.6066	1	10	n/a	n/a	1	52	4
1823.7898	1	10	n/a	n/a	1	52	5
1825.0898	1	10	n/a	n/a	1	52	6
1826.3062	1	10	n/a	n/a	1	52	7
1827.5228	1	21	n/a	n/a	1	52	0
1828.8228	1	10	n/a	n/a	1	52	1
1830.1228	1	21	n/a	n/a	1	52	0
1831.156	1	10	n/a	n/a	1	52	1
1832.356	1	10	n/a	n/a	1	52	2
1833.6726	1	10	n/a	n/a	1	52	3
1834.9892	1	21	n/a	n/a	1	52	0
1836.2558	1	10	n/a	n/a	1	52	1
1837.439	1	10	n/a	n/a	1	52	2
1838.6556	1	10	n/a	n/a	1	52	3
1839.8722	1	21	n/a	n/a	1	52	0
1841.122	1	10	n/a	n/a	1	52	1
1842.3554	1	10	n/a	n/a	1	52	2
1843.3308	1	82	n/a	n/a	1	0	0
1843.4858	1	82	n/a	n/a	1	0	0
1843.7768	1	82	n/a	n/a	1	0	0
1843.8648	1	82	n/a	n/a	1	0	0
1844.1778	1	82	n/a	n/a	1	0	0
1844.3308	1	82	n/a	n/a	1	0	0
1844.5748	1	82	n/a	n/a	1	0	0
1844.6938	1	82	n/a	n/a	1	0	0
1844.7648	1	82	n/a	n/a	1	0	0
1845.0878	1	82	n/a	n/a	1	0	0
1846.5052	1	10	n/a	n/a	1	52	1
1847.7884	1	21	n/a	n/a	1	52	0
1848.8882	1	10	n/a	n/a	1	52	1
1849.9882	1	21	n/a	n/a	1	52	0
1851.0548	1	10	n/a	n/a	1	52	1
1852.1214	1	21	n/a	n/a	1	52	0
1853.438	1	10	n/a	n/a	1	52	1
1854.7546	1	21	n/a	n/a	1	52	0
1856.0546	1	10	n/a	n/a	1	52	1
1857.3546	1	10	n/a	n/a	1	52	2
1858.6378	1	10	n/a	n/a	1	52	3
1859.7376	1	10	n/a	n/a	1	52	4
1860.9376	1	10	n/a	n/a	1	52	5
1862.2042	1	10	n/a	n/a	1	52	6
1863.3542	1	10	n/a	n/a	1	52	7
1864.504	1	21	n/a	n/a	1	52	0
1865.7872	1	10	n/a	n/a	1	52	1
1866.9538	1	10	n/a	n/a	1	52	2
1868.0038	1	10	n/a	n/a	1	52	3
1869.0538	1	10	n/a	n/a	1	52	4
1878.9268	1	81	n/a	n/a	1	0	0
1879.1268	1	81	n/a	n/a	1	0	0
1879.3268	1	81	n/a	n/a	1	0	0
1879.5268	1	81	n/a	n/a	1	0	0
1879.7268	1	81	n/a	n/a	1	0	0
1879.9268	1	81	n/a	n/a	1	0	0
1880.1268	1	81	n/a	n/a	1	0	0
1880.3268	1	81	n/a	n/a	1	0	0
1880.5268	1	81	n/a	n/a	1	0	0
1880.7268	1	81	n/a	n/a	1	0	0
1881.9364	1	10	n/a	n/a	1	50	1
1883.203	1	10	n/a	n/a	1	50	2
1884.5028	1	10	n/a	n/a	1	50	3
1885.7694	1	10	n/a	n/a	1	50	4
1887.0694	1	10	n/a	n/a	1	50	5
1888.2194	1	10	n/a	n/a	1	50	6
1889.2526	1	10	n/a	n/a	1	50	7
1890.2858	1	21	n/a	n/a	1	50	0
1891.3524	1	10	n/a	n/a	1	50	1
1892.4858	1	10	n/a	n/a	1	50	2
1893.5524	1	10	n/a	n/a	1	50	3
1894.719	1	10	n/a	n/a	1	50	4
1895.9856	1	10	n/a	n/a	1	50	5
1897.2522	1	21	n/a	n/a	1	50	0
1898.5354	1	10	n/a	n/a	1	50	1
1899.7186	1	10	n/a	n/a	1	50	2
1900.9352	1	10	n/a	n/a	1	50	3
1902.2518	1	10	n/a	n/a	1	50	4
1903.3184	1	10	n/a	n/a	1	50	5
1904.385	1	21	n/a	n/a	1	50	0
1905.2866	1	81	n/a	n/a	1	0	0
1905.4866	1	81	n/a	n/a	1	0	0
1905.6866	1	81	n/a	n/a	1	0	0
1905.8866	1	81	n/a	n/a	1	0	0
1906.0866	1	81	n/a	n/a	1	0	0
1906.2866	1	81	n/a	n/a	1	0	0
1906.4866	1	81	n/a	n/a	1	0	0
1906.6866	1	81	n/a	n/a	1	0	0
1906.8866	1	81	n/a	n/a	1	0	0
1907.0866	1	81	n/a	n/a	1	0	0
1908.4682	1	10	n/a	n/a	1	50	1
1909.768	1	10	n/a	n/a	1	50	2
1910.9512	1	10	n/a	n/a	1	50	3
1912.1346	1	21	n/a	n/a	1	50	0
1913.2512	1	10	n/a	n/a	1	50	1
1914.551	1	10	n/a	n/a	1	50	2
1915.701	1	10	n/a	n/a	1	50	3
1916.8342	1	10	n/a	n/a	1	50	4
1918.0676	1	10	n/a	n/a	1	50	5
1919.3008	1	21	n/a	n/a	1	50	0
1920.484	1	10	n/a	n/a	1	50	1
1921.6674	1	10	n/a	n/a	1	50	2
1922.7506	1	10	n/a	n/a	1	50	3
1923.8172	1	10	n/a	n/a	1	50	4
1925.0004	1	10	n/a	n/a	1	50	5
1926.1838	1	21	n/a	n/a	1	50	0
1927.2504	1	10	n/a	n/a	1	50	1
1928.5336	1	10	n/a	n/a	1	50	2
1929.6836	1	10	n/a	n/a	1	50	3
1930.8834	1	10	n/a	n/a	1	50	4
1931.733	1	81	n/a	n/a	1	0	0
1931.933	1	81	n/a	n/a	1	0	0
1932.133	1	81	n/a	n/a	1	0	0
1932.333	1	81	n/a	n/a	1	0	0
1932.533	1	81	n/a	n/a	1	0	0
1932.733	1	81	n/a	n/a	1	0	0
1932.933	1	81	n/a	n/a	1	0	0
1933.133	1	81	n/a	n/a	1	0	0
1933.333	1	81	n/a	n/a	1	0	0
1933.533	1	81	n/a	n/a	1	0	0
1934.6666	1	10	n/a	n/a	1	50	1
1935.6998	1	10	n/a	n/a	1	50	2
1936.883	1	10	n/a	n/a	1	50	3
1937.9664	1	10	n/a	n/a	1	50	4
1939.2496	1	10	n/a	n/a	1	50	5
1940.4162	1	10	n/a	n/a	1	50	6
1941.6828	1	10	n/a	n/a	1	50	7
1942.9494	1	21	n/a	n/a	1	50	0
1944.0994	1	10	n/a	n/a	1	50	1
1945.1492	1	10	n/a	n/a	1	50	2
1946.3826	1	10	n/a	n/a	1	50	3
1947.6158	1	21	n/a	n/a	1	50	0
1948.849	1	10	n/a	n/a	1	50	1
1949.9324	1	10	n/a	n/a	1	50	2
1951.199	1	10	n/a	n/a	1	50	3
1952.2488	1	10	n/a	n/a	1	50	4
1953.2988	1	10	n/a	n/a	1	50	5
1954.3488	1	21	n/a	n/a	1	50	0
1955.5486	1	10	n/a	n/a	1	50	1
1956.5986	1	10	n/a	n/a	1	50	2
1957.561	1	81	n/a	n/a	1	0	0
1957.761	1	81	n/a	n/a	1	0	0
1957.961	1	81	n/a	n/a	1	0	0
1958.161	1	81	n/a	n/a	1	0	0
1958.361	1	81	n/a	n/a	1	0	0
1958.561	1	81	n/a	n/a	1	0	0
1958.761	1	81	n/a	n/a	1	0	0
1958.961	1	81	n/a	n/a	1	0	0
1959.161	1	81	n/a	n/a	1	0	0
1959.361	1	81	n/a	n/a	1	0	0
1960.615	1	10	n/a	n/a	1	50	1
1961.7316	1	10	n/a	n/a	1	50	2
1962.7982	1	10	n/a	n/a	1	50	3
1963.8648	1	21	n/a	n/a	1	50	0
1964.9314	1	10	n/a	n/a	1	50	1
1965.998	1	21	n/a	n/a	1	50	0
1967.1646	1	10	n/a	n/a	1	50	1
1968.2312	1	10	n/a	n/a	1	50	2
1969.2646	1	10	n/a	n/a	1	50	3
1970.2978	1	21	n/a	n/a	1	50	0
1971.4478	1	10	n/a	n/a	1	50	1
1972.481	1	10	n/a	n/a	1	50	2
1973.631	1	10	n/a	n/a	1	50	3
1974.7976	1	10	n/a	n/a	1	50	4
1976.0142	1	10	n/a	n/a	1	50	5
1977.2308	1	21	n/a	n/a	1	50	0
1978.4474	1	10	n/a	n/a	1	50	1
1979.6638	1	21	n/a	n/a	1	50	0
1980.9138	1	10	n/a	n/a	1	50	1
1982.1638	1	21	n/a	n/a	1	50	0
1983.2482	1	81	n/a	n/a	1	0	0
1983.4482	1	81	n/a	n/a	1	0	0
1983.6482	1	81	n/a	n/a	1	0	0
1983.8482	1	81	n/a	n/a	1	0	0
1984.0482	1	81	n/a	n/a	1	0	0
1984.2482	1	81	n/a	n/a	1	0	0
1984.4482	1	81	n/a	n/a	1	0	0
1984.6482	1	81	n/a	n/a	1	0	0
1984.8482	1	81	n/a	n/a	1	0	0
1985.0482	1	81	n/a	n/a	1	0	0
1986.2636	1	10	n/a	n/a	1	50	1
1987.4302	1	10	n/a	n/a	1	50	2
1988.6634	1	10	n/a	n/a	1	50	3
1989.8966	1	21	n/a	n/a	1	50	0
1991.1298	1	10	n/a	n/a	1	50	1
1992.2632	1	10	n/a	n/a	1	50	2
1993.4798	1	10	n/a	n/a	1	50	3
1994.6964	1	21	n/a	n/a	1	50	0
1995.8462	1	10	n/a	n/a	1	50	1
1997.1128	1	10	n/a	n/a	1	50	2
1998.2962	1	10	n/a	n/a	1	50	3
1999.4794	1	21	n/a	n/a	1	50	0
2000.5126	1	10	n/a	n/a	1	50	1
2001.6292	1	10	n/a	n/a	1	50	2
2002.6958	1	10	n/a	n/a	1	50	3
2003.7624	1	21	n/a	n/a	1	50	0
2004.929	1	10	n/a	n/a	1	50	1
2005.979	1	10	n/a	n/a	1	50	2
2007.0622	1	10	n/a	n/a	1	50	3
2008.1956	1	10	n/a	n/a	1	50	4
2047.504	1	81	n/a	n/a	1	0	0
2047.704	1	81	n/a	n/a	1	0	0
2047.904	1	81	n/a	n/a	1	0	0
2048.104	1	81	n/a	n/a	1	0	0
2048.304	1	81	n/a	n/a	1	0	0
2048.504	1	81	n/a	n/a	1	0	0
2048.704	1	81	n/a	n/a	1	0	0
2048.904	1	81	n/a	n/a	1	0	0
2049.104	1	81	n/a	n/a	1	0	0
2049.304	1	81	n/a	n/a	1	0	0
2050.693	1	10	n/a	n/a	1	51	1
2051.8762	1	10	n/a	n/a	1	51	2
2053.1096	1	10	n/a	n/a	1	51	3
2054.2262	1	10	n/a	n/a	1	51	4
2055.4428	1	10	n/a	n/a	1	51	5
2056.6594	1	21	n/a	n/a	1	51	0
2057.876	1	10	n/a	n/a	1	51	1
2059.0758	1	10	n/a	n/a	1	51	2
2060.2424	1	10	n/a	n/a	1	51	3
2061.409	1	21	n/a	n/a	1	51	0
2062.6256	1	10	n/a	n/a	1	51	1
2063.8422	1	10	n/a	n/a	1	51	2
2064.8922	1	10	n/a	n/a	1	51	3
2066.0422	1	10	n/a	n/a	1	51	4
2067.3254	1	10	n/a	n/a	1	51	5
2068.6086	1	21	n/a	n/a	1	51	0
2069.742	1	10	n/a	n/a	1	51	1
2070.8086	1	10	n/a	n/a	1	51	2
2071.9584	1	10	n/a	n/a	1	51	3
2073.1084	1	21	n/a	n/a	1	51	0
2073.908	1	81	n/a	n/a	1	0	0
2074.108	1	81	n/a	n/a	1	0	0
2074.308	1	81	n/a	n/a	1	0	0
2074.508	1	81	n/a	n/a	1	0	0
2074.708	1	81	n/a	n/a	1	0	0
2074.908	1	81	n/a	n/a	1	0	0
2075.108	1	81	n/a	n/a	1	0	0
2075.308	1	81	n/a	n/a	1	0	0
2075.508	1	81	n/a	n/a	1	0	0
2075.708	1	81	n/a	n/a	1	0	0
2077.0248	1	10	n/a	n/a	1	51	1
2078.1248	1	10	n/a	n/a	1	51	2
2079.3246	1	10	n/a	n/a	1	51	3
2080.4912	1	10	n/a	n/a	1	51	4
2081.7246	1	10	n/a	n/a	1	51	5
2082.9244	1	10	n/a	n/a	1	51	6
2084.1578	1	10	n/a	n/a	1	51	7
2085.391	1	21	n/a	n/a	1	51	0
2086.5242	1	10	n/a	n/a	1	51	1
2087.7576	1	10	n/a	n/a	1	51	2
2088.9408	1	10	n/a	n/a	1	51	3
2090.1906	1	10	n/a	n/a	1	51	4
2091.324	1	10	n/a	n/a	1	51	5
2092.4572	1	21	n/a	n/a	1	51	0
2093.5904	1	10	n/a	n/a	1	51	1
2094.7238	1	21	n/a	n/a	1	51	0
2096.007	1	10	n/a	n/a	1	51	1
2097.1902	1	10	n/a	n/a	1	51	2
2098.3568	1	10	n/a	n/a	1	51	3
2099.5068	1	10	n/a	n/a	1	51	4
2100.5882	1	81	n/a	n/a	1	0	0
2100.7882	1	81	n/a	n/a	1	0	0
2100.9882	1	81	n/a	n/a	1	0	0
2101.1882	1	81	n/a	n/a	1	0	0
2101.3882	1	81	n/a	n/a	1	0	0
2101.5882	1	81	n/a	n/a	1	0	0
2101.7882	1	81	n/a	n/a	1	0	0
2101.9882	1	81	n/a	n/a	1	0	0
2102.1882	1	81	n/a	n/a	1	0	0
2102.3882	1	81	n/a	n/a	1	0	0
2103.5732	1	10	n/a	n/a	1	51	1
2104.6732	1	21	n/a	n/a	1	51	0
2105.7232	1	10	n/a	n/a	1	51	1
2106.7898	1	10	n/a	n/a	1	51	2
2108.073	1	10	n/a	n/a	1	51	3
2109.2896	1	10	n/a	n/a	1	51	4
2110.5894	1	10	n/a	n/a	1	51	5
2111.8894	1	21	n/a	n/a	1	51	0
2113.156	1	10	n/a	n/a	1	51	1
2114.4726	1	10	n/a	n/a	1	51	2
2115.6726	1	10	n/a	n/a	1	51	3
2116.9724	1	10	n/a	n/a	1	51	4
2118.289	1	10	n/a	n/a	1	51	5
2119.6056	1	21	n/a	n/a	1	51	0
2120.7388	1	10	n/a	n/a	1	51	1
2122.0554	1	10	n/a	n/a	1	51	2
2123.1888	1	10	n/a	n/a	1	51	3
2124.322	1	21	n/a	n/a	1	51	0
2125.622	1	10	n/a	n/a	1	51	1
2126.9218	1	21	n/a	n/a	1	51	0
2127.9556	1	81	n/a	n/a	1	0	0
2128.1556	1	81	n/a	n/a	1	0	0
2128.3556	1	81	n/a	n/a	1	0	0
2128.5556	1	81	n/a	n/a	1	0	0
2128.7556	1	81	n/a	n/a	1	0	0
2128.9556	1	81	n/a	n/a	1	0	0
2129.1556	1	81	n/a	n/a	1	0	0
2129.3556	1	81	n/a	n/a	1	0	0
2129.5556	1	81	n/a	n/a	1	0	0
2129.7556	1	81	n/a	n/a	1	0	0
2130.905	1	10	n/a	n/a	1	51	1
2131.9548	1	21	n/a	n/a	1	51	0
2133.0548	1	10	n/a	n/a	1	51	1
2134.388	1	10	n/a	n/a	1	51	2
2135.588	1	10	n/a	n/a	1	51	3
2136.788	1	21	n/a	n/a	1	51	0
2137.9378	1	10	n/a	n/a	1	51	1
2139.0544	1	10	n/a	n/a	1	51	2
2140.321	1	10	n/a	n/a	1	51	3
2141.5876	1	21	n/a	n/a	1	51	0
2142.6542	1	10	n/a	n/a	1	51	1
2143.7376	1	10	n/a	n/a	1	51	2
2144.8542	1	10	n/a	n/a	1	51	3
2145.9708	1	21	n/a	n/a	1	51	0
2147.254	1	10	n/a	n/a	1	51	1
2148.5206	1	10	n/a	n/a	1	51	2
2149.7538	1	10	n/a	n/a	1	51	3
2151.0538	1	10	n/a	n/a	1	51	4
2152.2036	1	10	n/a	n/a	1	51	5
2153.337	1	10	n/a	n/a	1	51	6
2154.1864	1	81	n/a	n/a	1	0	0
2154.3864	1	81	n/a	n/a	1	0	0
2154.5864	1	81	n/a	n/a	1	0	0
2154.7864	1	81	n/a	n/a	1	0	0
2154.9864	1	81	n/a	n/a	1	0	0
2155.1864	1	81	n/a	n/a	1	0	0
2155.3864	1	81	n/a	n/a	1	0	0
2155.5864	1	81	n/a	n/a	1	0	0
2155.7864	1	81	n/a	n/a	1	0	0
2155.9864	1	81	n/a	n/a	1	0	0
2157.2368	1	10	n/a	n/a	1	51	1
2158.4366	1	10	n/a	n/a	1	51	2
2159.5366	1	10	n/a	n/a	1	51	3
2160.6866	1	10	n/a	n/a	1	51	4
2161.7698	1	10	n/a	n/a	1	51	5
2162.853	1	21	n/a	n/a	1	51	0
2163.8864	1	10	n/a	n/a	1	51	1
2164.9196	1	21	n/a	n/a	1	51	0
2165.9528	1	10	n/a	n/a	1	51	1
2167.2528	1	10	n/a	n/a	1	51	2
2168.5194	1	10	n/a	n/a	1	51	3
2169.6694	1	10	n/a	n/a	1	51	4
2170.936	1	10	n/a	n/a	1	51	5
2172.2026	1	10	n/a	n/a	1	51	6
2173.3692	1	10	n/a	n/a	1	51	7
2174.5358	1	21	n/a	n/a	1	51	0
2175.7856	1	10	n/a	n/a	1	51	1
2177.019	1	10	n/a	n/a	1	51	2
2178.0854	1	10	n/a	n/a	1	51	3
2179.352	1	10	n/a	n/a	1	51	4
