onset	duration	value	response	rt	good	TMS	delta	fixed	seq
52.2148	1	81	n/a	n/a	1	0	0	0	0
52.4148	1	81	n/a	n/a	1	0	0	0	0
52.6148	1	81	n/a	n/a	1	0	0	0	0
52.8148	1	81	n/a	n/a	1	0	0	0	0
53.0148	1	81	n/a	n/a	1	0	0	0	0
53.2148	1	81	n/a	n/a	1	0	0	0	0
53.4148	1	81	n/a	n/a	1	0	0	0	0
53.6148	1	81	n/a	n/a	1	0	0	0	0
53.8148	1	81	n/a	n/a	1	0	0	0	0
54.0148	1	81	n/a	n/a	1	0	0	0	0
55.1666	1	10	226.3	226.3	1	51	-2.8376e-10	0	1
56.2164	1	10	216.4	216.4	1	51	-0.1	0	2
57.2498	1	10	223.1	223.1	1	51	0.1	0	3
58.283	1	21	197.8	197.8	1	51	-0.1	0	0
59.4162	1	10	88.5	88.5	1	51	2.7649e-10	0	1
60.5996	1	10	-99	-99	1	51	0.1	0	2
61.7328	1	10	203.9	203.9	1	51	-0.1	0	3
62.966	1	10	202.6	202.6	1	51	-1.8917e-10	0	4
64.0994	1	10	237.3	237.3	1	51	0.1	0	5
65.2326	1	21	1264	1264	1	51	-0.1	0	0
66.5492	1	10	-99	-99	1	51	-9.4587e-11	0	1
67.5992	1	10	241.5	241.5	1	51	0.1	0	2
68.699	1	10	213.5	213.5	1	51	-0.1	0	3
69.8324	1	10	296.2	296.2	1	51	0.1	0	4
71.099	1	10	293.6	293.6	1	51	-8.7311e-11	0	5
72.3656	1	21	-99	-99	1	51	-8.7311e-11	0	0
73.632	1	10	240.3	240.3	1	51	-0.2	0	1
74.832	1	10	208.4	208.4	1	51	0.1	0	2
76.082	1	10	286.5	286.5	1	51	0.1	0	3
77.1486	1	10	243.9	243.9	1	51	-8.7311e-11	0	4
78.087	1	81	n/a	n/a	1	0	-0.1	0	0
78.287	1	81	n/a	n/a	1	0	0	0	0
78.487	1	81	n/a	n/a	1	0	0	0	0
78.687	1	81	n/a	n/a	1	0	0	0	0
78.887	1	81	n/a	n/a	1	0	0	0	0
79.087	1	81	n/a	n/a	1	0	0	0	0
79.287	1	81	n/a	n/a	1	0	0	0	0
79.487	1	81	n/a	n/a	1	0	0	0	0
79.687	1	81	n/a	n/a	1	0	0	0	0
79.887	1	81	n/a	n/a	1	0	0	0	0
81.215	1	10	321.3	321.3	1	51	0	0	1
82.415	1	10	225.3	225.3	1	51	0.1	0	2
83.5982	1	10	258	258	1	51	-0.1	0	3
84.7814	1	21	226.8	226.8	1	51	-1.8917e-10	0	0
85.948	1	10	212.2	212.2	1	51	-8.7311e-11	0	1
87.248	1	10	336.1	336.1	1	51	0	0	2
88.4312	1	10	288.9	288.9	1	51	2.7649e-10	0	3
89.6144	1	21	305.6	305.6	1	51	-0.1	0	0
90.8478	1	10	208.3	208.3	1	51	0.1	0	1
91.931	1	10	245	245	1	51	-1.8917e-10	0	2
93.0822	1	10	231.3	231.3	1	51	1.5	0	3
94.1642	1	10	299.8	299.8	1	51	-1.5	0	4
95.4308	1	10	329.2	329.2	1	51	-8.7311e-11	0	5
96.6974	1	21	-99	-99	1	51	-1.0186e-10	0	0
97.9806	1	10	259.2	259.2	1	51	-0.1	0	1
99.264	1	21	256	256	1	51	0.2	0	0
100.5472	1	10	204.7	204.7	1	51	-0.1	0	1
101.8304	1	21	-99	-99	1	51	-0.1	0	0
103.047	1	10	248.7	248.7	1	51	3.7835e-10	0	1
104.2302	1	10	393.5	393.5	1	51	-1.8917e-10	0	2
105.0878	1	81	n/a	n/a	1	0	0.1	0	0
105.2878	1	81	n/a	n/a	1	0	0	0	0
105.4878	1	81	n/a	n/a	1	0	0	0	0
105.6878	1	81	n/a	n/a	1	0	0	0	0
105.8878	1	81	n/a	n/a	1	0	0	0	0
106.0878	1	81	n/a	n/a	1	0	0	0	0
106.2878	1	81	n/a	n/a	1	0	0	0	0
106.4878	1	81	n/a	n/a	1	0	0	0	0
106.6878	1	81	n/a	n/a	1	0	0	0	0
106.8878	1	81	n/a	n/a	1	0	0	0	0
108.03	1	10	289.6	289.6	1	51	-0.1	0	1
109.08	1	21	-99	-99	1	51	0.1	0	0
110.33	1	10	229.6	229.6	1	51	0	0	1
111.5632	1	10	260.4	260.4	1	51	2.7649e-10	0	2
112.5964	1	10	331.1	331.1	1	51	-0.1	0	3
113.9298	1	10	245.8	245.8	1	51	0.1	0	4
115.0796	1	10	247.8	247.8	1	51	-0.1	0	5
116.2296	1	21	-99	-99	1	51	0.1	0	0
117.4962	1	10	71.3	71.3	1	51	-1.0186e-10	0	1
118.7128	1	10	214.7	214.7	1	51	0.1	0	2
119.8794	1	10	232	232	1	51	-0.1	0	3
121.0126	1	10	298.7	298.7	1	51	-0.1	0	4
122.1626	1	10	252.8	252.8	1	51	0.1	0	5
123.2624	1	10	272.9	272.9	1	51	-0.1	0	6
124.3124	1	10	262.8	262.8	1	51	0	0	7
125.3624	1	21	-99	-99	1	51	0.1	0	0
126.6122	1	10	234.9	234.9	1	51	-0.2	0	1
127.7456	1	10	221.7	221.7	1	51	0.2	0	2
128.8622	1	10	257	257	1	51	-1.0186e-10	0	3
129.9788	1	10	308.4	308.4	1	51	-8.7311e-11	0	4
130.7032	1	81	n/a	n/a	1	0	8.7311e-11	0	0
130.9032	1	81	n/a	n/a	1	0	0	0	0
131.1032	1	81	n/a	n/a	1	0	2.9104e-11	0	0
131.3032	1	81	n/a	n/a	1	0	0	0	0
131.5032	1	81	n/a	n/a	1	0	0	0	0
131.7032	1	81	n/a	n/a	1	0	0	0	0
131.9032	1	81	n/a	n/a	1	0	0	0	0
132.1032	1	81	n/a	n/a	1	0	0	0	0
132.3032	1	81	n/a	n/a	1	0	0	0	0
132.5032	1	81	n/a	n/a	1	0	0	0	0
133.7118	1	10	239.2	239.2	1	51	-0.1	0	1
134.9284	1	10	238.6	238.6	1	51	-8.7311e-11	0	2
136.0784	1	10	304.6	304.6	1	51	0	0	3
137.3616	1	10	365.4	365.4	1	51	2.9104e-10	0	4
138.5782	1	10	316.7	316.7	1	51	-8.7311e-11	0	5
139.6616	1	10	305.4	305.4	1	51	0.1	0	6
140.7448	1	10	342.1	342.1	1	51	-0.1	0	7
141.828	1	21	-99	-99	1	51	2.9104e-10	0	0
143.0114	1	10	267.5	267.5	1	51	0.1	0	1
144.1612	1	10	221.6	221.6	1	51	-0.1	0	2
145.3278	1	10	255	255	1	51	-1.1642e-10	0	3
146.6444	1	10	250.4	250.4	1	51	-8.7311e-11	0	4
147.911	1	10	215.7	215.7	1	51	3.7835e-10	0	5
149.1442	1	10	214.4	214.4	1	51	-0.1	0	6
150.4108	1	10	243.8	243.8	1	51	-1.1642e-10	0	7
151.6774	1	21	-99	-99	1	51	3.7835e-10	0	0
152.7608	1	10	261.9	261.9	1	51	0.2	0	1
154.044	1	10	162.6	162.6	1	51	-0.1	0	2
155.2606	1	10	226	226	1	51	-8.7311e-11	0	3
156.5438	1	10	254.7	254.7	1	51	-0.1	0	4
157.6222	1	81	n/a	n/a	1	0	1.1642e-10	0	0
157.8222	1	81	n/a	n/a	1	0	0	0	0
158.0222	1	81	n/a	n/a	1	0	0	0	0
158.2222	1	81	n/a	n/a	1	0	0	0	0
158.4222	1	81	n/a	n/a	1	0	0	0	0
158.6222	1	81	n/a	n/a	1	0	0	0	0
158.8222	1	81	n/a	n/a	1	0	0	0	0
159.0222	1	81	n/a	n/a	1	0	0	0	0
159.2222	1	81	n/a	n/a	1	0	0	0	0
159.4222	1	81	n/a	n/a	1	0	0	0	0
160.8102	1	10	260.2	260.2	1	51	0	0	1
161.8602	1	10	314.2	314.2	1	51	0.1	0	2
163.1102	1	10	232.2	232.2	1	51	0	0	3
164.36	1	21	-99	-99	1	51	-0.1	0	0
165.66	1	10	210.3	210.3	1	51	0.1	0	1
166.7932	1	10	245	245	1	51	-0.1	0	2
168.1098	1	10	304.4	304.4	1	51	-1.1642e-10	0	3
169.3264	1	10	255.8	255.8	1	51	3.7835e-10	0	4
170.5764	1	10	237.9	237.9	1	51	0.1	0	5
171.8262	1	21	-99	-99	1	51	-0.1	0	0
173.0428	1	10	235.3	235.3	1	51	-1.1642e-10	0	1
174.2762	1	10	218	218	1	51	0.1	0	2
175.5928	1	10	245.3	245.3	1	51	-1.1642e-10	0	3
176.9094	1	21	-99	-99	1	51	-8.7311e-11	0	0
178.0926	1	10	225.5	225.5	1	51	2.9104e-10	0	1
179.3258	1	10	240.2	240.2	1	51	-0.1	0	2
180.3758	1	10	326.2	326.2	1	51	0.1	0	3
181.509	1	10	216.9	216.9	1	51	-0.1	0	4
182.7256	1	10	280.3	280.3	1	51	-8.7311e-11	0	5
183.8588	1	10	299	299	1	51	-0.1	0	6
192.0818	1	81	n/a	n/a	1	0	0.1	0	0
192.2818	1	81	n/a	n/a	1	0	0	0	0
192.4818	1	81	n/a	n/a	1	0	0	0	0
192.6818	1	81	n/a	n/a	1	0	0	0	0
192.8818	1	81	n/a	n/a	1	0	0	0	0
193.0818	1	81	n/a	n/a	1	0	0	0	0
193.2818	1	81	n/a	n/a	1	0	0	0	0
193.4818	1	81	n/a	n/a	1	0	0	0	0
193.6818	1	81	n/a	n/a	1	0	0	0	0
193.8818	1	81	n/a	n/a	1	0	0	0	0
195.0248	1	10	236.7	236.7	1	50	-0.1	0	1
196.3082	1	10	249.5	249.5	1	50	0.2	0	2
197.4414	1	10	284.2	284.2	1	50	-0.1	0	3
198.5746	1	21	-99	-99	1	50	-0.1	0	0
199.6746	1	10	242.9	242.9	1	50	0.1	0	1
200.7246	1	10	233	233	1	50	0.1	0	2
202.0412	1	10	276.4	276.4	1	50	-8.7311e-11	0	3
203.3244	1	10	241.1	241.1	1	50	-0.1	0	4
204.5744	1	10	143.1	143.1	1	50	0.1	0	5
205.8242	1	21	189.1	189.1	1	50	-0.2	0	0
206.9742	1	10	207.2	207.2	1	50	0.1	0	1
208.1742	1	10	239.3	239.3	1	50	0.1	0	2
209.4908	1	10	282.6	282.6	1	50	-1.1642e-10	0	3
210.6574	1	10	316	316	1	50	-8.7311e-11	0	4
211.7406	1	10	256.7	256.7	1	50	-0.1	0	5
212.9572	1	10	320	320	1	50	-8.7311e-11	0	6
214.1238	1	10	273.4	273.4	1	50	-1.1642e-10	0	7
215.2904	1	21	-99	-99	1	50	3.7835e-10	0	0
216.3736	1	10	279.6	279.6	1	50	-1.7462e-10	0	1
217.4568	1	21	-99	-99	1	50	-0.1	0	0
218.3416	1	81	n/a	n/a	1	0	0.1	0	0
218.5416	1	81	n/a	n/a	1	0	0	0	0
218.7416	1	81	n/a	n/a	1	0	0	0	0
218.9416	1	81	n/a	n/a	1	0	0	0	0
219.1416	1	81	n/a	n/a	1	0	0	0	0
219.3416	1	81	n/a	n/a	1	0	0	0	0
219.5416	1	81	n/a	n/a	1	0	0	0	0
219.7416	1	81	n/a	n/a	1	0	0	0	0
219.9416	1	81	n/a	n/a	1	0	0	0	0
220.1416	1	81	n/a	n/a	1	0	0	0	0
221.3734	1	10	239.7	239.7	1	50	1.7462e-10	0	1
222.54	1	10	273	273	1	50	-8.7311e-11	0	2
223.7732	1	10	223.8	223.8	1	50	-1.7462e-10	0	3
225.0064	1	21	334.5	334.5	1	50	-0.1	0	0
226.223	1	10	237.9	237.9	1	50	-8.7311e-11	0	1
227.4396	1	21	-99	-99	1	50	-8.7311e-11	0	0
228.573	1	10	240	240	1	50	0.2	0	1
229.7062	1	10	258.7	258.7	1	50	-0.1	0	2
230.7394	1	10	457.4	457.4	1	50	-0.1	0	3
231.7728	1	21	-99	-99	1	50	0.1	0	0
232.8394	1	10	229.4	229.4	1	50	-8.7311e-11	0	1
234.0226	1	10	182.2	182.2	1	50	2.9104e-10	0	2
235.3392	1	10	241.6	241.6	1	50	-8.7311e-11	0	3
236.589	1	10	255.6	255.6	1	50	-0.1	0	4
237.7224	1	10	258.3	258.3	1	50	0.1	0	5
238.8556	1	21	-99	-99	1	50	-0.1	0	0
239.9722	1	10	248.4	248.4	1	50	-8.7311e-11	0	1
241.0722	1	10	220.4	220.4	1	50	0.1	0	2
242.222	1	10	222.4	222.4	1	50	-0.2	0	3
243.3886	1	10	239.9	239.9	1	50	0.1	0	4
244.1902	1	81	n/a	n/a	1	0	0.1	0	0
244.3902	1	81	n/a	n/a	1	0	0	0	0
244.5902	1	81	n/a	n/a	1	0	0	0	0
244.7902	1	81	n/a	n/a	1	0	0	0	0
244.9902	1	81	n/a	n/a	1	0	0	0	0
245.1902	1	81	n/a	n/a	1	0	0	0	0
245.3902	1	81	n/a	n/a	1	0	0	0	0
245.5902	1	81	n/a	n/a	1	0	0	0	0
245.7902	1	81	n/a	n/a	1	0	0	0	0
245.9902	1	81	n/a	n/a	1	0	0	0	0
247.2052	1	10	263.3	263.3	1	50	0	0	1
248.4384	1	10	294	294	1	50	-0.1	0	2
249.5384	1	10	330.1	330.1	1	50	0.1	0	3
250.805	1	10	279.4	279.4	1	50	3.7835e-10	0	4
251.9548	1	10	281.5	281.5	1	50	-0.1	0	5
252.9882	1	10	288.2	288.2	1	50	0.1	0	6
254.238	1	10	350.3	350.3	1	50	-0.1	0	7
255.488	1	21	236.2	236.2	1	50	0	0	0
256.6212	1	10	223	223	1	50	-1.7462e-10	0	1
257.7546	1	21	241.7	241.7	1	50	0.1	0	0
259.0044	1	10	191.8	191.8	1	50	-0.1	0	1
260.2376	1	10	238.4	238.4	1	50	-0.1	0	2
261.5542	1	10	249.8	249.8	1	50	-8.7311e-11	0	3
262.7208	1	10	315.2	315.2	1	50	3.4925e-10	0	4
263.9708	1	10	345.3	345.3	1	50	0.1	0	5
265.254	1	10	277.9	277.9	1	50	-0.1	0	6
266.554	1	10	290	290	1	50	0.1	0	7
267.854	1	21	-99	-99	1	50	0.1	0	0
269.0706	1	10	365.4	365.4	1	50	-1.1642e-10	0	1
270.1204	1	10	243.5	243.5	1	50	-0.1	0	2
271.08	1	81	n/a	n/a	1	0	0.1	0	0
271.28	1	81	n/a	n/a	1	0	0	0	0
271.48	1	81	n/a	n/a	1	0	0	0	0
271.68	1	81	n/a	n/a	1	0	0	0	0
271.88	1	81	n/a	n/a	1	0	0	0	0
272.08	1	81	n/a	n/a	1	0	0	0	0
272.28	1	81	n/a	n/a	1	0	0	0	0
272.48	1	81	n/a	n/a	1	0	0	0	0
272.68	1	81	n/a	n/a	1	0	0	0	0
272.88	1	81	n/a	n/a	1	0	0	0	0
274.1036	1	10	244.3	244.3	1	50	-1.1642e-10	0	1
275.4368	1	10	144.7	144.7	1	50	17.6	0	2
276.6534	1	10	366.4	366.4	1	50	-17.7	0	3
277.87	1	10	285.8	285.8	1	50	-1.1642e-10	0	4
279.17	1	10	265.8	265.8	1	50	0.1	0	5
280.4532	1	10	262.5	262.5	1	50	-0.1	0	6
281.753	1	10	290.6	290.6	1	50	-0.1	0	7
283.053	1	21	206.7	206.7	1	50	0.1	0	0
284.2196	1	10	208	208	1	50	-1.1642e-10	0	1
285.4862	1	10	189.4	189.4	1	50	-5.8208e-11	0	2
286.8028	1	10	-99	-99	1	50	-1.1642e-10	0	3
288.0528	1	10	70.8	70.8	1	50	0.1	0	4
289.286	1	10	309.5	309.5	1	50	-0.1	0	5
290.336	1	10	283.6	283.6	1	50	0.1	0	6
291.4192	1	10	256.3	256.3	1	50	-0.1	0	7
292.5024	1	21	-99	-99	1	50	-0.1	0	0
293.619	1	10	232.3	232.3	1	50	-1.1642e-10	0	1
294.9522	1	10	243.1	243.1	1	50	-1.7462e-10	0	2
296.0522	1	10	279.1	279.1	1	50	0	0	3
297.3022	1	10	277.1	277.1	1	50	0.1	0	4
298.2646	1	81	n/a	n/a	1	0	5.8208e-11	0	0
298.4646	1	81	n/a	n/a	1	0	0	0	0
298.6646	1	81	n/a	n/a	1	0	0	0	0
298.8646	1	81	n/a	n/a	1	0	0	0	0
299.0646	1	81	n/a	n/a	1	0	0	0	0
299.2646	1	81	n/a	n/a	1	0	0	0	0
299.4646	1	81	n/a	n/a	1	0	0	0	0
299.6646	1	81	n/a	n/a	1	0	0	0	0
299.8646	1	81	n/a	n/a	1	0	0	0	0
300.0646	1	81	n/a	n/a	1	0	0	0	0
301.402	1	10	257.3	257.3	1	50	1.1642e-10	0	1
302.6518	1	21	223.3	223.3	1	50	-0.1	0	0
303.7518	1	10	243.4	243.4	1	50	0.1	0	1
304.8684	1	10	310.8	310.8	1	50	4.0745e-10	0	2
305.985	1	10	266.2	266.2	1	50	-1.1642e-10	0	3
307.1516	1	10	299.5	299.5	1	50	-1.1642e-10	0	4
308.3848	1	10	746.2	746.2	1	50	-0.1	0	5
309.6014	1	10	249.6	249.6	1	50	-5.8208e-11	0	6
310.6346	1	10	256.3	256.3	1	50	-0.1	0	7
311.668	1	21	1287	1287	1	50	0.2	0	0
312.9846	1	10	-99	-99	1	50	-1.1642e-10	0	1
314.1012	1	10	213.8	213.8	1	50	-5.8208e-11	0	2
315.3844	1	10	242.4	242.4	1	50	-0.1	0	3
316.6676	1	21	-99	-99	1	50	-0.1	0	0
317.9342	1	10	220.6	220.6	1	50	0.1	0	1
319.0676	1	10	559.3	559.3	1	50	0.1	0	2
320.3174	1	10	253.4	253.4	1	50	-0.1	0	3
321.5674	1	21	251.3	251.3	1	50	0	0	0
322.7174	1	10	205.4	205.4	1	50	0.1	0	1
324.0006	1	10	234.1	234.1	1	50	-0.1	0	2
342.0756	1	82	n/a	n/a	1	0	0	0	0
342.2106	1	82	n/a	n/a	1	0	0	0	0
342.5126	1	82	n/a	n/a	1	0	0	0	0
342.8766	1	82	n/a	n/a	1	0	0	0	0
342.9716	1	82	n/a	n/a	1	0	0	0	0
343.0756	1	82	n/a	n/a	1	0	-0.1	0	0
343.4006	1	82	n/a	n/a	1	0	0	0	0
343.5606	1	82	n/a	n/a	1	0	0	0	0
343.6046	1	82	n/a	n/a	1	0	0	0	0
343.9056	1	82	n/a	n/a	1	0	0	0	0
345.266	1	10	280.2	280.2	1	52	0.1	0	1
346.5826	1	10	227.6	227.6	1	52	-1.1642e-10	0	2
347.7658	1	10	212.3	212.3	1	52	-0.1	0	3
348.849	1	10	217	217	1	52	-1.7462e-10	0	4
349.999	1	10	203	203	1	52	0	0	5
351.149	1	21	-99	-99	1	52	0.1	0	0
352.3988	1	10	139.2	139.2	1	52	-0.1	0	1
353.4988	1	10	223.1	223.1	1	52	0	0	2
354.5654	1	10	212.5	212.5	1	52	-5.8208e-11	0	3
355.632	1	21	-99	-99	1	52	-1.1642e-10	0	0
356.9152	1	10	70.7	70.7	1	52	2.9104e-10	0	1
358.1152	1	10	-99	-99	1	52	0	0	2
359.2984	1	10	23.4	23.4	1	52	-1.7462e-10	0	3
360.5484	1	10	-99	-99	1	52	0	0	4
361.615	1	10	170.8	170.8	1	52	-1.1642e-10	0	5
362.6816	1	21	224.2	224.2	1	52	-1.1642e-10	0	0
363.9316	1	10	238.2	238.2	1	52	0.1	0	1
365.0148	1	10	274.9	274.9	1	52	-0.1	0	2
366.048	1	10	249.7	249.7	1	52	-1.7462e-10	0	3
367.3814	1	10	36.4	36.4	1	52	0.1	0	4
368.116	1	82	n/a	n/a	1	0	-0.1	0	0
368.407	1	82	n/a	n/a	1	0	0	0	0
368.447	1	82	n/a	n/a	1	0	0	0	0
368.828	1	82	n/a	n/a	1	0	0	0	0
369.05	1	82	n/a	n/a	1	0	0	0	0
369.116	1	82	n/a	n/a	1	0	0	0	0
369.553	1	82	n/a	n/a	1	0	0	0	0
369.713	1	82	n/a	n/a	1	0	0	0	0
369.836	1	82	n/a	n/a	1	0	0	0	0
370.058	1	82	n/a	n/a	1	0	0	0	0
371.2312	1	10	298.5	298.5	1	52	0.1	0	1
372.4476	1	21	249.8	249.8	1	52	-0.2	0	0
373.7142	1	10	167.2	167.2	1	52	-5.8208e-11	0	1
374.8142	1	10	347.3	347.3	1	52	0.1	0	2
375.8474	1	10	306	306	1	52	-0.1	0	3
376.8808	1	21	-99	-99	1	52	0.2	0	0
378.1306	1	10	230.7	230.7	1	52	-0.2	0	1
379.3972	1	21	228.1	228.1	1	52	-5.8208e-11	0	0
380.6638	1	10	193.6	193.6	1	52	0.1	0	1
381.7304	1	10	310.8	310.8	1	52	-0.1	0	2
382.8304	1	10	250.9	250.9	1	52	0.1	0	3
383.947	1	10	222.3	222.3	1	52	-1.1642e-10	0	4
385.097	1	10	256.4	256.4	1	52	0.1	0	5
386.2468	1	21	-99	-99	1	52	-0.2	0	0
387.4302	1	10	243.1	243.1	1	52	0.2	0	1
388.63	1	10	227.1	227.1	1	52	-0.2	0	2
389.7966	1	10	260.5	260.5	1	52	3.4925e-10	0	3
391.0632	1	10	225.8	225.8	1	52	-5.8208e-11	0	4
392.2966	1	10	256.6	256.6	1	52	0.2	0	5
393.5298	1	21	-99	-99	1	52	-0.1	0	0
394.5816	1	82	n/a	n/a	1	0	0.1	0	0
394.9806	1	82	n/a	n/a	1	0	0	0	0
395.3506	1	82	n/a	n/a	1	0	0	0	0
395.4566	1	82	n/a	n/a	1	0	0	0	0
395.5376	1	82	n/a	n/a	1	0	0	0	0
395.5816	1	82	n/a	n/a	1	0	0	0	0
396.0086	1	82	n/a	n/a	1	0	0	0	0
396.0466	1	82	n/a	n/a	1	0	0	0	0
396.1876	1	82	n/a	n/a	1	0	0	0	0
396.4176	1	82	n/a	n/a	1	0	0	0	0
397.5296	1	10	287.5	287.5	1	52	0	0	1
398.5794	1	21	293.5	293.5	1	52	-0.2	0	0
399.7628	1	10	230.3	230.3	1	52	0.2	0	1
400.946	1	10	230.9	230.9	1	52	-0.1	0	2
402.1626	1	10	342.3	342.3	1	52	-1.1642e-10	0	3
403.2626	1	10	250.4	250.4	1	52	0.1	0	4
404.3292	1	10	287.8	287.8	1	52	-5.8208e-11	0	5
405.3958	1	21	245	245	1	52	-0.1	0	0
406.6124	1	10	180.4	180.4	1	52	-5.8208e-11	0	1
407.8622	1	10	50.5	50.5	1	52	-0.1	0	2
409.0788	1	10	225.9	225.9	1	52	-1.1642e-10	0	3
410.3288	1	10	431.9	431.9	1	52	0.1	0	4
411.4954	1	10	257.3	257.3	1	52	-5.8208e-11	0	5
412.6286	1	10	260	260	1	52	-0.1	0	6
413.6952	1	10	329.4	329.4	1	52	-5.8208e-11	0	7
414.7618	1	21	-99	-99	1	52	-1.1642e-10	0	0
416.0452	1	10	235.5	235.5	1	52	0.2	0	1
417.195	1	10	237.4	237.4	1	52	-0.2	0	2
418.5116	1	10	72.9	72.9	1	52	3.4925e-10	0	3
419.6116	1	10	236.9	236.9	1	52	0.1	0	4
420.708	1	82	n/a	n/a	1	0	-0.1	0	0
421.053	1	82	n/a	n/a	1	0	0	0	0
421.09	1	82	n/a	n/a	1	0	0	0	0
421.315	1	82	n/a	n/a	1	0	0	0	0
421.457	1	82	n/a	n/a	1	0	0	0	0
421.708	1	82	n/a	n/a	1	0	0	0	0
421.947	1	82	n/a	n/a	1	0	0	0	0
422.056	1	82	n/a	n/a	1	0	0	0	0
422.122	1	82	n/a	n/a	1	0	0	0	0
422.523	1	82	n/a	n/a	1	0	0	0	0
423.678	1	10	234.4	234.4	1	52	0.1	0	1
424.9446	1	10	215.8	215.8	1	52	-1.1642e-10	0	2
426.0112	1	10	237.2	237.2	1	52	4.0745e-10	0	3
427.2444	1	10	203.9	203.9	1	52	-0.1	0	4
428.561	1	10	215.2	215.2	1	52	-1.1642e-10	0	5
429.8776	1	21	242.6	242.6	1	52	3.4925e-10	0	0
431.1608	1	10	143.4	143.4	1	52	-1.7462e-10	0	1
432.2774	1	10	274.8	274.8	1	52	-5.8208e-11	0	2
433.5774	1	10	174.7	174.7	1	52	0	0	3
434.7606	1	10	159.5	159.5	1	52	2.3283e-10	0	4
435.8272	1	10	244.9	244.9	1	52	-5.8208e-11	0	5
437.0438	1	10	324.3	324.3	1	52	-1.1642e-10	0	6
438.3438	1	10	256.2	256.2	1	52	0	0	7
439.6438	1	21	236.3	236.3	1	52	0.1	0	0
440.7436	1	10	240.4	240.4	1	52	-0.1	0	1
441.777	1	10	231.1	231.1	1	52	0.1	0	2
442.8602	1	10	203.7	203.7	1	52	-0.1	0	3
443.9434	1	21	256.5	256.5	1	52	-1.7462e-10	0	0
445.1434	1	10	48.5	48.5	1	52	0	0	1
446.3266	1	10	81.3	81.3	1	52	2.3283e-10	0	2
447.2104	1	82	n/a	n/a	1	0	-2.3283e-10	0	0
447.5044	1	82	n/a	n/a	1	0	0	0	0
447.9184	1	82	n/a	n/a	1	0	0	0	0
448.0104	1	82	n/a	n/a	1	0	0	0	0
448.0324	1	82	n/a	n/a	1	0	0	0	0
448.2104	1	82	n/a	n/a	1	0	0	0	0
448.3044	1	82	n/a	n/a	1	0	0	0	0
448.6764	1	82	n/a	n/a	1	0	0	0	0
448.7154	1	82	n/a	n/a	1	0	0	0	0
449.1354	1	82	n/a	n/a	1	0	0	0	0
450.293	1	10	274.7	274.7	1	52	-0.1	0	1
451.4764	1	21	211.5	211.5	1	52	0.2	0	0
452.5762	1	10	119.4	119.4	1	52	-0.2	0	1
453.8596	1	10	260.2	260.2	1	52	0.2	0	2
455.0262	1	10	325.6	325.6	1	52	4.0745e-10	0	3
456.1928	1	21	-99	-99	1	52	-1.1642e-10	0	0
457.3926	1	10	214.9	214.9	1	52	-0.2	0	1
458.6926	1	10	227	227	1	52	0.1	0	2
459.9758	1	10	223.8	223.8	1	52	-1.7462e-10	0	3
461.259	1	21	236.4	236.4	1	52	-0.1	0	0
462.5256	1	10	185.8	185.8	1	52	-1.1642e-10	0	1
463.6422	1	10	349.2	349.2	1	52	-5.8208e-11	0	2
464.8588	1	10	236.6	236.6	1	52	-1.1642e-10	0	3
466.0254	1	10	301.9	301.9	1	52	-5.8208e-11	0	4
467.2254	1	10	206	206	1	52	0.1	0	5
468.292	1	10	259.4	259.4	1	52	-1.1642e-10	0	6
469.342	1	10	297.4	297.4	1	52	0	0	7
470.3918	1	21	-99	-99	1	52	-0.1	0	0
471.4418	1	10	245.5	245.5	1	52	0.1	0	1
472.4918	1	21	-99	-99	1	52	0	0	0
529.2518	1	82	n/a	n/a	1	0	-0.2	0	0
529.3668	1	82	n/a	n/a	1	0	0	0	0
529.4478	1	82	n/a	n/a	1	0	0	0	0
529.7298	1	82	n/a	n/a	1	0	0	0	0
529.9798	1	82	n/a	n/a	1	0	0	0	0
530.252	1	82	n/a	n/a	1	0	0.2	0	0
530.567	1	82	n/a	n/a	1	0	0	0	0
530.647	1	82	n/a	n/a	1	0	0	0	0
530.931	1	82	n/a	n/a	1	0	0	0	0
530.985	1	82	n/a	n/a	1	0	0	0	0
532.3882	1	10	257.7	257.7	1	52	-0.1	0	1
533.6382	1	21	175.7	175.7	1	52	0	0	0
534.9548	1	10	59.2	59.2	1	52	0.1	0	1
536.2714	1	21	230.5	230.5	1	52	-1.1642e-10	0	0
537.5712	1	10	114.5	114.5	1	52	-0.2	0	1
538.6378	1	10	279.9	279.9	1	52	0	0	2
539.8212	1	10	330.4	330.4	1	52	17.9	0	3
540.9544	1	21	-99	-99	1	52	-17.8	0	0
542.1376	1	10	236	236	1	52	-0.1	0	1
543.3208	1	21	220.8	220.8	1	52	-1.1642e-10	0	0
544.4708	1	10	158.8	158.8	1	52	0	0	1
545.6208	1	10	240.8	240.8	1	52	0.1	0	2
546.8374	1	10	320.2	320.2	1	52	-1.1642e-10	0	3
548.054	1	21	271.6	271.6	1	52	3.4925e-10	0	0
549.1372	1	10	246.2	246.2	1	52	17.8	0	1
550.3538	1	10	211.6	211.6	1	52	-17.9	0	2
551.4538	1	10	215.7	215.7	1	52	0.1	0	3
552.5536	1	10	251.8	251.8	1	52	-0.1	0	4
553.8202	1	10	329.2	329.2	1	52	-1.1642e-10	0	5
555.0868	1	21	-99	-99	1	52	0	0	0
556.1746	1	82	n/a	n/a	1	0	1.1642e-10	0	0
556.2366	1	82	n/a	n/a	1	0	0	0	0
556.3866	1	82	n/a	n/a	1	0	0	0	0
556.4136	1	82	n/a	n/a	1	0	0	0	0
556.7686	1	82	n/a	n/a	1	0	0	0	0
557.1746	1	82	n/a	n/a	1	0	0	0	0
557.3116	1	82	n/a	n/a	1	0	0	0	0
557.4266	1	82	n/a	n/a	1	0	0	0	0
557.7006	1	82	n/a	n/a	1	0	0	0	0
557.7556	1	82	n/a	n/a	1	0	0	0	0
559.2366	1	10	240.7	240.7	1	52	0	0	1
560.4032	1	21	226	226	1	52	-1.1642e-10	0	0
561.5532	1	10	116.1	116.1	1	52	0.1	0	1
562.7864	1	10	242.8	242.8	1	52	-0.1	0	2
564.0696	1	10	319.5	319.5	1	52	-2.3283e-10	0	3
565.153	1	10	388.2	388.2	1	52	0.1	0	4
566.3362	1	10	324.9	324.9	1	52	-0.1	0	5
567.5194	1	21	-99	-99	1	52	3.4925e-10	0	0
568.8194	1	10	193.6	193.6	1	52	0	0	1
570.0526	1	10	208.4	208.4	1	52	-2.3283e-10	0	2
571.3358	1	10	253.1	253.1	1	52	-0.1	0	3
572.6524	1	10	264.5	264.5	1	52	-1.1642e-10	0	4
573.9024	1	10	278.5	278.5	1	52	0.1	0	5
575.069	1	10	247.9	247.9	1	52	-1.1642e-10	0	6
576.219	1	10	282	282	1	52	0.1	0	7
577.3688	1	21	-99	-99	1	52	-0.2	0	0
578.6688	1	10	216	216	1	52	0.1	0	1
579.9688	1	21	68.1	68.1	1	52	0.1	0	0
581.2186	1	10	50.2	50.2	1	52	-0.1	0	1
582.3352	1	10	389.6	389.6	1	52	-1.1642e-10	0	2
583.4338	1	82	n/a	n/a	1	0	0	0	0
583.7168	1	82	n/a	n/a	1	0	0	0	0
584.0628	1	82	n/a	n/a	1	0	0	0	0
584.2248	1	82	n/a	n/a	1	0	0	0	0
584.2908	1	82	n/a	n/a	1	0	0	0	0
584.4338	1	82	n/a	n/a	1	0	0	0	0
584.7058	1	82	n/a	n/a	1	0	0	0	0
584.7458	1	82	n/a	n/a	1	0	0	0	0
585.1118	1	82	n/a	n/a	1	0	0	0	0
585.1738	1	82	n/a	n/a	1	0	0	0	0
586.5184	1	10	366.4	366.4	1	52	0.1	0	1
587.7516	1	10	237	237	1	52	-0.1	0	2
588.8348	1	10	259.5	259.5	1	52	17.7	0	3
590.0014	1	10	275.1	275.1	1	52	-17.8	0	4
591.118	1	10	294.5	294.5	1	52	-1.1642e-10	0	5
592.2346	1	21	-99	-99	1	52	-1.1642e-10	0	0
593.3012	1	10	255.2	255.2	1	52	-1.1642e-10	0	1
594.3512	1	10	229.3	229.3	1	52	0.1	0	2
595.5012	1	10	87.3	87.3	1	52	0	0	3
596.551	1	10	221.4	221.4	1	52	-0.1	0	4
597.651	1	10	289.4	289.4	1	52	0.1	0	5
598.9176	1	10	286.8	286.8	1	52	-1.1642e-10	0	6
599.9676	1	10	324.8	324.8	1	52	0	0	7
601.0174	1	21	-99	-99	1	52	-0.1	0	0
602.0674	1	10	336.9	336.9	1	52	0.1	0	1
603.1174	1	21	246.9	246.9	1	52	0	0	0
604.2672	1	10	185	185	1	52	-0.1	0	1
605.4172	1	21	203	203	1	52	0.1	0	0
606.7338	1	10	-99	-99	1	52	0	0	1
607.8504	1	10	249.8	249.8	1	52	3.4925e-10	0	2
608.645	1	82	n/a	n/a	1	0	-1.1642e-10	0	0
608.947	1	82	n/a	n/a	1	0	0	0	0
608.979	1	82	n/a	n/a	1	0	0	0	0
609.178	1	82	n/a	n/a	1	0	0	0	0
609.586	1	82	n/a	n/a	1	0	0	0	0
609.645	1	82	n/a	n/a	1	0	0	0	0
609.706	1	82	n/a	n/a	1	0	0	0	0
610.019	1	82	n/a	n/a	1	0	0	0	0
610.29	1	82	n/a	n/a	1	0	0	0	0
610.456	1	82	n/a	n/a	1	0	0	0	0
611.5836	1	10	276.5	276.5	1	52	-1.1642e-10	0	1
612.7	1	10	247.9	247.9	1	52	-0.2	0	2
613.9	1	10	216	216	1	52	0.1	0	3
615.1	1	21	216.1	216.1	1	52	0.1	0	0
616.3832	1	10	20.7	20.7	1	52	-0.1	0	1
617.5998	1	10	244.1	244.1	1	52	4.6566e-10	0	2
618.6998	1	10	264.2	264.2	1	52	0.1	0	3
619.9496	1	10	262.3	262.3	1	52	-0.1	0	4
621.0496	1	10	266.2	266.2	1	52	0	0	5
622.1496	1	21	-99	-99	1	52	0.1	0	0
623.2828	1	10	241	241	1	52	-0.1	0	1
624.566	1	10	269.7	269.7	1	52	-2.3283e-10	0	2
625.6494	1	10	370.4	370.4	1	52	0.1	0	3
626.7992	1	10	276.5	276.5	1	52	-0.1	0	4
627.8658	1	10	281.8	281.8	1	52	-0.1	0	5
628.9324	1	21	-99	-99	1	52	0.1	0	0
630.0658	1	10	257.9	257.9	1	52	0.1	0	1
631.1824	1	10	213.3	213.3	1	52	3.4925e-10	0	2
632.3322	1	10	247.3	247.3	1	52	-0.2	0	3
633.4822	1	21	313.4	313.4	1	52	0.1	0	0
634.3176	1	82	n/a	n/a	1	0	1.1642e-10	0	0
634.4306	1	82	n/a	n/a	1	0	0	0	0
634.4996	1	82	n/a	n/a	1	0	0	0	0
634.6546	1	82	n/a	n/a	1	0	0	0	0
635.0696	1	82	n/a	n/a	1	0	0	0	0
635.3176	1	82	n/a	n/a	1	0	0	0	0
635.4576	1	82	n/a	n/a	1	0	0	0	0
635.5186	1	82	n/a	n/a	1	0	0	0	0
635.8156	1	82	n/a	n/a	1	0	0	0	0
636.1786	1	82	n/a	n/a	1	0	0	0	0
637.3486	1	10	270.9	270.9	1	52	0	0	1
638.5486	1	10	190.9	190.9	1	52	0	0	2
639.6318	1	10	243.6	243.6	1	52	3.4925e-10	0	3
640.8818	1	10	65.6	65.6	1	52	0	0	4
641.9816	1	10	197.7	197.7	1	52	-0.1	0	5
643.0816	1	21	-99	-99	1	52	0.1	0	0
644.1316	1	10	207.7	207.7	1	52	0	0	1
645.2648	1	10	226.5	226.5	1	52	3.4925e-10	0	2
646.4314	1	10	227.9	227.9	1	52	-1.1642e-10	0	3
647.7314	1	10	255.9	255.9	1	52	0	0	4
649.0312	1	10	251.9	251.9	1	52	-0.1	0	5
650.3312	1	21	184	184	1	52	0.1	0	0
651.6644	1	10	18.7	18.7	1	52	-0.1	0	1
652.8644	1	10	226.8	226.8	1	52	0.1	0	2
654.0976	1	10	273.4	273.4	1	52	-0.1	0	3
655.131	1	10	312.2	312.2	1	52	0.2	0	4
656.2642	1	10	218.9	218.9	1	52	-0.1	0	5
657.4974	1	10	105.6	105.6	1	52	-0.1	0	6
658.6474	1	10	315.6	315.6	1	52	0.1	0	7
659.7974	1	21	-99	-99	1	52	0.1	0	0
669.8534	1	82	n/a	n/a	1	0	-0.2	0	0
669.8904	1	82	n/a	n/a	1	0	0	0	0
670.1354	1	82	n/a	n/a	1	0	0	0	0
670.5444	1	82	n/a	n/a	1	0	0	0	0
670.8184	1	82	n/a	n/a	1	0	0	0	0
670.8534	1	82	n/a	n/a	1	0	-0.1	0	0
670.9554	1	82	n/a	n/a	1	0	0	0	0
671.0074	1	82	n/a	n/a	1	0	0	0	0
671.2614	1	82	n/a	n/a	1	0	0	0	0
671.5974	1	82	n/a	n/a	1	0	0	0	0
672.9966	1	10	254.1	254.1	1	50	0.2	0	1
674.2464	1	21	-99	-99	1	50	-0.1	0	0
675.3964	1	10	254.3	254.3	1	50	0.1	0	1
676.563	1	10	255.6	255.6	1	50	-1.1642e-10	0	2
677.8796	1	10	283	283	1	50	-1.1642e-10	0	3
679.0794	1	10	235	235	1	50	-0.2	0	4
680.3628	1	10	295.7	295.7	1	50	0.2	0	5
681.646	1	21	196.4	196.4	1	50	-0.1	0	0
682.8126	1	10	229.8	229.8	1	50	-1.1642e-10	0	1
684.0458	1	10	308.6	308.6	1	50	3.4925e-10	0	2
685.3124	1	10	210	210	1	50	-1.1642e-10	0	3
686.6124	1	10	253.9	253.9	1	50	0	0	4
687.879	1	10	251.4	251.4	1	50	0.1	0	5
689.1456	1	21	-99	-99	1	50	-1.1642e-10	0	0
690.2956	1	10	218.7	218.7	1	50	0	0	1
691.4454	1	21	252.8	252.8	1	50	-0.1	0	0
692.7454	1	10	200.9	200.9	1	50	0.1	0	1
693.9286	1	10	249.6	249.6	1	50	-0.1	0	2
695.2286	1	10	293.6	293.6	1	50	0.1	0	3
696.4284	1	10	229.6	229.6	1	50	-0.2	0	4
697.239	1	82	n/a	n/a	1	0	0.1	0	0
697.289	1	82	n/a	n/a	1	0	0	0	0
697.373	1	82	n/a	n/a	1	0	0	0	0
697.565	1	82	n/a	n/a	1	0	0	0	0
697.892	1	82	n/a	n/a	1	0	0	0	0
698.239	1	82	n/a	n/a	1	0	0	0	0
698.266	1	82	n/a	n/a	1	0	0	0	0
698.695	1	82	n/a	n/a	1	0	0	0	0
698.84	1	82	n/a	n/a	1	0	0	0	0
699.195	1	82	n/a	n/a	1	0	0	0	0
700.2616	1	10	284.4	284.4	1	50	-1.1642e-10	0	1
701.4616	1	10	220.5	220.5	1	50	0.1	0	2
702.5282	1	10	241.9	241.9	1	50	-1.1642e-10	0	3
703.5948	1	10	247.3	247.3	1	50	4.6566e-10	0	4
704.8946	1	10	211.3	211.3	1	50	-0.1	0	5
706.1946	1	21	1247.3	1247.3	1	50	0	0	0
707.4612	1	10	-99	-99	1	50	3.4925e-10	0	1
708.7278	1	21	10.2	10.2	1	50	0.1	0	0
709.861	1	10	236.8	236.8	1	50	-0.1	0	1
710.9942	1	21	-99	-99	1	50	-0.1	0	0
712.2608	1	10	204.9	204.9	1	50	0	0	1
713.5274	1	21	234.3	234.3	1	50	-1.1642e-10	0	0
714.644	1	10	269.6	269.6	1	50	-1.1642e-10	0	1
715.694	1	10	323.7	323.7	1	50	0.1	0	2
716.7772	1	10	264.4	264.4	1	50	-0.1	0	3
717.8606	1	21	-99	-99	1	50	0.2	0	0
719.0938	1	10	203.8	203.8	1	50	-0.1	0	1
720.1938	1	10	239.8	239.8	1	50	0	0	2
721.3936	1	10	223.9	223.9	1	50	-0.1	0	3
722.4436	1	10	246	246	1	50	0.1	0	4
723.185	1	82	n/a	n/a	1	0	-0.1	0	0
723.616	1	82	n/a	n/a	1	0	0	0	0
723.666	1	82	n/a	n/a	1	0	0	0	0
723.763	1	82	n/a	n/a	1	0	0	0	0
724.056	1	82	n/a	n/a	1	0	0	0	0
724.185	1	82	n/a	n/a	1	0	0	0	0
724.239	1	82	n/a	n/a	1	0	0	0	0
724.387	1	82	n/a	n/a	1	0	0	0	0
724.6392	1	82	n/a	n/a	1	0	0.1	0	0
724.659	1	82	n/a	n/a	1	0	-0.1	0	0
726.36	1	10	233.4	233.4	1	50	0	0	1
727.6432	1	21	-99	-99	1	50	2.3283e-10	0	0
728.8432	1	10	230.1	230.1	1	50	0	0	1
729.8932	1	10	396.2	396.2	1	50	0.1	0	2
731.0264	1	10	270.9	270.9	1	50	-0.1	0	3
732.1096	1	10	211.7	211.7	1	50	2.3283e-10	0	4
733.143	1	10	282.3	282.3	1	50	0.1	0	5
734.3096	1	10	299.7	299.7	1	50	-1.1642e-10	0	6
735.4762	1	10	285.1	285.1	1	50	3.4925e-10	0	7
736.6428	1	21	-99	-99	1	50	0	0	0
737.7426	1	10	242.5	242.5	1	50	-0.1	0	1
739.026	1	10	31.2	31.2	1	50	0.1	0	2
740.2592	1	10	61.9	61.9	1	50	-0.1	0	3
741.5758	1	10	89.4	89.4	1	50	0.1	0	4
742.609	1	10	256	256	1	50	-0.1	0	5
743.7756	1	10	257.4	257.4	1	50	3.4925e-10	0	6
744.8922	1	10	292.8	292.8	1	50	-1.1642e-10	0	7
746.0088	1	21	264.2	264.2	1	50	0	0	0
747.0588	1	10	238.1	238.1	1	50	0	0	1
748.092	1	10	228.9	228.9	1	50	-2.3283e-10	0	2
748.9574	1	82	n/a	n/a	1	0	-0.1	0	0
749.0094	1	82	n/a	n/a	1	0	0	0	0
749.1034	1	82	n/a	n/a	1	0	0	0	0
749.3004	1	82	n/a	n/a	1	0	0	0	0
749.5584	1	82	n/a	n/a	1	0	0	0	0
749.9576	1	82	n/a	n/a	1	0	0.2	0	0
750.1866	1	82	n/a	n/a	1	0	0	0	0
750.2096	1	82	n/a	n/a	1	0	0	0	0
750.2666	1	82	n/a	n/a	1	0	0	0	0
750.6416	1	82	n/a	n/a	1	0	0	0	0
752.1418	1	10	259	259	1	50	-0.1	0	1
753.1752	1	10	233.7	233.7	1	50	0.1	0	2
754.4416	1	10	183.1	183.1	1	50	-0.2	0	3
755.7082	1	21	-99	-99	1	50	-1.1642e-10	0	0
756.8082	1	10	232.5	232.5	1	50	0.1	0	1
757.9914	1	10	9.2	9.2	1	50	-0.1	0	2
759.158	1	10	138.6	138.6	1	50	3.4925e-10	0	3
760.2746	1	10	254	254	1	50	-1.1642e-10	0	4
761.5246	1	10	204	204	1	50	0.1	0	5
762.7746	1	21	218.1	218.1	1	50	0.1	0	0
763.8578	1	10	222.8	222.8	1	50	-0.1	0	1
765.1578	1	10	250.9	250.9	1	50	0.1	0	2
766.291	1	10	77.5	77.5	1	50	-0.1	0	3
767.5576	1	10	90.9	90.9	1	50	3.4925e-10	0	4
768.7408	1	10	283.7	283.7	1	50	-1.1642e-10	0	5
769.9242	1	21	252.3	252.3	1	50	0.1	0	0
771.224	1	10	168.4	168.4	1	50	-0.1	0	1
772.3572	1	10	235.1	235.1	1	50	-0.1	0	2
773.5238	1	10	252.5	252.5	1	50	0	0	3
774.7904	1	10	249.8	249.8	1	50	-1.1642e-10	0	4
775.5742	1	82	n/a	n/a	1	0	0.2	0	0
775.6372	1	82	n/a	n/a	1	0	0	0	0
775.7302	1	82	n/a	n/a	1	0	0	0	0
775.8592	1	82	n/a	n/a	1	0	0	0	0
776.1502	1	82	n/a	n/a	1	0	0	0	0
776.5742	1	82	n/a	n/a	1	0	-0.1	0	0
776.6032	1	82	n/a	n/a	1	0	0	0	0
776.8962	1	82	n/a	n/a	1	0	0	0	0
777.0552	1	82	n/a	n/a	1	0	0	0	0
777.3932	1	82	n/a	n/a	1	0	0	0	0
778.6402	1	10	192	192	1	50	-0.1	0	1
779.7068	1	10	213.3	213.3	1	50	0	0	2
780.9568	1	10	35.4	35.4	1	50	0.1	0	3
782.2068	1	21	97.5	97.5	1	50	0.1	0	0
783.4234	1	10	32.9	32.9	1	50	-1.1642e-10	0	1
784.54	1	10	196.2	196.2	1	50	-1.1642e-10	0	2
785.7732	1	10	164.7	164.7	1	50	17.7	0	3
786.8564	1	10	101	101	1	50	-17.9	0	4
788.173	1	10	1283	1283	1	50	3.4925e-10	0	5
789.4896	1	21	-99	-99	1	50	0.1	0	0
790.8062	1	10	41.8	41.8	1	50	-1.1642e-10	0	1
792.1228	1	21	133.2	133.2	1	50	0	0	0
793.206	1	10	345.9	345.9	1	50	-0.1	0	1
794.2894	1	21	222.5	222.5	1	50	0.1	0	0
795.406	1	10	225.9	225.9	1	50	-1.1642e-10	0	1
796.6558	1	10	224	224	1	50	-0.1	0	2
797.7058	1	10	358.1	358.1	1	50	0.1	0	3
798.989	1	10	338.7	338.7	1	50	-0.1	0	4
800.2224	1	10	289.4	289.4	1	50	0.1	0	5
801.289	1	10	294.8	294.8	1	50	-1.1642e-10	0	6
818.0664	1	81	n/a	n/a	1	0	1.1642e-10	0	0
818.2664	1	81	n/a	n/a	1	0	0	0	0
818.4664	1	81	n/a	n/a	1	0	0	0	0
818.6664	1	81	n/a	n/a	1	0	0	0	0
818.8664	1	81	n/a	n/a	1	0	0	0	0
819.0664	1	81	n/a	n/a	1	0	0	0	0
819.2664	1	81	n/a	n/a	1	0	0	0	0
819.4664	1	81	n/a	n/a	1	0	0	0	0
819.6664	1	81	n/a	n/a	1	0	0	0	0
819.8664	1	81	n/a	n/a	1	0	0	0	0
821.171	1	10	252.3	252.3	1	51	-0.1	0	1
822.321	1	10	302.2	302.2	1	51	0	0	2
823.4042	1	10	290.9	290.9	1	51	-0.1	0	3
824.5542	1	10	197	197	1	51	0.1	0	4
825.8374	1	10	113.8	113.8	1	51	-1.1642e-10	0	5
827.1208	1	21	-99	-99	1	51	0.1	0	0
828.404	1	10	187.1	187.1	1	51	-0.1	0	1
829.6206	1	10	234.5	234.5	1	51	-1.1642e-10	0	2
830.7538	1	10	269.2	269.2	1	51	-1.1642e-10	0	3
831.9038	1	10	175.2	175.2	1	51	0	0	4
833.037	1	10	258	258	1	51	2.3283e-10	0	5
834.1702	1	21	-99	-99	1	51	-0.1	0	0
835.4036	1	10	67.4	67.4	1	51	0.1	0	1
836.5702	1	10	212.7	212.7	1	51	-1.1642e-10	0	2
837.67	1	10	72.8	72.8	1	51	-0.1	0	3
838.8366	1	10	122.2	122.2	1	51	-1.1642e-10	0	4
840.07	1	10	-99	-99	1	51	0.1	0	5
841.3366	1	10	86.2	86.2	1	51	-1.1642e-10	0	6
842.6198	1	10	259	259	1	51	-1.1642e-10	0	7
843.903	1	21	-99	-99	1	51	-0.1	0	0
844.7138	1	81	n/a	n/a	1	0	0.2	0	0
844.9138	1	81	n/a	n/a	1	0	0	0	0
845.1138	1	81	n/a	n/a	1	0	0	0	0
845.3138	1	81	n/a	n/a	1	0	0	0	0
845.5138	1	81	n/a	n/a	1	0	0	0	0
845.7138	1	81	n/a	n/a	1	0	-0.1	0	0
845.9138	1	81	n/a	n/a	1	0	0	0	0
846.1138	1	81	n/a	n/a	1	0	0	0	0
846.3138	1	81	n/a	n/a	1	0	0	0	0
846.5138	1	81	n/a	n/a	1	0	0	0	0
847.8362	1	10	242.5	242.5	1	51	0	0	1
848.9194	1	10	231.2	231.2	1	51	-0.1	0	2
850.0526	1	10	121.9	121.9	1	51	-2.3283e-10	0	3
851.186	1	21	236.6	236.6	1	51	0.1	0	0
852.3858	1	10	92.7	92.7	1	51	-0.1	0	1
853.5858	1	21	-99	-99	1	51	0.1	0	0
854.7524	1	10	126.1	126.1	1	51	-1.1642e-10	0	1
855.8024	1	10	228.1	228.1	1	51	0	0	2
856.9856	1	10	260.9	260.9	1	51	2.3283e-10	0	3
858.1856	1	10	308.9	308.9	1	51	0	0	4
859.2854	1	10	264.9	264.9	1	51	-0.1	0	5
860.602	1	10	228.3	228.3	1	51	-1.1642e-10	0	6
861.8854	1	10	209	209	1	51	0.1	0	7
863.1686	1	21	205.8	205.8	1	51	2.3283e-10	0	0
864.2852	1	10	273.1	273.1	1	51	-1.1642e-10	0	1
865.5184	1	10	223.8	223.8	1	51	-0.1	0	2
866.685	1	10	225.2	225.2	1	51	-1.1642e-10	0	3
867.8182	1	10	275.9	275.9	1	51	-0.1	0	4
869.1016	1	10	208.6	208.6	1	51	0.2	0	5
870.4014	1	10	252.7	252.7	1	51	-0.1	0	6
871.282	1	81	n/a	n/a	1	0	0.1	0	0
871.482	1	81	n/a	n/a	1	0	0	0	0
871.682	1	81	n/a	n/a	1	0	0	0	0
871.882	1	81	n/a	n/a	1	0	0	0	0
872.082	1	81	n/a	n/a	1	0	0	0	0
872.282	1	81	n/a	n/a	1	0	0	0	0
872.482	1	81	n/a	n/a	1	0	0	0	0
872.682	1	81	n/a	n/a	1	0	0	0	0
872.882	1	81	n/a	n/a	1	0	0	0	0
873.082	1	81	n/a	n/a	1	0	0	0	0
874.3346	1	10	303.5	303.5	1	51	-1.1642e-10	0	1
875.4846	1	10	225.5	225.5	1	51	0	0	2
876.5344	1	10	295.6	295.6	1	51	-0.1	0	3
877.601	1	10	268.9	268.9	1	51	-1.1642e-10	0	4
878.9176	1	10	328.3	328.3	1	51	-1.1642e-10	0	5
880.2176	1	10	212.4	212.4	1	51	0.1	0	6
881.4508	1	10	275.1	275.1	1	51	-0.1	0	7
882.684	1	21	-99	-99	1	51	-0.1	0	0
884.0006	1	10	237.1	237.1	1	51	-1.1642e-10	0	1
885.3172	1	10	184.6	184.6	1	51	0.1	0	2
886.3506	1	10	335.3	335.3	1	51	0.1	0	3
887.3838	1	10	245.9	245.9	1	51	-0.1	0	4
888.6838	1	10	210	210	1	51	0.1	0	5
889.9836	1	21	270.1	270.1	1	51	-0.1	0	0
891.1502	1	10	239.5	239.5	1	51	-1.1642e-10	0	1
892.4336	1	10	204.1	204.1	1	51	0.1	0	2
893.65	1	10	219.5	219.5	1	51	-0.2	0	3
894.8334	1	10	268.2	268.2	1	51	0.1	0	4
895.9	1	10	481.6	481.6	1	51	-1.1642e-10	0	5
896.9666	1	21	-99	-99	1	51	-1.1642e-10	0	0
897.7042	1	81	n/a	n/a	1	0	-1.1642e-10	0	0
897.9042	1	81	n/a	n/a	1	0	0	0	0
898.1042	1	81	n/a	n/a	1	0	0	0	0
898.3042	1	81	n/a	n/a	1	0	0	0	0
898.5042	1	81	n/a	n/a	1	0	0	0	0
898.7042	1	81	n/a	n/a	1	0	-0.1	0	0
898.9042	1	81	n/a	n/a	1	0	0	0	0
899.1042	1	81	n/a	n/a	1	0	0	0	0
899.3042	1	81	n/a	n/a	1	0	0	0	0
899.5042	1	81	n/a	n/a	1	0	0	0	0
900.8996	1	10	233.7	233.7	1	51	1.1642e-10	0	1
902.1996	1	21	21.8	21.8	1	51	0.1	0	0
903.4496	1	10	19.9	19.9	1	51	0.1	0	1
904.7162	1	10	209.3	209.3	1	51	-1.1642e-10	0	2
905.9494	1	10	239.9	239.9	1	51	-0.1	0	3
907.1826	1	21	-99	-99	1	51	-0.1	0	0
908.2992	1	10	242	242	1	51	-1.1642e-10	0	1
909.3658	1	10	247.4	247.4	1	51	4.6566e-10	0	2
910.6324	1	10	84.7	84.7	1	51	-1.1642e-10	0	3
911.899	1	21	18.2	18.2	1	51	0.1	0	0
913.0156	1	10	229.6	229.6	1	51	-1.1642e-10	0	1
914.2156	1	10	133.6	133.6	1	51	0	0	2
915.3154	1	10	201.6	201.6	1	51	-0.1	0	3
916.4154	1	10	253.6	253.6	1	51	0	0	4
917.6654	1	10	203.7	203.7	1	51	0.1	0	5
918.7486	1	10	240.5	240.5	1	51	-2.3283e-10	0	6
919.7818	1	10	119.2	119.2	1	51	-0.1	0	7
920.8152	1	21	-99	-99	1	51	0.1	0	0
921.9818	1	10	63.2	63.2	1	51	0	0	1
923.0816	1	10	147.3	147.3	1	51	-0.1	0	2
924.0352	1	81	n/a	n/a	1	0	0.1	0	0
924.2352	1	81	n/a	n/a	1	0	0	0	0
924.4352	1	81	n/a	n/a	1	0	0	0	0
924.6352	1	81	n/a	n/a	1	0	0	0	0
924.8352	1	81	n/a	n/a	1	0	0	0	0
925.0352	1	81	n/a	n/a	1	0	0	0	0
925.2352	1	81	n/a	n/a	1	0	0	0	0
925.4352	1	81	n/a	n/a	1	0	0	0	0
925.6352	1	81	n/a	n/a	1	0	0	0	0
925.8352	1	81	n/a	n/a	1	0	0	0	0
927.0314	1	10	213.4	213.4	1	51	-0.1	0	1
928.098	1	10	218.8	218.8	1	51	-1.1642e-10	0	2
929.1814	1	10	159.4	159.4	1	51	0.1	0	3
930.348	1	10	144.8	144.8	1	51	-1.1642e-10	0	4
931.4312	1	10	213.5	213.5	1	51	-0.1	0	5
932.4978	1	10	282.9	282.9	1	51	4.6566e-10	0	6
933.8144	1	10	-99	-99	1	51	0.1	0	7
935.131	1	21	177.7	177.7	1	51	-1.1642e-10	0	0
936.3808	1	10	95.7	95.7	1	51	-0.2	0	1
937.6474	1	10	109.1	109.1	1	51	-1.1642e-10	0	2
938.7974	1	10	239.1	239.1	1	51	0.1	0	3
939.964	1	10	192.5	192.5	1	51	-1.1642e-10	0	4
941.2972	1	10	109	109	1	51	17.7	0	5
942.5638	1	10	280.7	280.7	1	51	-17.7	0	6
943.6304	1	10	302	302	1	51	-1.1642e-10	0	7
944.697	1	21	243.3	243.3	1	51	-0.1	0	0
945.7304	1	10	202.1	202.1	1	51	0.2	0	1
946.7636	1	21	240.8	240.8	1	51	-0.1	0	0
948.0302	1	10	62.1	62.1	1	51	-1.1642e-10	0	1
949.2802	1	10	44.2	44.2	1	51	0.1	0	2
1004.2696	1	82	n/a	n/a	1	0	-0.3	0	0
1004.6056	1	82	n/a	n/a	1	0	0	0	0
1004.7346	1	82	n/a	n/a	1	0	0	0	0
1005.1396	1	82	n/a	n/a	1	0	0	0	0
1005.1736	1	82	n/a	n/a	1	0	0	0	0
1005.2698	1	82	n/a	n/a	1	0	0.2	0	0
1005.5668	1	82	n/a	n/a	1	0	0	0	0
1005.9488	1	82	n/a	n/a	1	0	0	0	0
1006.0896	1	82	n/a	n/a	1	0	-0.2	0	0
1006.1526	1	82	n/a	n/a	1	0	0	0	0
1007.46	1	10	279	279	1	52	0.1	0	1
1008.6432	1	10	295.6	295.6	1	52	-0.1	0	2
1009.8098	1	10	169	169	1	52	0	0	3
1011.1264	1	10	292.4	292.4	1	52	-1.1642e-10	0	4
1012.2598	1	10	215.2	215.2	1	52	0.2	0	5
1013.493	1	10	247.6	247.6	1	52	17.7	0	6
1014.6262	1	10	232.6	232.6	1	52	-17.8	0	7
1015.7928	1	21	-99	-99	1	52	-0.1	0	0
1017.0094	1	10	201.4	201.4	1	52	0.1	0	1
1018.1094	1	10	253.3	253.3	1	52	0	0	2
1019.3094	1	10	157.4	157.4	1	52	0.1	0	3
1020.5092	1	21	141.5	141.5	1	52	-0.1	0	0
1021.7092	1	10	189.5	189.5	1	52	0	0	1
1022.8424	1	10	240.2	240.2	1	52	-1.1642e-10	0	2
1023.9258	1	10	228.9	228.9	1	52	0.1	0	3
1025.009	1	10	281.6	281.6	1	52	-0.1	0	4
1026.059	1	10	303.7	303.7	1	52	0.1	0	5
1027.2922	1	10	320.1	320.1	1	52	17.7	0	6
1028.392	1	10	292.2	292.2	1	52	-0.1	0	7
1029.492	1	21	-99	-99	1	52	0	0	0
1030.5684	1	82	n/a	n/a	1	0	-17.7	0	0
1030.6014	1	82	n/a	n/a	1	0	0	0	0
1030.7044	1	82	n/a	n/a	1	0	0	0	0
1030.9144	1	82	n/a	n/a	1	0	0	0	0
1030.9704	1	82	n/a	n/a	1	0	0	0	0
1031.5684	1	82	n/a	n/a	1	0	0	0	0
1031.5944	1	82	n/a	n/a	1	0	0	0	0
1031.9104	1	82	n/a	n/a	1	0	0	0	0
1032.3074	1	82	n/a	n/a	1	0	0	0	0
1032.3684	1	82	n/a	n/a	1	0	0	0	0
1033.7752	1	10	251.3	251.3	1	52	0.1	0	1
1034.8918	1	10	238.7	238.7	1	52	4.6566e-10	0	2
1035.9916	1	10	114.7	114.7	1	52	-0.2	0	3
1037.0916	1	21	38.7	38.7	1	52	0.1	0	0
1038.2416	1	10	-99	-99	1	52	0	0	1
1039.3914	1	21	138.8	138.8	1	52	-0.1	0	0
1040.5414	1	10	92.9	92.9	1	52	0.1	0	1
1041.6914	1	10	222.8	222.8	1	52	0	0	2
1042.908	1	10	222.2	222.2	1	52	-1.1642e-10	0	3
1044.1244	1	21	-99	-99	1	52	-0.1	0	0
1045.3244	1	10	189.7	189.7	1	52	0	0	1
1046.5244	1	21	221.7	221.7	1	52	0.1	0	0
1047.6576	1	10	192.4	192.4	1	52	-0.1	0	1
1048.7076	1	10	534.5	534.5	1	52	0.1	0	2
1049.9908	1	10	211.2	211.2	1	52	-0.1	0	3
1051.0574	1	10	216.5	216.5	1	52	-2.3283e-10	0	4
1052.3574	1	10	36.6	36.6	1	52	0.1	0	5
1053.6572	1	21	-99	-99	1	52	-0.1	0	0
1054.7738	1	10	100.1	100.1	1	52	0	0	1
1056.0738	1	10	-99	-99	1	52	0	0	2
1056.8144	1	82	n/a	n/a	1	0	-0.1	0	0
1056.9064	1	82	n/a	n/a	1	0	0	0	0
1057.2124	1	82	n/a	n/a	1	0	0	0	0
1057.3744	1	82	n/a	n/a	1	0	0	0	0
1057.4314	1	82	n/a	n/a	1	0	0	0	0
1057.8146	1	82	n/a	n/a	1	0	0.2	0	0
1058.0646	1	82	n/a	n/a	1	0	0	0	0
1058.2316	1	82	n/a	n/a	1	0	0	0	0
1058.4366	1	82	n/a	n/a	1	0	0	0	0
1058.7726	1	82	n/a	n/a	1	0	0	0	0
1059.9402	1	10	229.6	229.6	1	52	-0.1	0	1
1060.9736	1	10	236.2	236.2	1	52	0.1	0	2
1062.1402	1	10	173.6	173.6	1	52	2.3283e-10	0	3
1063.3066	1	21	239	239	1	52	-0.2	0	0
1064.6066	1	10	27.1	27.1	1	52	0.1	0	1
1065.6398	1	10	209.7	209.7	1	52	-0.1	0	2
1066.7398	1	10	149.8	149.8	1	52	0.1	0	3
1067.8398	1	21	201.9	201.9	1	52	0.1	0	0
1069.1064	1	10	-99	-99	1	52	-2.3283e-10	0	1
1070.273	1	10	88.6	88.6	1	52	0	0	2
1071.3228	1	10	254.6	254.6	1	52	-0.2	0	3
1072.6062	1	10	363.4	363.4	1	52	0.2	0	4
1073.856	1	10	201.4	201.4	1	52	-0.2	0	5
1075.106	1	21	215.4	215.4	1	52	0.1	0	0
1076.2726	1	10	184.8	184.8	1	52	4.6566e-10	0	1
1077.5058	1	10	231.5	231.5	1	52	-0.1	0	2
1078.7392	1	10	246.3	246.3	1	52	0.2	0	3
1079.9724	1	21	228.9	228.9	1	52	-0.1	0	0
1081.289	1	10	176.3	176.3	1	52	0	0	1
1082.6056	1	21	203.7	203.7	1	52	4.6566e-10	0	0
1083.709	1	82	n/a	n/a	1	0	-0.1	0	0
1084.003	1	82	n/a	n/a	1	0	0	0	0
1084.334	1	82	n/a	n/a	1	0	0	0	0
1084.381	1	82	n/a	n/a	1	0	0	0	0
1084.621	1	82	n/a	n/a	1	0	0	0	0
1084.7098	1	82	n/a	n/a	1	0	-2.3283e-10	0	0
1085.1028	1	82	n/a	n/a	1	0	0	0	0
1085.1668	1	82	n/a	n/a	1	0	0	0	0
1085.2888	1	82	n/a	n/a	1	0	0	0	0
1085.4588	1	82	n/a	n/a	1	0	0	0	0
1086.6554	1	10	265.9	265.9	1	52	0.2	0	1
1087.7386	1	10	238.5	238.5	1	52	-0.1	0	2
1089.0386	1	10	74.6	74.6	1	52	0.1	0	3
1090.155	1	10	222	222	1	52	-0.2	0	4
1091.255	1	10	258	258	1	52	0	0	5
1092.4382	1	10	290.8	290.8	1	52	-2.3283e-10	0	6
1093.4716	1	10	281.4	281.4	1	52	0.1	0	7
1094.5048	1	21	-99	-99	1	52	-0.1	0	0
1095.6214	1	10	131.5	131.5	1	52	-2.3283e-10	0	1
1096.888	1	10	32.9	32.9	1	52	4.6566e-10	0	2
1098.2046	1	10	-99	-99	1	52	0	0	3
1099.4878	1	10	169	169	1	52	-2.3283e-10	0	4
1100.8044	1	10	244.4	244.4	1	52	-2.3283e-10	0	5
1101.9044	1	10	248.5	248.5	1	52	0.1	0	6
1103.1044	1	10	104.4	104.4	1	52	0	0	7
1104.3042	1	21	104.5	104.5	1	52	-0.1	0	0
1105.4208	1	10	187.9	187.9	1	52	0	0	1
1106.5208	1	10	224	224	1	52	0.1	0	2
1107.7708	1	10	1261.9	1261.9	1	52	0	0	3
1109.0874	1	10	-99	-99	1	52	-2.3283e-10	0	4
1110.074	1	82	n/a	n/a	1	0	-0.1	0	0
1110.25	1	82	n/a	n/a	1	0	0	0	0
1110.484	1	82	n/a	n/a	1	0	0	0	0
1110.852	1	82	n/a	n/a	1	0	0	0	0
1110.93	1	82	n/a	n/a	1	0	0	0	0
1111.074	1	82	n/a	n/a	1	0	0	0	0
1111.301	1	82	n/a	n/a	1	0	0	0	0
1111.466	1	82	n/a	n/a	1	0	0	0	0
1111.758	1	82	n/a	n/a	1	0	0	0	0
1111.847	1	82	n/a	n/a	1	0	0	0	0
1113.2704	1	10	258.1	258.1	1	52	-4.6566e-10	0	1
1114.5704	1	21	254.2	254.2	1	52	0.1	0	0
1115.9036	1	10	106.7	106.7	1	52	17.7	0	1
1117.1868	1	10	197.6	197.6	1	52	-17.8	0	2
1118.27	1	10	362.3	362.3	1	52	-0.1	0	3
1119.57	1	10	6.4	6.4	1	52	0.1	0	4
1120.67	1	10	218.4	218.4	1	52	0.1	0	5
1121.9698	1	10	230.5	230.5	1	52	-0.1	0	6
1123.0032	1	10	333.2	333.2	1	52	0.1	0	7
1124.0364	1	21	-99	-99	1	52	-0.1	0	0
1125.1696	1	10	166.6	166.6	1	52	-0.1	0	1
1126.303	1	21	201.3	201.3	1	52	0.2	0	0
1127.3862	1	10	238	238	1	52	-0.1	0	1
1128.5694	1	10	238.7	238.7	1	52	-0.1	0	2
1129.8028	1	10	-99	-99	1	52	0.2	0	3
1130.8526	1	10	195.4	195.4	1	52	-0.2	0	4
1132.1192	1	10	112.8	112.8	1	52	-2.3283e-10	0	5
1133.4192	1	10	204.9	204.9	1	52	0.1	0	6
1134.7024	1	10	297.6	297.6	1	52	-2.3283e-10	0	7
1135.9858	1	21	-99	-99	1	52	0.1	0	0
1143.1104	1	81	n/a	n/a	1	0	-0.1	0	0
1143.3104	1	81	n/a	n/a	1	0	0	0	0
1143.5104	1	81	n/a	n/a	1	0	0	0	0
1143.7104	1	81	n/a	n/a	1	0	0	0	0
1143.9104	1	81	n/a	n/a	1	0	0	0	0
1144.1104	1	81	n/a	n/a	1	0	0	0	0
1144.3104	1	81	n/a	n/a	1	0	0	0	0
1144.5104	1	81	n/a	n/a	1	0	0	0	0
1144.7104	1	81	n/a	n/a	1	0	0	0	0
1144.9104	1	81	n/a	n/a	1	0	0	0	0
1146.2352	1	10	220.7	220.7	1	50	0.1	0	1
1147.4684	1	21	-99	-99	1	50	-0.1	0	0
1148.7016	1	10	202.2	202.2	1	50	4.6566e-10	0	1
1149.9016	1	10	266.1	266.1	1	50	0	0	2
1151.2182	1	10	101	101	1	50	-2.3283e-10	0	3
1152.5348	1	21	224.9	224.9	1	50	0	0	0
1153.7014	1	10	242.3	242.3	1	50	0.1	0	1
1154.9846	1	10	239	239	1	50	-0.1	0	2
1156.1678	1	10	207.7	207.7	1	50	-0.1	0	3
1157.4512	1	10	156.5	156.5	1	50	0.2	0	4
1158.6344	1	10	301.1	301.1	1	50	-0.1	0	5
1159.8176	1	21	-99	-99	1	50	-0.1	0	0
1160.9176	1	10	177.9	177.9	1	50	0.1	0	1
1162.0842	1	10	227.3	227.3	1	50	-2.3283e-10	0	2
1163.1342	1	10	297.3	297.3	1	50	0.1	0	3
1164.4006	1	10	278.7	278.7	1	50	-0.2	0	4
1165.6172	1	10	101	101	1	50	-2.3283e-10	0	5
1166.8338	1	21	-99	-99	1	50	0	0	0
1167.9004	1	10	218.8	218.8	1	50	2.3283e-10	0	1
1169.217	1	10	150.2	150.2	1	50	0	0	2
1170.2166	1	81	n/a	n/a	1	0	0.1	0	0
1170.4166	1	81	n/a	n/a	1	0	0	0	0
1170.6166	1	81	n/a	n/a	1	0	0	0	0
1170.8166	1	81	n/a	n/a	1	0	0	0	0
1171.0166	1	81	n/a	n/a	1	0	0	0	0
1171.2166	1	81	n/a	n/a	1	0	-0.1	0	0
1171.4166	1	81	n/a	n/a	1	0	0	0	0
1171.6166	1	81	n/a	n/a	1	0	0	0	0
1171.8166	1	81	n/a	n/a	1	0	0	0	0
1172.0166	1	81	n/a	n/a	1	0	0	0	0
1173.4334	1	10	237.7	237.7	1	50	0	0	1
1174.75	1	21	-99	-99	1	50	0	0	0
1175.85	1	10	237.1	237.1	1	50	0	0	1
1177.05	1	10	221.1	221.1	1	50	0.1	0	2
1178.2498	1	10	269.2	269.2	1	50	-0.1	0	3
1179.3164	1	10	274.6	274.6	1	50	2.3283e-10	0	4
1180.6164	1	10	190.6	190.6	1	50	0	0	5
1181.9164	1	21	26.6	26.6	1	50	0.1	0	0
1183.2162	1	10	1238.7	1238.7	1	50	-0.1	0	1
1184.4828	1	10	-99	-99	1	50	0	0	2
1185.7494	1	10	177.5	177.5	1	50	2.3283e-10	0	3
1186.8994	1	10	259.5	259.5	1	50	0.1	0	4
1187.9992	1	10	247.5	247.5	1	50	-0.2	0	5
1189.0992	1	21	219.6	219.6	1	50	0.1	0	0
1190.2992	1	10	155.7	155.7	1	50	0.1	0	1
1191.5158	1	10	219	219	1	50	0	0	2
1192.5656	1	10	385	385	1	50	-0.2	0	3
1193.6156	1	21	263.1	263.1	1	50	0.1	0	0
1194.9322	1	10	210.5	210.5	1	50	-2.3283e-10	0	1
1196.2488	1	21	253.8	253.8	1	50	0	0	0
1197.0212	1	81	n/a	n/a	1	0	0	0	0
1197.2212	1	81	n/a	n/a	1	0	0	0	0
1197.4212	1	81	n/a	n/a	1	0	0	0	0
1197.6212	1	81	n/a	n/a	1	0	0	0	0
1197.8212	1	81	n/a	n/a	1	0	0	0	0
1198.0212	1	81	n/a	n/a	1	0	0	0	0
1198.2212	1	81	n/a	n/a	1	0	0	0	0
1198.4212	1	81	n/a	n/a	1	0	0	0	0
1198.6212	1	81	n/a	n/a	1	0	0	0	0
1198.8212	1	81	n/a	n/a	1	0	0	0	0
1200.1152	1	10	227.3	227.3	1	50	0	0	1
1201.3652	1	10	289.3	289.3	1	50	0	0	2
1202.5984	1	10	304.1	304.1	1	50	2.3283e-10	0	3
1203.915	1	10	267.5	267.5	1	50	0	0	4
1205.1316	1	10	218.8	218.8	1	50	0	0	5
1206.2648	1	10	285.5	285.5	1	50	-0.1	0	6
1207.3482	1	10	226.2	226.2	1	50	0.1	0	7
1208.4314	1	21	-99	-99	1	50	2.3283e-10	0	0
1209.5146	1	10	155.7	155.7	1	50	-0.1	0	1
1210.6646	1	10	173.7	173.7	1	50	0.1	0	2
1211.8812	1	10	189.1	189.1	1	50	-2.3283e-10	0	3
1213.0978	1	21	188.5	188.5	1	50	0	0	0
1214.131	1	10	243.2	243.2	1	50	-0.1	0	1
1215.1644	1	21	-99	-99	1	50	0.1	0	0
1216.3642	1	10	201.9	201.9	1	50	-0.1	0	1
1217.5642	1	10	234	234	1	50	0.1	0	2
1218.7642	1	10	170	170	1	50	0	0	3
1219.964	1	21	-99	-99	1	50	-0.1	0	0
1221.1306	1	10	219.4	219.4	1	50	0	0	1
1222.164	1	10	306.1	306.1	1	50	0.1	0	2
1223.2494	1	81	n/a	n/a	1	0	0	0	0
1223.4494	1	81	n/a	n/a	1	0	0	0	0
1223.6494	1	81	n/a	n/a	1	0	0	0	0
1223.8494	1	81	n/a	n/a	1	0	0	0	0
1224.0494	1	81	n/a	n/a	1	0	0	0	0
1224.2494	1	81	n/a	n/a	1	0	0	0	0
1224.4494	1	81	n/a	n/a	1	0	0	0	0
1224.6494	1	81	n/a	n/a	1	0	0	0	0
1224.8494	1	81	n/a	n/a	1	0	0	0	0
1225.0494	1	81	n/a	n/a	1	0	0	0	0
1226.297	1	10	268.9	268.9	1	50	-0.1	0	1
1227.497	1	10	285	285	1	50	0.1	0	2
1228.6968	1	10	205	205	1	50	-0.1	0	3
1229.8134	1	10	208.4	208.4	1	50	-2.3283e-10	0	4
1230.98	1	10	161.8	161.8	1	50	0	0	5
1232.1466	1	21	-99	-99	1	50	0	0	0
1233.4632	1	10	14.6	14.6	1	50	-2.3283e-10	0	1
1234.5298	1	10	291.9	291.9	1	50	4.6566e-10	0	2
1235.6964	1	10	165.3	165.3	1	50	-2.3283e-10	0	3
1236.9964	1	10	49.4	49.4	1	50	0.1	0	4
1238.1796	1	10	130	130	1	50	-0.1	0	5
1239.363	1	21	226.7	226.7	1	50	0.1	0	0
1240.6296	1	10	208.1	208.1	1	50	0	0	1
1241.7628	1	10	242.8	242.8	1	50	-2.3283e-10	0	2
1243.046	1	10	191.5	191.5	1	50	-0.1	0	3
1244.0792	1	10	310.2	310.2	1	50	-0.1	0	4
1245.2626	1	10	215	215	1	50	0.2	0	5
1246.4458	1	21	135.7	135.7	1	50	-0.1	0	0
1247.4958	1	10	221.7	221.7	1	50	0.1	0	1
1248.7956	1	10	73.7	73.7	1	50	-0.2	0	2
1249.7994	1	81	n/a	n/a	1	0	0.2	0	0
1249.9994	1	81	n/a	n/a	1	0	0	0	0
1250.1994	1	81	n/a	n/a	1	0	0	0	0
1250.3994	1	81	n/a	n/a	1	0	0	0	0
1250.5994	1	81	n/a	n/a	1	0	0	0	0
1250.7994	1	81	n/a	n/a	1	0	-0.1	0	0
1250.9994	1	81	n/a	n/a	1	0	0	0	0
1251.1994	1	81	n/a	n/a	1	0	0	0	0
1251.3994	1	81	n/a	n/a	1	0	0	0	0
1251.5994	1	81	n/a	n/a	1	0	0	0	0
1252.9454	1	10	211.9	211.9	1	50	0	0	1
1254.112	1	10	117.3	117.3	1	50	0	0	2
1255.412	1	10	161.4	161.4	1	50	0.1	0	3
1256.7118	1	21	-99	-99	1	50	-0.2	0	0
1257.9452	1	10	156.1	156.1	1	50	0.2	0	1
1259.245	1	10	168.1	168.1	1	50	-0.2	0	2
1260.395	1	10	250.2	250.2	1	50	0.1	0	3
1261.6282	1	10	200.8	200.8	1	50	-0.1	0	4
1262.7948	1	10	186.2	186.2	1	50	0	0	5
1263.9114	1	10	317.7	317.7	1	50	0.1	0	6
1265.028	1	10	225	225	1	50	-0.1	0	7
1266.1446	1	21	-99	-99	1	50	0	0	0
1267.3946	1	10	178.4	178.4	1	50	0.1	0	1
1268.6946	1	10	14.5	14.5	1	50	0.1	0	2
1269.8612	1	10	95.9	95.9	1	50	-2.3283e-10	0	3
1271.0276	1	21	17.2	17.2	1	50	-0.2	0	0
1272.3276	1	10	-99	-99	1	50	0.1	0	1
1273.6276	1	21	9.3	9.3	1	50	0	0	0
1274.8774	1	10	101	101	1	50	-0.1	0	1
1276.1108	1	10	230	230	1	50	0.1	0	2
1295.7986	1	81	n/a	n/a	1	0	-0.1	0	0
1295.9986	1	81	n/a	n/a	1	0	0	0	0
1296.1986	1	81	n/a	n/a	1	0	0	0	0
1296.3986	1	81	n/a	n/a	1	0	0	0	0
1296.5986	1	81	n/a	n/a	1	0	0	0	0
1296.7986	1	81	n/a	n/a	1	0	0	0	0
1296.9986	1	81	n/a	n/a	1	0	0	0	0
1297.1986	1	81	n/a	n/a	1	0	0	0	0
1297.3986	1	81	n/a	n/a	1	0	0	0	0
1297.5986	1	81	n/a	n/a	1	0	0	0	0
1298.8094	1	10	234.9	234.9	1	51	0.1	0	1
1299.8926	1	10	335.6	335.6	1	51	-0.1	0	2
1301.1592	1	10	173	173	1	51	2.3283e-10	0	3
1302.4258	1	21	234.4	234.4	1	51	0	0	0
1303.5258	1	10	222.4	222.4	1	51	0.1	0	1
1304.6258	1	21	194.4	194.4	1	51	0	0	0
1305.7256	1	10	101	101	1	51	-0.1	0	1
1306.8922	1	10	167.9	167.9	1	51	2.3283e-10	0	2
1308.1422	1	10	229.9	229.9	1	51	0.1	0	3
1309.2088	1	10	283.3	283.3	1	51	4.6566e-10	0	4
1310.3754	1	10	300.7	300.7	1	51	-2.3283e-10	0	5
1311.6086	1	10	475.4	475.4	1	51	-0.1	0	6
1312.8752	1	10	200.7	200.7	1	51	2.3283e-10	0	7
1314.1418	1	21	134.1	134.1	1	51	0	0	0
1315.425	1	10	34.9	34.9	1	51	-2.3283e-10	0	1
1316.575	1	10	196.9	196.9	1	51	0	0	2
1317.8082	1	10	179.6	179.6	1	51	2.3283e-10	0	3
1319.0082	1	10	339.6	339.6	1	51	0	0	4
1320.2582	1	10	273.7	273.7	1	51	0.1	0	5
1321.508	1	21	-99	-99	1	51	-0.1	0	0
1322.3426	1	81	n/a	n/a	1	0	-0.1	0	0
1322.5426	1	81	n/a	n/a	1	0	0	0	0
1322.7426	1	81	n/a	n/a	1	0	0	0	0
1322.9426	1	81	n/a	n/a	1	0	0	0	0
1323.1426	1	81	n/a	n/a	1	0	0	0	0
1323.3428	1	81	n/a	n/a	1	0	0.2	0	0
1323.5428	1	81	n/a	n/a	1	0	0	0	0
1323.7428	1	81	n/a	n/a	1	0	0	0	0
1323.9428	1	81	n/a	n/a	1	0	0	0	0
1324.1428	1	81	n/a	n/a	1	0	0	0	0
1325.5578	1	10	205.9	205.9	1	51	-0.1	0	1
1326.741	1	10	304.4	304.4	1	51	17.7	0	2
1328.041	1	10	220.4	220.4	1	51	0.1	0	3
1329.3242	1	21	151.4	151.4	1	51	-17.8	0	0
1330.5242	1	10	199.4	199.4	1	51	0	0	1
1331.6908	1	10	280.7	280.7	1	51	0	0	2
1332.824	1	10	221.2	221.2	1	51	17.7	0	3
1333.9072	1	21	-99	-99	1	51	-17.8	0	0
1335.1572	1	10	174.3	174.3	1	51	0.1	0	1
1336.2238	1	10	275.6	275.6	1	51	0	0	2
1337.4738	1	10	273.6	273.6	1	51	0	0	3
1338.7904	1	10	365	365	1	51	-2.3283e-10	0	4
1340.0402	1	10	251.1	251.1	1	51	-0.1	0	5
1341.2902	1	21	-99	-99	1	51	0.1	0	0
1342.5734	1	10	165.8	165.8	1	51	-0.1	0	1
1343.69	1	10	249.2	249.2	1	51	0	0	2
1344.79	1	10	221.3	221.3	1	51	0.1	0	3
1345.99	1	10	237.3	237.3	1	51	0.1	0	4
1347.0898	1	10	273.3	273.3	1	51	-0.2	0	5
1348.2732	1	10	290.1	290.1	1	51	0.2	0	6
1349.2316	1	81	n/a	n/a	1	0	-0.1	0	0
1349.4316	1	81	n/a	n/a	1	0	0	0	0
1349.6316	1	81	n/a	n/a	1	0	0	0	0
1349.8316	1	81	n/a	n/a	1	0	0	0	0
1350.0316	1	81	n/a	n/a	1	0	0	0	0
1350.2316	1	81	n/a	n/a	1	0	0	0	0
1350.4316	1	81	n/a	n/a	1	0	0	0	0
1350.6316	1	81	n/a	n/a	1	0	0	0	0
1350.8316	1	81	n/a	n/a	1	0	0	0	0
1351.0316	1	81	n/a	n/a	1	0	0	0	0
1352.1896	1	10	357.5	357.5	1	51	0	0	1
1353.2562	1	21	-99	-99	1	51	2.3283e-10	0	0
1354.456	1	10	123	123	1	51	-0.1	0	1
1355.7894	1	10	373.6	373.6	1	51	0.1	0	2
1356.8226	1	10	300.3	300.3	1	51	-0.1	0	3
1358.0226	1	10	156.4	156.4	1	51	0.1	0	4
1359.1224	1	10	208.4	208.4	1	51	-0.1	0	5
1360.2224	1	21	-99	-99	1	51	0	0	0
1361.3556	1	10	215.2	215.2	1	51	4.6566e-10	0	1
1362.589	1	10	165.9	165.9	1	51	0.1	0	2
1363.7222	1	10	232.6	232.6	1	51	-0.1	0	3
1364.9054	1	10	265.3	265.3	1	51	-2.3283e-10	0	4
1365.9888	1	10	286	286	1	51	0.1	0	5
1367.2386	1	10	188.1	188.1	1	51	-0.1	0	6
1368.522	1	10	120.8	120.8	1	51	0.1	0	7
1369.8052	1	21	261.5	261.5	1	51	2.3283e-10	0	0
1371.055	1	10	227.5	227.5	1	51	-0.2	0	1
1372.1884	1	10	230.3	230.3	1	51	0.2	0	2
1373.2382	1	10	204.3	204.3	1	51	-0.2	0	3
1374.2882	1	21	-99	-99	1	51	0.1	0	0
1375.2078	1	81	n/a	n/a	1	0	-0.1	0	0
1375.4078	1	81	n/a	n/a	1	0	0	0	0
1375.6078	1	81	n/a	n/a	1	0	0	0	0
1375.8078	1	81	n/a	n/a	1	0	0	0	0
1376.0078	1	81	n/a	n/a	1	0	0	0	0
1376.208	1	81	n/a	n/a	1	0	0.2	0	0
1376.408	1	81	n/a	n/a	1	0	0	0	0
1376.608	1	81	n/a	n/a	1	0	0	0	0
1376.808	1	81	n/a	n/a	1	0	0	0	0
1377.008	1	81	n/a	n/a	1	0	0	0	0
1378.3546	1	10	-99	-99	1	51	-0.1	0	1
1379.4712	1	10	211.2	211.2	1	51	-2.3283e-10	0	2
1380.6046	1	10	261.9	261.9	1	51	0.1	0	3
1381.7378	1	21	184.6	184.6	1	51	-0.1	0	0
1383.0544	1	10	4	4	1	51	-2.3283e-10	0	1
1384.0876	1	10	410.7	410.7	1	51	4.6566e-10	0	2
1385.3542	1	10	72.1	72.1	1	51	-2.3283e-10	0	3
1386.4376	1	10	268.8	268.8	1	51	0.1	0	4
1387.7208	1	10	185.4	185.4	1	51	-0.1	0	5
1389.004	1	21	230.2	230.2	1	51	-2.3283e-10	0	0
1390.1372	1	10	280.9	280.9	1	51	-0.1	0	1
1391.4372	1	10	21	21	1	51	0.1	0	2
1392.6038	1	10	230.3	230.3	1	51	0	0	3
1393.7704	1	21	-99	-99	1	51	-2.3283e-10	0	0
1394.837	1	10	205.1	205.1	1	51	0	0	1
1395.9202	1	10	211.6	211.6	1	51	17.7	0	2
1397.1868	1	10	159.1	159.1	1	51	-17.8	0	3
1398.4868	1	21	75.2	75.2	1	51	0.1	0	0
1399.7368	1	10	-99	-99	1	51	0.1	0	1
1400.8866	1	10	59.3	59.3	1	51	-0.2	0	2
1401.8244	1	81	n/a	n/a	1	0	0.1	0	0
1402.0244	1	81	n/a	n/a	1	0	0	0	0
1402.2244	1	81	n/a	n/a	1	0	0	0	0
1402.4244	1	81	n/a	n/a	1	0	0	0	0
1402.6244	1	81	n/a	n/a	1	0	0	0	0
1402.8244	1	81	n/a	n/a	1	0	0	0	0
1403.0244	1	81	n/a	n/a	1	0	0	0	0
1403.2244	1	81	n/a	n/a	1	0	0	0	0
1403.4244	1	81	n/a	n/a	1	0	0	0	0
1403.6244	1	81	n/a	n/a	1	0	0	0	0
1404.9198	1	10	26.1	26.1	1	51	2.3283e-10	0	1
1405.9864	1	10	239.5	239.5	1	51	-2.3283e-10	0	2
1407.1696	1	10	224.2	224.2	1	51	4.6566e-10	0	3
1408.3528	1	21	-99	-99	1	51	-0.1	0	0
1409.4862	1	10	179.6	179.6	1	51	0.1	0	1
1410.586	1	10	199.7	199.7	1	51	-0.1	0	2
1411.636	1	10	253.6	253.6	1	51	0	0	3
1412.686	1	21	-99	-99	1	51	0.1	0	0
1413.8858	1	10	99.8	99.8	1	51	-0.1	0	1
1415.0192	1	10	118.5	118.5	1	51	0.1	0	2
1416.1858	1	10	375.8	375.8	1	51	0	0	3
1417.369	1	10	264.5	264.5	1	51	-0.1	0	4
1418.5356	1	10	201.9	201.9	1	51	0	0	5
1419.7022	1	21	-99	-99	1	51	-2.3283e-10	0	0
1420.9022	1	10	43.3	43.3	1	51	0.1	0	1
1422.202	1	10	1191.4	1191.4	1	51	-0.1	0	2
1423.452	1	10	-99	-99	1	51	0.1	0	3
1424.5186	1	10	250.9	250.9	1	51	4.6566e-10	0	4
1425.8186	1	10	182.8	182.8	1	51	0	0	5
1427.1184	1	21	-99	-99	1	51	-0.1	0	0
1480.7916	1	81	n/a	n/a	1	0	-0.1	0	0
1480.9916	1	81	n/a	n/a	1	0	0	0	0
1481.1916	1	81	n/a	n/a	1	0	0	0	0
1481.3916	1	81	n/a	n/a	1	0	0	0	0
1481.5916	1	81	n/a	n/a	1	0	0	0	0
1481.7916	1	81	n/a	n/a	1	0	0	0	0
1481.9916	1	81	n/a	n/a	1	0	0	0	0
1482.1916	1	81	n/a	n/a	1	0	0	0	0
1482.3916	1	81	n/a	n/a	1	0	0	0	0
1482.5916	1	81	n/a	n/a	1	0	0	0	0
1483.9984	1	10	241.7	241.7	1	51	0.1	0	1
1485.2484	1	10	255.7	255.7	1	51	0	0	2
1486.4316	1	10	256.4	256.4	1	51	4.6566e-10	0	3
1487.6148	1	21	-99	-99	1	51	-0.1	0	0
1488.6814	1	10	230.5	230.5	1	51	2.3283e-10	0	1
1489.748	1	10	219.9	219.9	1	51	0	0	2
1490.8814	1	10	254.5	254.5	1	51	0.1	0	3
1492.0146	1	21	273.3	273.3	1	51	4.6566e-10	0	0
1493.1146	1	10	245.3	245.3	1	51	0	0	1
1494.3812	1	10	82.7	82.7	1	51	-2.3283e-10	0	2
1495.4978	1	10	-99	-99	1	51	0	0	3
1496.631	1	10	216.8	216.8	1	51	2.3283e-10	0	4
1497.7976	1	10	154.2	154.2	1	51	0	0	5
1499.0974	1	10	310.2	310.2	1	51	-0.2	0	6
1500.414	1	10	225.5	225.5	1	51	0	0	7
1501.7306	1	21	-99	-99	1	51	0	0	0
1502.8472	1	10	240.3	240.3	1	51	-2.3283e-10	0	1
1503.9138	1	10	229.7	229.7	1	51	4.6566e-10	0	2
1504.9472	1	10	252.4	252.4	1	51	0.2	0	3
1506.147	1	10	220.4	220.4	1	51	-0.2	0	4
1507.1384	1	81	n/a	n/a	1	0	0	0	0
1507.3384	1	81	n/a	n/a	1	0	0	0	0
1507.5384	1	81	n/a	n/a	1	0	0	0	0
1507.7384	1	81	n/a	n/a	1	0	0	0	0
1507.9384	1	81	n/a	n/a	1	0	0	0	0
1508.1386	1	81	n/a	n/a	1	0	0.2	0	0
1508.3386	1	81	n/a	n/a	1	0	0	0	0
1508.5386	1	81	n/a	n/a	1	0	0	0	0
1508.7386	1	81	n/a	n/a	1	0	0	0	0
1508.9386	1	81	n/a	n/a	1	0	0	0	0
1510.1134	1	10	221.9	221.9	1	51	-0.2	0	1
1511.3468	1	10	60.6	60.6	1	51	0.1	0	2
1512.48	1	10	207.4	207.4	1	51	2.3283e-10	0	3
1513.6132	1	21	-99	-99	1	51	-0.1	0	0
1514.8466	1	10	48.7	48.7	1	51	0.1	0	1
1516.0798	1	21	-99	-99	1	51	-2.3283e-10	0	0
1517.113	1	10	246.2	246.2	1	51	-0.1	0	1
1518.2796	1	10	215.5	215.5	1	51	0	0	2
1519.5796	1	10	115.6	115.6	1	51	0.1	0	3
1520.7962	1	10	371	371	1	51	-2.3283e-10	0	4
1521.8962	1	10	231	231	1	51	0	0	5
1523.2128	1	10	274.5	274.5	1	51	0.1	0	6
1524.246	1	10	297.1	297.1	1	51	-0.1	0	7
1525.2792	1	21	-99	-99	1	51	-0.1	0	0
1526.3126	1	10	230.5	230.5	1	51	0.1	0	1
1527.3958	1	10	219.3	219.3	1	51	-2.3283e-10	0	2
1528.7124	1	10	166.6	166.6	1	51	2.3283e-10	0	3
1529.7624	1	10	220.6	220.6	1	51	0	0	4
1530.879	1	10	224	224	1	51	0	0	5
1531.9956	1	21	-99	-99	1	51	0	0	0
1532.8162	1	81	n/a	n/a	1	0	-2.3283e-10	0	0
1533.0162	1	81	n/a	n/a	1	0	0	0	0
1533.2162	1	81	n/a	n/a	1	0	0	0	0
1533.4162	1	81	n/a	n/a	1	0	0	0	0
1533.6162	1	81	n/a	n/a	1	0	0	0	0
1533.8162	1	81	n/a	n/a	1	0	-0.1	0	0
1534.0162	1	81	n/a	n/a	1	0	0	0	0
1534.2162	1	81	n/a	n/a	1	0	0	0	0
1534.4162	1	81	n/a	n/a	1	0	0	0	0
1534.6162	1	81	n/a	n/a	1	0	0	0	0
1535.812	1	10	186.9	186.9	1	51	0.1	0	1
1536.912	1	21	-99	-99	1	51	0	0	0
1538.0118	1	10	178.9	178.9	1	51	-0.1	0	1
1539.0618	1	10	377	377	1	51	0.1	0	2
1540.3118	1	10	231	231	1	51	0	0	3
1541.4284	1	10	282.4	282.4	1	51	2.3283e-10	0	4
1542.695	1	10	295.7	295.7	1	51	0	0	5
1543.7782	1	10	300.5	300.5	1	51	-2.3283e-10	0	6
1544.8782	1	10	304.5	304.5	1	51	0	0	7
1545.978	1	21	1236.5	1236.5	1	51	-0.1	0	0
1547.2446	1	10	1281.9	1281.9	1	51	0	0	1
1548.5446	1	10	-99	-99	1	51	0.1	0	2
1549.7112	1	10	239.4	239.4	1	51	-2.3283e-10	0	3
1550.9944	1	10	188.1	188.1	1	51	-0.1	0	4
1552.2776	1	10	232.8	232.8	1	51	0	0	5
1553.561	1	21	-99	-99	1	51	0.1	0	0
1554.8276	1	10	242.9	242.9	1	51	0	0	1
1556.0774	1	10	225	225	1	51	-0.1	0	2
1557.3608	1	10	221.6	221.6	1	51	0.1	0	3
1558.644	1	21	-99	-99	1	51	2.3283e-10	0	0
1559.5666	1	81	n/a	n/a	1	0	-0.1	0	0
1559.7666	1	81	n/a	n/a	1	0	0	0	0
1559.9666	1	81	n/a	n/a	1	0	0	0	0
1560.1666	1	81	n/a	n/a	1	0	0	0	0
1560.3666	1	81	n/a	n/a	1	0	0	0	0
1560.5666	1	81	n/a	n/a	1	0	0	0	0
1560.7666	1	81	n/a	n/a	1	0	0	0	0
1560.9666	1	81	n/a	n/a	1	0	0	0	0
1561.1666	1	81	n/a	n/a	1	0	0	0	0
1561.3666	1	81	n/a	n/a	1	0	0	0	0
1562.4938	1	10	256.5	256.5	1	51	0.1	0	1
1563.527	1	21	-99	-99	1	51	-0.1	0	0
1564.7936	1	10	84.6	84.6	1	51	0	0	1
1565.9436	1	10	230.6	230.6	1	51	0.1	0	2
1567.0934	1	10	264.7	264.7	1	51	-0.1	0	3
1568.2434	1	21	282.7	282.7	1	51	0	0	0
1569.2934	1	10	256.8	256.8	1	51	0.1	0	1
1570.51	1	10	96.1	96.1	1	51	0	0	2
1571.8266	1	10	59.5	59.5	1	51	0	0	3
1573.0764	1	10	233.6	233.6	1	51	-0.1	0	4
1574.343	1	10	279	279	1	51	0	0	5
1575.543	1	10	263	263	1	51	0.1	0	6
1576.6262	1	10	283.7	283.7	1	51	-0.1	0	7
1577.7094	1	21	-99	-99	1	51	-0.1	0	0
1578.8594	1	10	226.4	226.4	1	51	0.1	0	1
1580.1094	1	10	272.4	272.4	1	51	0	0	2
1581.1926	1	10	293.2	293.2	1	51	0	0	3
1582.3426	1	10	295.2	295.2	1	51	0	0	4
1583.4924	1	10	281.3	281.3	1	51	-0.1	0	5
1584.6424	1	21	-99	-99	1	51	0.1	0	0
1585.643	1	81	n/a	n/a	1	0	-0.1	0	0
1585.843	1	81	n/a	n/a	1	0	0	0	0
1586.043	1	81	n/a	n/a	1	0	0	0	0
1586.243	1	81	n/a	n/a	1	0	0	0	0
1586.443	1	81	n/a	n/a	1	0	0	0	0
1586.643	1	81	n/a	n/a	1	0	0	0	0
1586.843	1	81	n/a	n/a	1	0	0	0	0
1587.043	1	81	n/a	n/a	1	0	0	0	0
1587.243	1	81	n/a	n/a	1	0	0	0	0
1587.443	1	81	n/a	n/a	1	0	0	0	0
1588.7256	1	10	248.2	248.2	1	51	0.2	0	1
1589.992	1	10	245.5	245.5	1	51	-0.2	0	2
1591.1086	1	10	280.9	280.9	1	51	0	0	3
1592.3252	1	10	248.3	248.3	1	51	2.3283e-10	0	4
1593.5752	1	10	150.4	150.4	1	51	0.1	0	5
1594.8252	1	21	212.3	212.3	1	51	0	0	0
1595.925	1	10	264.4	264.4	1	51	-0.1	0	1
1596.9584	1	10	255.1	255.1	1	51	0.1	0	2
1598.18	1	10	-99	-99	1	51	1116.6	1	3
1599.2916	1	10	257.8	257.8	1	51	0	0	4
1600.4414	1	10	243.9	243.9	1	51	-0.1	0	5
1601.6248	1	10	340.6	340.6	1	51	0.1	0	6
1602.8746	1	10	242.7	242.7	1	51	-0.1	0	7
1604.1246	1	21	240.7	240.7	1	51	0.1	0	0
1605.3578	1	10	223.4	223.4	1	51	-0.1	0	1
1606.5912	1	21	158.1	158.1	1	51	0.1	0	0
1607.741	1	10	208.1	208.1	1	51	-0.1	0	1
1608.791	1	10	326.2	326.2	1	51	0.1	0	2
1610.0076	1	10	245.6	245.6	1	51	0	0	3
1611.2408	1	10	292.3	292.3	1	51	-0.1	0	4
1617.2662	1	82	n/a	n/a	1	0	0	0	0
1617.4962	1	82	n/a	n/a	1	0	0	0	0
1617.6182	1	82	n/a	n/a	1	0	0	0	0
1617.7992	1	82	n/a	n/a	1	0	0	0	0
1618.2312	1	82	n/a	n/a	1	0	0	0	0
1618.2662	1	82	n/a	n/a	1	0	0	0	0
1618.6852	1	82	n/a	n/a	1	0	0	0	0
1618.7442	1	82	n/a	n/a	1	0	0	0	0
1618.9012	1	82	n/a	n/a	1	0	0	0	0
1619.2222	1	82	n/a	n/a	1	0	0	0	0
1620.1904	1	10	270.6	270.6	1	50	0.1	0	1
1621.3736	1	10	303.3	303.3	1	50	0	0	2
1622.6234	1	10	269.3	269.3	1	50	-0.2	0	3
1623.8068	1	10	302.1	302.1	1	50	0.2	0	4
1625.0734	1	10	299.5	299.5	1	50	-2.3283e-10	0	5
1626.34	1	21	-99	-99	1	50	0	0	0
1627.4232	1	10	253.5	253.5	1	50	-0.1	0	1
1628.5564	1	10	224.2	224.2	1	50	-0.1	0	2
1629.723	1	10	209.6	209.6	1	50	0	0	3
1631.0396	1	10	284.9	284.9	1	50	4.6566e-10	0	4
1632.323	1	10	265.7	265.7	1	50	0.2	0	5
1633.5562	1	10	328.4	328.4	1	50	-0.1	0	6
1634.6394	1	10	333.2	333.2	1	50	-2.3283e-10	0	7
1635.7228	1	21	-99	-99	1	50	0.1	0	0
1636.9726	1	10	207.9	207.9	1	50	-0.1	0	1
1638.0226	1	10	229.9	229.9	1	50	0	0	2
1639.0726	1	10	284	284	1	50	0.1	0	3
1640.1224	1	10	274	274	1	50	-0.2	0	4
1641.4058	1	10	190.7	190.7	1	50	0.2	0	5
1642.489	1	10	227.4	227.4	1	50	-0.1	0	6
1643.3974	1	82	n/a	n/a	1	0	-0.1	0	0
1643.7354	1	82	n/a	n/a	1	0	0	0	0
1643.8494	1	82	n/a	n/a	1	0	0	0	0
1643.8954	1	82	n/a	n/a	1	0	0	0	0
1644.2014	1	82	n/a	n/a	1	0	0	0	0
1644.3974	1	82	n/a	n/a	1	0	0	0	0
1644.6424	1	82	n/a	n/a	1	0	0	0	0
1645.0064	1	82	n/a	n/a	1	0	0	0	0
1645.0614	1	82	n/a	n/a	1	0	0	0	0
1645.2834	1	82	n/a	n/a	1	0	0	0	0
1646.4222	1	10	246.2	246.2	1	50	0.2	0	1
1647.5554	1	10	280.9	280.9	1	50	-0.1	0	2
1648.5886	1	10	287.7	287.7	1	50	0	0	3
1649.8386	1	10	317.6	317.6	1	50	0	0	4
1651.1384	1	10	185.7	185.7	1	50	-0.1	0	5
1652.4384	1	21	261.8	261.8	1	50	0.1	0	0
1653.4716	1	10	428.5	428.5	1	50	-0.1	0	1
1654.5882	1	10	255.8	255.8	1	50	-2.3283e-10	0	2
1655.6216	1	10	310.5	310.5	1	50	0.1	0	3
1656.6548	1	10	285.3	285.3	1	50	2.3283e-10	0	4
1657.738	1	10	242	242	1	50	-0.1	0	5
1658.8214	1	21	-99	-99	1	50	0.1	0	0
1659.9546	1	10	137.3	137.3	1	50	-0.1	0	1
1661.2546	1	10	165.4	165.4	1	50	0.1	0	2
1662.3044	1	10	283.5	283.5	1	50	-0.1	0	3
1663.371	1	10	272.9	272.9	1	50	0	0	4
1664.6044	1	10	287.5	287.5	1	50	0.1	0	5
1665.821	1	10	222.9	222.9	1	50	0	0	6
1666.9708	1	10	305	305	1	50	-0.1	0	7
1668.1208	1	21	-99	-99	1	50	0.1	0	0
1669.1704	1	82	n/a	n/a	1	0	-0.2	0	0
1669.2074	1	82	n/a	n/a	1	0	0	0	0
1669.3034	1	82	n/a	n/a	1	0	0	0	0
1669.4694	1	82	n/a	n/a	1	0	0	0	0
1669.8554	1	82	n/a	n/a	1	0	0	0	0
1670.1706	1	82	n/a	n/a	1	0	0.2	0	0
1670.4026	1	82	n/a	n/a	1	0	0	0	0
1670.8356	1	82	n/a	n/a	1	0	0	0	0
1670.8886	1	82	n/a	n/a	1	0	0	0	0
1671.0126	1	82	n/a	n/a	1	0	0	0	0
1672.1372	1	10	242.5	242.5	1	50	-0.1	0	1
1673.2872	1	10	180.5	180.5	1	50	0.1	0	2
1674.4204	1	10	263.2	263.2	1	50	-0.1	0	3
1675.587	1	10	232.6	232.6	1	50	0	0	4
1676.6202	1	10	303.3	303.3	1	50	-0.1	0	5
1677.6536	1	21	326	326	1	50	0.2	0	0
1678.7868	1	10	168.7	168.7	1	50	-0.1	0	1
1679.9034	1	10	364.1	364.1	1	50	-2.3283e-10	0	2
1680.97	1	10	257.5	257.5	1	50	0	0	3
1682.0366	1	21	214.8	214.8	1	50	4.6566e-10	0	0
1683.2532	1	10	22.2	22.2	1	50	-2.3283e-10	0	1
1684.4698	1	21	165.6	165.6	1	50	0	0	0
1685.6864	1	10	133	133	1	50	-2.3283e-10	0	1
1686.9864	1	10	225.1	225.1	1	50	0.1	0	2
1688.203	1	10	192.4	192.4	1	50	0	0	3
1689.3196	1	10	275.8	275.8	1	50	0	0	4
1690.3694	1	10	233.8	233.8	1	50	-0.2	0	5
1691.4194	1	21	223.9	223.9	1	50	0.1	0	0
1692.7194	1	10	43.9	43.9	1	50	0.1	0	1
1693.986	1	10	25.3	25.3	1	50	0	0	2
1694.9766	1	82	n/a	n/a	1	0	-0.2	0	0
1695.1206	1	82	n/a	n/a	1	0	0	0	0
1695.4556	1	82	n/a	n/a	1	0	0	0	0
1695.5356	1	82	n/a	n/a	1	0	0	0	0
1695.7566	1	82	n/a	n/a	1	0	0	0	0
1695.9766	1	82	n/a	n/a	1	0	0	0	0
1696.0046	1	82	n/a	n/a	1	0	0	0	0
1696.2356	1	82	n/a	n/a	1	0	0	0	0
1696.5106	1	82	n/a	n/a	1	0	0	0	0
1696.8326	1	82	n/a	n/a	1	0	0	0	0
1697.969	1	10	250.1	250.1	1	50	0.1	0	1
1699.069	1	21	-99	-99	1	50	0	0	0
1700.3856	1	10	25.5	25.5	1	50	4.6566e-10	0	1
1701.6522	1	10	214.9	214.9	1	50	0.1	0	2
1702.702	1	10	300.9	300.9	1	50	-0.2	0	3
1703.8354	1	10	319.7	319.7	1	50	0.2	0	4
1705.0852	1	10	269.7	269.7	1	50	-0.2	0	5
1706.3352	1	21	219.7	219.7	1	50	0.1	0	0
1707.3684	1	10	258.4	258.4	1	50	-0.1	0	1
1708.4184	1	10	280.5	280.5	1	50	0.1	0	2
1709.735	1	10	259.9	259.9	1	50	0	0	3
1710.885	1	10	229.9	229.9	1	50	0.1	0	4
1712.0016	1	10	265.3	265.3	1	50	0	0	5
1713.1182	1	21	300.7	300.7	1	50	2.3283e-10	0	0
1714.218	1	10	224.7	224.7	1	50	-0.2	0	1
1715.318	1	21	340.7	340.7	1	50	0.1	0	0
1716.6346	1	10	224.1	224.1	1	50	4.6566e-10	0	1
1717.9512	1	21	-99	-99	1	50	-2.3283e-10	0	0
1719.0512	1	10	223.6	223.6	1	50	0.1	0	1
1720.101	1	10	293.5	293.5	1	50	-0.2	0	2
1720.8594	1	82	n/a	n/a	1	0	-0.1	0	0
1720.8874	1	82	n/a	n/a	1	0	0	0	0
1721.0374	1	82	n/a	n/a	1	0	0	0	0
1721.2654	1	82	n/a	n/a	1	0	0	0	0
1721.5754	1	82	n/a	n/a	1	0	0	0	0
1721.8596	1	82	n/a	n/a	1	0	0.2	0	0
1722.2036	1	82	n/a	n/a	1	0	0	0	0
1722.3506	1	82	n/a	n/a	1	0	0	0	0
1722.6006	1	82	n/a	n/a	1	0	0	0	0
1722.6326	1	82	n/a	n/a	1	0	0	0	0
1724.0342	1	10	248.4	248.4	1	50	-2.3283e-10	0	1
1725.134	1	10	236.4	236.4	1	50	-0.1	0	2
1726.4006	1	10	121.8	121.8	1	50	0	0	3
1727.6672	1	21	151.2	151.2	1	50	-2.3283e-10	0	0
1728.8506	1	10	101	101	1	50	0.1	0	1
1730.1338	1	10	260.6	260.6	1	50	-2.3283e-10	0	2
1731.4338	1	10	304.6	304.6	1	50	0	0	3
1732.7002	1	10	206	206	1	50	-0.2	0	4
1733.9668	1	10	219.4	219.4	1	50	0.1	0	5
1735.2668	1	10	247.4	247.4	1	50	0	0	6
1736.5334	1	10	292.8	292.8	1	50	-2.3283e-10	0	7
1737.8	1	21	-99	-99	1	50	4.6566e-10	0	0
1738.9332	1	10	212.9	212.9	1	50	-2.3283e-10	0	1
1740.0498	1	10	232.3	232.3	1	50	0	0	2
1741.3164	1	10	229.7	229.7	1	50	-2.3283e-10	0	3
1742.583	1	10	195.1	195.1	1	50	4.6566e-10	0	4
1743.8664	1	10	191.7	191.7	1	50	0.1	0	5
1745.1496	1	21	220.5	220.5	1	50	4.6566e-10	0	0
1746.3662	1	10	155.9	155.9	1	50	-2.3283e-10	0	1
1747.466	1	10	287.9	287.9	1	50	-0.2	0	2
1765.6364	1	82	n/a	n/a	1	0	0	0	0
1765.9294	1	82	n/a	n/a	1	0	0	0	0
1766.1014	1	82	n/a	n/a	1	0	0	0	0
1766.4594	1	82	n/a	n/a	1	0	0	0	0
1766.5784	1	82	n/a	n/a	1	0	0	0	0
1766.6364	1	82	n/a	n/a	1	0	0	0	0
1766.9424	1	82	n/a	n/a	1	0	0	0	0
1767.1654	1	82	n/a	n/a	1	0	0	0	0
1767.5164	1	82	n/a	n/a	1	0	0	0	0
1767.5744	1	82	n/a	n/a	1	0	0	0	0
1768.7482	1	10	285.3	285.3	1	52	0.1	0	1
1769.998	1	10	251.4	251.4	1	52	-0.1	0	2
1771.198	1	10	283.5	283.5	1	52	0.1	0	3
1772.5146	1	10	310.8	310.8	1	52	0	0	4
1773.7646	1	10	212.9	212.9	1	52	0.1	0	5
1775.0144	1	21	242.9	242.9	1	52	-0.2	0	0
1776.331	1	10	46.2	46.2	1	52	0	0	1
1777.6476	1	10	25.6	25.6	1	52	0	0	2
1778.7476	1	10	237.7	237.7	1	52	0.1	0	3
1779.8474	1	21	-99	-99	1	52	-0.1	0	0
1780.964	1	10	197.1	197.1	1	52	0	0	1
1782.0806	1	21	216.5	216.5	1	52	0	0	0
1783.3806	1	10	36.5	36.5	1	52	0	0	1
1784.4972	1	10	247.9	247.9	1	52	-2.3283e-10	0	2
1785.6972	1	10	183.9	183.9	1	52	0.1	0	3
1786.7804	1	10	300.6	300.6	1	52	-0.1	0	4
1787.897	1	10	352	352	1	52	0	0	5
1789.2136	1	10	235.4	235.4	1	52	0	0	6
1790.3968	1	10	268.1	268.1	1	52	-2.3283e-10	0	7
1791.5802	1	21	-99	-99	1	52	0.1	0	0
1792.2978	1	82	n/a	n/a	1	0	-0.1	0	0
1792.5468	1	82	n/a	n/a	1	0	0	0	0
1792.7208	1	82	n/a	n/a	1	0	0	0	0
1792.7848	1	82	n/a	n/a	1	0	0	0	0
1792.8148	1	82	n/a	n/a	1	0	0	0	0
1793.2978	1	82	n/a	n/a	1	0	0	0	0
1793.6938	1	82	n/a	n/a	1	0	0	0	0
1794.0308	1	82	n/a	n/a	1	0	0	0	0
1794.0748	1	82	n/a	n/a	1	0	0	0	0
1794.0948	1	82	n/a	n/a	1	0	0	0	0
1795.5132	1	10	255.6	255.6	1	52	0	0	1
1796.7964	1	10	238.1	238.1	1	52	17.7	0	2
1797.9464	1	10	270.4	270.4	1	52	-17.7	0	3
1799.113	1	21	-99	-99	1	52	0	0	0
1800.1796	1	10	181.1	181.1	1	52	0	0	1
1801.4962	1	10	80.5	80.5	1	52	-2.3283e-10	0	2
1802.5294	1	10	247.2	247.2	1	52	-0.1	0	3
1803.5628	1	21	-99	-99	1	52	0.2	0	0
1804.6294	1	10	243.3	243.3	1	52	-2.3283e-10	0	1
1805.7126	1	10	232	232	1	52	-0.1	0	2
1806.7792	1	10	253.4	253.4	1	52	-2.3283e-10	0	3
1807.9792	1	10	125.5	125.5	1	52	0.1	0	4
1809.279	1	10	9.4	9.4	1	52	-0.2	0	5
1810.5624	1	10	-99	-99	1	52	0.2	0	6
1811.7122	1	10	264.2	264.2	1	52	-0.2	0	7
1812.8622	1	21	-99	-99	1	52	0.1	0	0
1814.0122	1	10	220.3	220.3	1	52	0.1	0	1
1815.1288	1	10	223.7	223.7	1	52	0	0	2
1816.1786	1	10	293.7	293.7	1	52	-0.2	0	3
1817.2286	1	21	-99	-99	1	52	0.1	0	0
1818.1784	1	82	n/a	n/a	1	0	0.1	0	0
1818.5014	1	82	n/a	n/a	1	0	0	0	0
1818.5804	1	82	n/a	n/a	1	0	0	0	0
1818.6324	1	82	n/a	n/a	1	0	0	0	0
1818.9854	1	82	n/a	n/a	1	0	0	0	0
1819.1784	1	82	n/a	n/a	1	0	-0.1	0	0
1819.3494	1	82	n/a	n/a	1	0	0	0	0
1819.5984	1	82	n/a	n/a	1	0	0	0	0
1819.6354	1	82	n/a	n/a	1	0	0	0	0
1819.9314	1	82	n/a	n/a	1	0	0	0	0
1821.2118	1	10	220.6	220.6	1	52	0.1	0	1
1822.345	1	10	271.3	271.3	1	52	-0.1	0	2
1823.495	1	10	225.3	225.3	1	52	0.1	0	3
1824.6448	1	21	259.4	259.4	1	52	-0.1	0	0
1825.7614	1	10	214.8	214.8	1	52	2.3283e-10	0	1
1826.9614	1	10	246.8	246.8	1	52	0	0	2
1828.2112	1	10	84.8	84.8	1	52	-0.1	0	3
1829.4612	1	21	-99	-99	1	52	0.1	0	0
1830.6112	1	10	212.9	212.9	1	52	0	0	1
1831.8944	1	10	145.7	145.7	1	52	2.3283e-10	0	2
1833.2276	1	10	110.1	110.1	1	52	17.7	0	3
1834.461	1	10	91.1	91.1	1	52	-17.6	0	4
1835.6776	1	10	218.5	218.5	1	52	0	0	5
1836.8608	1	10	299.1	299.1	1	52	-0.1	0	6
1838.0274	1	10	268.5	268.5	1	52	2.3283e-10	0	7
1839.194	1	21	-99	-99	1	52	0	0	0
1840.2606	1	10	259.3	259.3	1	52	0	0	1
1841.2938	1	10	313.9	313.9	1	52	-0.1	0	2
1842.3438	1	10	208	208	1	52	0.1	0	3
1843.4938	1	10	274	274	1	52	0	0	4
1844.3782	1	82	n/a	n/a	1	0	-0.1	0	0
1844.4592	1	82	n/a	n/a	1	0	0	0	0
1844.8962	1	82	n/a	n/a	1	0	0	0	0
1845.0512	1	82	n/a	n/a	1	0	0	0	0
1845.0822	1	82	n/a	n/a	1	0	0	0	0
1845.3782	1	82	n/a	n/a	1	0	0	0	0
1845.5542	1	82	n/a	n/a	1	0	0	0	0
1845.6752	1	82	n/a	n/a	1	0	0	0	0
1845.9482	1	82	n/a	n/a	1	0	0	0	0
1845.9862	1	82	n/a	n/a	1	0	0	0	0
1847.3102	1	10	249.5	249.5	1	52	0.1	0	1
1848.4934	1	10	218.2	218.2	1	52	-0.1	0	2
1849.5934	1	10	206.3	206.3	1	52	0.1	0	3
1850.6934	1	21	194.4	194.4	1	52	0.1	0	0
1852.0098	1	10	13.7	13.7	1	52	-0.2	0	1
1853.2598	1	10	59.7	59.7	1	52	0	0	2
1854.293	1	10	242.5	242.5	1	52	-2.3283e-10	0	3
1855.3264	1	21	-99	-99	1	52	0.1	0	0
1856.3762	1	10	255.2	255.2	1	52	-0.1	0	1
1857.4596	1	10	211.9	211.9	1	52	0.1	0	2
1858.6594	1	10	276	276	1	52	-0.1	0	3
1859.7928	1	10	198.7	198.7	1	52	0.1	0	4
1861.026	1	10	229.3	229.3	1	52	-0.1	0	5
1862.2592	1	21	-99	-99	1	52	-2.3283e-10	0	0
1863.5592	1	10	128.1	128.1	1	52	0	0	1
1864.7592	1	10	96.2	96.2	1	52	0.1	0	2
1865.8924	1	10	194.8	194.8	1	52	-0.1	0	3
1866.9924	1	10	246.9	246.9	1	52	0.1	0	4
1868.0256	1	10	253.6	253.6	1	52	-0.1	0	5
1869.0588	1	21	-99	-99	1	52	2.3283e-10	0	0
1870.1416	1	82	n/a	n/a	1	0	-2.3283e-10	0	0
1870.4236	1	82	n/a	n/a	1	0	0	0	0
1870.5766	1	82	n/a	n/a	1	0	0	0	0
1870.9726	1	82	n/a	n/a	1	0	0	0	0
1871.0966	1	82	n/a	n/a	1	0	0	0	0
1871.1424	1	82	n/a	n/a	1	0	0	0	0
1871.4084	1	82	n/a	n/a	1	0	0	0	0
1871.5114	1	82	n/a	n/a	1	0	0	0	0
1871.6614	1	82	n/a	n/a	1	0	0	0	0
1871.6834	1	82	n/a	n/a	1	0	0	0	0
1873.242	1	10	221.2	221.2	1	52	0.1	0	1
1874.3752	1	10	287.9	287.9	1	52	-0.1	0	2
1875.5418	1	10	241.2	241.2	1	52	4.6566e-10	0	3
1876.8418	1	10	253.3	253.3	1	52	0.1	0	4
1877.9416	1	10	353.3	353.3	1	52	-0.2	0	5
1879.1582	1	10	336.6	336.6	1	52	2.3283e-10	0	6
1880.3582	1	10	240.7	240.7	1	52	0.1	0	7
1881.5582	1	21	240.8	240.8	1	52	0.1	0	0
1882.6748	1	10	244.2	244.2	1	52	0	0	1
1883.7746	1	10	232.1	232.1	1	52	-0.2	0	2
1884.8412	1	10	237.5	237.5	1	52	2.3283e-10	0	3
1885.9078	1	21	-99	-99	1	52	0	0	0
1887.1412	1	10	161.7	161.7	1	52	0.2	0	1
1888.3744	1	21	160.4	160.4	1	52	-0.1	0	0
1889.4244	1	10	262.4	262.4	1	52	0.1	0	1
1890.5076	1	10	251.1	251.1	1	52	-0.1	0	2
1891.6742	1	10	268.5	268.5	1	52	-2.3283e-10	0	3
1892.8574	1	10	237.2	237.2	1	52	-0.1	0	4
1894.1408	1	10	233.9	233.9	1	52	0.2	0	5
1895.424	1	21	-99	-99	1	52	-0.1	0	0
