onset	duration	value	response	rt	good	TMS	seq
176.2974	1	81	n/a	n/a	1	0	0
176.4974	1	81	n/a	n/a	1	0	0
176.6974	1	81	n/a	n/a	1	0	0
176.8974	1	81	n/a	n/a	1	0	0
177.0974	1	81	n/a	n/a	1	0	0
177.2974	1	81	n/a	n/a	1	0	0
177.4974	1	81	n/a	n/a	1	0	0
177.6974	1	81	n/a	n/a	1	0	0
177.8974	1	81	n/a	n/a	1	0	0
178.0974	1	81	n/a	n/a	1	0	0
179.5118	1	10	n/a	n/a	1	51	1
180.7952	1	10	n/a	n/a	1	51	2
181.9284	1	10	n/a	n/a	1	51	3
183.1784	1	10	n/a	n/a	1	51	4
184.3116	1	10	n/a	n/a	1	51	5
185.4948	1	10	n/a	n/a	1	51	6
186.5782	1	10	n/a	n/a	1	51	7
187.6614	1	21	n/a	n/a	1	51	0
188.6946	1	10	n/a	n/a	1	51	1
189.878	1	10	n/a	n/a	1	51	2
191.1278	1	10	n/a	n/a	1	51	3
192.3612	1	10	n/a	n/a	1	51	4
193.4444	1	10	n/a	n/a	1	51	5
194.6944	1	10	n/a	n/a	1	51	6
195.8776	1	10	n/a	n/a	1	51	7
197.0608	1	21	n/a	n/a	1	51	0
198.1274	1	10	n/a	n/a	1	51	1
199.2108	1	10	n/a	n/a	1	51	2
200.394	1	10	n/a	n/a	1	51	3
201.6772	1	10	n/a	n/a	1	51	4
202.6316	1	81	n/a	n/a	1	0	0
202.8316	1	81	n/a	n/a	1	0	0
203.0316	1	81	n/a	n/a	1	0	0
203.2316	1	81	n/a	n/a	1	0	0
203.4316	1	81	n/a	n/a	1	0	0
203.6316	1	81	n/a	n/a	1	0	0
203.8316	1	81	n/a	n/a	1	0	0
204.0316	1	81	n/a	n/a	1	0	0
204.2316	1	81	n/a	n/a	1	0	0
204.4316	1	81	n/a	n/a	1	0	0
205.777	1	10	n/a	n/a	1	51	1
207.027	1	10	n/a	n/a	1	51	2
208.2102	1	10	n/a	n/a	1	51	3
209.3434	1	10	n/a	n/a	1	51	4
210.4268	1	10	n/a	n/a	1	51	5
211.4934	1	10	n/a	n/a	1	51	6
212.5932	1	10	n/a	n/a	1	51	7
213.6932	1	21	n/a	n/a	1	51	0
214.8098	1	10	n/a	n/a	1	51	1
215.943	1	10	n/a	n/a	1	51	2
217.2096	1	10	n/a	n/a	1	51	3
218.4762	1	21	n/a	n/a	1	51	0
219.6428	1	10	n/a	n/a	1	51	1
220.7594	1	10	n/a	n/a	1	51	2
221.8428	1	10	n/a	n/a	1	51	3
222.926	1	21	n/a	n/a	1	51	0
224.0092	1	10	n/a	n/a	1	51	1
225.1426	1	10	n/a	n/a	1	51	2
226.3424	1	10	n/a	n/a	1	51	3
227.5424	1	10	n/a	n/a	1	51	4
228.3268	1	81	n/a	n/a	1	0	0
228.5268	1	81	n/a	n/a	1	0	0
228.7268	1	81	n/a	n/a	1	0	0
228.9268	1	81	n/a	n/a	1	0	0
229.1268	1	81	n/a	n/a	1	0	0
229.3268	1	81	n/a	n/a	1	0	0
229.5268	1	81	n/a	n/a	1	0	0
229.7268	1	81	n/a	n/a	1	0	0
229.9268	1	81	n/a	n/a	1	0	0
230.1268	1	81	n/a	n/a	1	0	0
231.3256	1	10	n/a	n/a	1	51	1
232.5588	1	10	n/a	n/a	1	51	2
233.6588	1	10	n/a	n/a	1	51	3
234.892	1	10	n/a	n/a	1	51	4
236.0918	1	10	n/a	n/a	1	51	5
237.2752	1	10	n/a	n/a	1	51	6
238.4084	1	10	n/a	n/a	1	51	7
239.5416	1	21	n/a	n/a	1	51	0
240.8416	1	10	n/a	n/a	1	51	1
241.9916	1	10	n/a	n/a	1	51	2
243.1582	1	10	n/a	n/a	1	51	3
244.3414	1	10	n/a	n/a	1	51	4
245.5414	1	10	n/a	n/a	1	51	5
246.7412	1	21	n/a	n/a	1	51	0
247.9078	1	10	n/a	n/a	1	51	1
248.9412	1	10	n/a	n/a	1	51	2
250.191	1	10	n/a	n/a	1	51	3
251.3576	1	10	n/a	n/a	1	51	4
252.5576	1	10	n/a	n/a	1	51	5
253.7576	1	21	n/a	n/a	1	51	0
254.5192	1	81	n/a	n/a	1	0	0
254.7192	1	81	n/a	n/a	1	0	0
254.9192	1	81	n/a	n/a	1	0	0
255.1192	1	81	n/a	n/a	1	0	0
255.3192	1	81	n/a	n/a	1	0	0
255.5192	1	81	n/a	n/a	1	0	0
255.7192	1	81	n/a	n/a	1	0	0
255.9192	1	81	n/a	n/a	1	0	0
256.1192	1	81	n/a	n/a	1	0	0
256.3192	1	81	n/a	n/a	1	0	0
257.624	1	10	n/a	n/a	1	51	1
258.9406	1	10	n/a	n/a	1	51	2
260.0738	1	10	n/a	n/a	1	51	3
261.2072	1	21	n/a	n/a	1	51	0
262.2404	1	10	n/a	n/a	1	51	1
263.2736	1	21	n/a	n/a	1	51	0
264.457	1	10	n/a	n/a	1	51	1
265.7236	1	10	n/a	n/a	1	51	2
266.8234	1	10	n/a	n/a	1	51	3
268.0068	1	10	n/a	n/a	1	51	4
269.2234	1	10	n/a	n/a	1	51	5
270.3232	1	10	n/a	n/a	1	51	6
271.5398	1	10	n/a	n/a	1	51	7
272.7564	1	21	n/a	n/a	1	51	0
273.9564	1	10	n/a	n/a	1	51	1
275.223	1	10	n/a	n/a	1	51	2
276.3562	1	10	n/a	n/a	1	51	3
277.5894	1	10	n/a	n/a	1	51	4
278.806	1	10	n/a	n/a	1	51	5
280.0226	1	21	n/a	n/a	1	51	0
281.0874	1	81	n/a	n/a	1	0	0
281.2874	1	81	n/a	n/a	1	0	0
281.4874	1	81	n/a	n/a	1	0	0
281.6874	1	81	n/a	n/a	1	0	0
281.8874	1	81	n/a	n/a	1	0	0
282.0874	1	81	n/a	n/a	1	0	0
282.2874	1	81	n/a	n/a	1	0	0
282.4874	1	81	n/a	n/a	1	0	0
282.6874	1	81	n/a	n/a	1	0	0
282.8874	1	81	n/a	n/a	1	0	0
284.239	1	10	n/a	n/a	1	51	1
285.289	1	10	n/a	n/a	1	51	2
286.4556	1	10	n/a	n/a	1	51	3
287.6222	1	21	n/a	n/a	1	51	0
288.7056	1	10	n/a	n/a	1	51	1
289.8722	1	10	n/a	n/a	1	51	2
290.922	1	10	n/a	n/a	1	51	3
291.972	1	21	n/a	n/a	1	51	0
293.122	1	10	n/a	n/a	1	51	1
294.2886	1	10	n/a	n/a	1	51	2
295.3384	1	10	n/a	n/a	1	51	3
296.3884	1	21	n/a	n/a	1	51	0
297.4384	1	10	n/a	n/a	1	51	1
298.7216	1	10	n/a	n/a	1	51	2
299.9216	1	10	n/a	n/a	1	51	3
301.1214	1	21	n/a	n/a	1	51	0
302.3548	1	10	n/a	n/a	1	51	1
303.538	1	10	n/a	n/a	1	51	2
304.688	1	10	n/a	n/a	1	51	3
305.8046	1	10	n/a	n/a	1	51	4
316.9708	1	81	n/a	n/a	1	0	0
317.1708	1	81	n/a	n/a	1	0	0
317.3708	1	81	n/a	n/a	1	0	0
317.5708	1	81	n/a	n/a	1	0	0
317.7708	1	81	n/a	n/a	1	0	0
317.9708	1	81	n/a	n/a	1	0	0
318.1708	1	81	n/a	n/a	1	0	0
318.3708	1	81	n/a	n/a	1	0	0
318.5708	1	81	n/a	n/a	1	0	0
318.7708	1	81	n/a	n/a	1	0	0
319.9536	1	10	n/a	n/a	1	50	1
321.137	1	10	n/a	n/a	1	50	2
322.4202	1	10	n/a	n/a	1	50	3
323.4534	1	10	n/a	n/a	1	50	4
324.5868	1	10	n/a	n/a	1	50	5
325.9034	1	10	n/a	n/a	1	50	6
327.0032	1	10	n/a	n/a	1	50	7
328.1032	1	21	n/a	n/a	1	50	0
329.1364	1	10	n/a	n/a	1	50	1
330.453	1	10	n/a	n/a	1	50	2
331.4864	1	10	n/a	n/a	1	50	3
332.753	1	10	n/a	n/a	1	50	4
333.9028	1	10	n/a	n/a	1	50	5
335.0528	1	21	n/a	n/a	1	50	0
336.1528	1	10	n/a	n/a	1	50	1
337.236	1	10	n/a	n/a	1	50	2
338.286	1	10	n/a	n/a	1	50	3
339.6192	1	10	n/a	n/a	1	50	4
340.7692	1	10	n/a	n/a	1	50	5
341.9024	1	10	n/a	n/a	1	50	6
342.9588	1	81	n/a	n/a	1	0	0
343.1588	1	81	n/a	n/a	1	0	0
343.3588	1	81	n/a	n/a	1	0	0
343.5588	1	81	n/a	n/a	1	0	0
343.7588	1	81	n/a	n/a	1	0	0
343.9588	1	81	n/a	n/a	1	0	0
344.1588	1	81	n/a	n/a	1	0	0
344.3588	1	81	n/a	n/a	1	0	0
344.5588	1	81	n/a	n/a	1	0	0
344.7588	1	81	n/a	n/a	1	0	0
346.1188	1	10	n/a	n/a	1	50	1
347.252	1	10	n/a	n/a	1	50	2
348.5686	1	10	n/a	n/a	1	50	3
349.652	1	10	n/a	n/a	1	50	4
350.9186	1	10	n/a	n/a	1	50	5
352.1352	1	10	n/a	n/a	1	50	6
353.2184	1	10	n/a	n/a	1	50	7
354.3016	1	21	n/a	n/a	1	50	0
355.385	1	10	n/a	n/a	1	50	1
356.4682	1	21	n/a	n/a	1	50	0
357.7182	1	10	n/a	n/a	1	50	1
358.8348	1	10	n/a	n/a	1	50	2
359.918	1	10	n/a	n/a	1	50	3
361.0846	1	10	n/a	n/a	1	50	4
362.3178	1	10	n/a	n/a	1	50	5
363.5512	1	21	n/a	n/a	1	50	0
364.8678	1	10	n/a	n/a	1	50	1
366.001	1	10	n/a	n/a	1	50	2
367.251	1	10	n/a	n/a	1	50	3
368.5008	1	10	n/a	n/a	1	50	4
369.5972	1	81	n/a	n/a	1	0	0
369.7972	1	81	n/a	n/a	1	0	0
369.9972	1	81	n/a	n/a	1	0	0
370.1972	1	81	n/a	n/a	1	0	0
370.3972	1	81	n/a	n/a	1	0	0
370.5972	1	81	n/a	n/a	1	0	0
370.7972	1	81	n/a	n/a	1	0	0
370.9972	1	81	n/a	n/a	1	0	0
371.1972	1	81	n/a	n/a	1	0	0
371.3972	1	81	n/a	n/a	1	0	0
372.5672	1	10	n/a	n/a	1	50	1
373.6506	1	21	n/a	n/a	1	50	0
374.9172	1	10	n/a	n/a	1	50	1
376.1838	1	21	n/a	n/a	1	50	0
377.4004	1	10	n/a	n/a	1	50	1
378.667	1	10	n/a	n/a	1	50	2
379.8336	1	10	n/a	n/a	1	50	3
380.8668	1	10	n/a	n/a	1	50	4
381.95	1	10	n/a	n/a	1	50	5
383.15	1	10	n/a	n/a	1	50	6
384.3332	1	10	n/a	n/a	1	50	7
385.5166	1	21	n/a	n/a	1	50	0
386.5498	1	10	n/a	n/a	1	50	1
387.7998	1	10	n/a	n/a	1	50	2
388.8996	1	10	n/a	n/a	1	50	3
389.9996	1	21	n/a	n/a	1	50	0
391.1662	1	10	n/a	n/a	1	50	1
392.3328	1	21	n/a	n/a	1	50	0
393.5328	1	10	n/a	n/a	1	50	1
394.616	1	10	n/a	n/a	1	50	2
395.5534	1	81	n/a	n/a	1	0	0
395.7534	1	81	n/a	n/a	1	0	0
395.9534	1	81	n/a	n/a	1	0	0
396.1534	1	81	n/a	n/a	1	0	0
396.3534	1	81	n/a	n/a	1	0	0
396.5534	1	81	n/a	n/a	1	0	0
396.7534	1	81	n/a	n/a	1	0	0
396.9534	1	81	n/a	n/a	1	0	0
397.1534	1	81	n/a	n/a	1	0	0
397.3534	1	81	n/a	n/a	1	0	0
398.5992	1	10	n/a	n/a	1	50	1
399.9156	1	10	n/a	n/a	1	50	2
401.2156	1	10	n/a	n/a	1	50	3
402.5156	1	21	n/a	n/a	1	50	0
403.7154	1	10	n/a	n/a	1	50	1
404.8654	1	10	n/a	n/a	1	50	2
405.932	1	10	n/a	n/a	1	50	3
406.9986	1	21	n/a	n/a	1	50	0
408.2486	1	10	n/a	n/a	1	50	1
409.4984	1	10	n/a	n/a	1	50	2
410.5818	1	10	n/a	n/a	1	50	3
411.665	1	21	n/a	n/a	1	50	0
412.7982	1	10	n/a	n/a	1	50	1
413.9316	1	21	n/a	n/a	1	50	0
415.1148	1	10	n/a	n/a	1	50	1
416.3148	1	10	n/a	n/a	1	50	2
417.3814	1	10	n/a	n/a	1	50	3
418.548	1	10	n/a	n/a	1	50	4
419.6978	1	10	n/a	n/a	1	50	5
420.9312	1	10	n/a	n/a	1	50	6
421.8008	1	81	n/a	n/a	1	0	0
422.0008	1	81	n/a	n/a	1	0	0
422.2008	1	81	n/a	n/a	1	0	0
422.4008	1	81	n/a	n/a	1	0	0
422.6008	1	81	n/a	n/a	1	0	0
422.8008	1	81	n/a	n/a	1	0	0
423.0008	1	81	n/a	n/a	1	0	0
423.2008	1	81	n/a	n/a	1	0	0
423.4008	1	81	n/a	n/a	1	0	0
423.6008	1	81	n/a	n/a	1	0	0
424.9476	1	10	n/a	n/a	1	50	1
426.0308	1	10	n/a	n/a	1	50	2
427.0642	1	10	n/a	n/a	1	50	3
428.114	1	10	n/a	n/a	1	50	4
429.2974	1	10	n/a	n/a	1	50	5
430.4806	1	21	n/a	n/a	1	50	0
431.6806	1	10	n/a	n/a	1	50	1
432.8804	1	21	n/a	n/a	1	50	0
434.197	1	10	n/a	n/a	1	50	1
435.347	1	10	n/a	n/a	1	50	2
436.5636	1	10	n/a	n/a	1	50	3
437.7802	1	21	n/a	n/a	1	50	0
438.83	1	10	n/a	n/a	1	50	1
440.03	1	10	n/a	n/a	1	50	2
441.18	1	10	n/a	n/a	1	50	3
442.3298	1	21	n/a	n/a	1	50	0
443.5964	1	10	n/a	n/a	1	50	1
444.6298	1	10	n/a	n/a	1	50	2
445.7296	1	10	n/a	n/a	1	50	3
446.863	1	10	n/a	n/a	1	50	4
476.287	1	82	n/a	n/a	1	0	0
476.383	1	82	n/a	n/a	1	0	0
476.652	1	82	n/a	n/a	1	0	0
476.991	1	82	n/a	n/a	1	0	0
477.048	1	82	n/a	n/a	1	0	0
477.287	1	82	n/a	n/a	1	0	0
477.61	1	82	n/a	n/a	1	0	0
478.003	1	82	n/a	n/a	1	0	0
478.204	1	82	n/a	n/a	1	0	0
478.253	1	82	n/a	n/a	1	0	0
479.2778	1	10	n/a	n/a	1	52	1
480.5444	1	10	n/a	n/a	1	52	2
481.5942	1	10	n/a	n/a	1	52	3
482.8776	1	10	n/a	n/a	1	52	4
484.0942	1	10	n/a	n/a	1	52	5
485.3108	1	21	n/a	n/a	1	52	0
486.6274	1	10	n/a	n/a	1	52	1
487.6606	1	10	n/a	n/a	1	52	2
488.8272	1	10	n/a	n/a	1	52	3
489.9938	1	21	n/a	n/a	1	52	0
491.1604	1	10	n/a	n/a	1	52	1
492.327	1	21	n/a	n/a	1	52	0
493.6268	1	10	n/a	n/a	1	52	1
494.7934	1	10	n/a	n/a	1	52	2
495.96	1	10	n/a	n/a	1	52	3
497.0934	1	10	n/a	n/a	1	52	4
498.16	1	10	n/a	n/a	1	52	5
499.2266	1	21	n/a	n/a	1	52	0
500.3766	1	10	n/a	n/a	1	52	1
501.7098	1	10	n/a	n/a	1	52	2
502.7594	1	82	n/a	n/a	1	0	0
502.8044	1	82	n/a	n/a	1	0	0
502.9424	1	82	n/a	n/a	1	0	0
503.0134	1	82	n/a	n/a	1	0	0
503.2344	1	82	n/a	n/a	1	0	0
503.7596	1	82	n/a	n/a	1	0	0
503.8066	1	82	n/a	n/a	1	0	0
504.1076	1	82	n/a	n/a	1	0	0
504.2154	1	82	n/a	n/a	1	0	0
504.4434	1	82	n/a	n/a	1	0	0
505.9428	1	10	n/a	n/a	1	52	1
507.1928	1	10	n/a	n/a	1	52	2
508.5094	1	10	n/a	n/a	1	52	3
509.5926	1	10	n/a	n/a	1	52	4
510.6926	1	10	n/a	n/a	1	52	5
511.9592	1	10	n/a	n/a	1	52	6
513.2258	1	10	n/a	n/a	1	52	7
514.4924	1	21	n/a	n/a	1	52	0
515.7756	1	10	n/a	n/a	1	52	1
516.8588	1	10	n/a	n/a	1	52	2
517.9754	1	10	n/a	n/a	1	52	3
519.1754	1	10	n/a	n/a	1	52	4
520.2754	1	10	n/a	n/a	1	52	5
521.5752	1	10	n/a	n/a	1	52	6
522.8586	1	10	n/a	n/a	1	52	7
524.1418	1	21	n/a	n/a	1	52	0
525.425	1	10	n/a	n/a	1	52	1
526.7082	1	21	n/a	n/a	1	52	0
527.7916	1	10	n/a	n/a	1	52	1
529.0914	1	10	n/a	n/a	1	52	2
530.003	1	82	n/a	n/a	1	0	0
530.344	1	82	n/a	n/a	1	0	0
530.437	1	82	n/a	n/a	1	0	0
530.571	1	82	n/a	n/a	1	0	0
530.968	1	82	n/a	n/a	1	0	0
531.003	1	82	n/a	n/a	1	0	0
531.031	1	82	n/a	n/a	1	0	0
531.252	1	82	n/a	n/a	1	0	0
531.322	1	82	n/a	n/a	1	0	0
531.75	1	82	n/a	n/a	1	0	0
532.9912	1	10	n/a	n/a	1	52	1
534.0746	1	10	n/a	n/a	1	52	2
535.3744	1	10	n/a	n/a	1	52	3
536.441	1	10	n/a	n/a	1	52	4
537.4744	1	10	n/a	n/a	1	52	5
538.7742	1	10	n/a	n/a	1	52	6
539.9576	1	10	n/a	n/a	1	52	7
541.1408	1	21	n/a	n/a	1	52	0
542.174	1	10	n/a	n/a	1	52	1
543.374	1	10	n/a	n/a	1	52	2
544.5072	1	10	n/a	n/a	1	52	3
545.6406	1	21	n/a	n/a	1	52	0
546.6738	1	10	n/a	n/a	1	52	1
547.707	1	21	n/a	n/a	1	52	0
548.8904	1	10	n/a	n/a	1	52	1
550.1736	1	10	n/a	n/a	1	52	2
551.3568	1	10	n/a	n/a	1	52	3
552.5402	1	21	n/a	n/a	1	52	0
553.6068	1	10	n/a	n/a	1	52	1
554.79	1	10	n/a	n/a	1	52	2
555.7264	1	82	n/a	n/a	1	0	0
556.1474	1	82	n/a	n/a	1	0	0
556.3704	1	82	n/a	n/a	1	0	0
556.4354	1	82	n/a	n/a	1	0	0
556.5224	1	82	n/a	n/a	1	0	0
556.7264	1	82	n/a	n/a	1	0	0
557.0264	1	82	n/a	n/a	1	0	0
557.0514	1	82	n/a	n/a	1	0	0
557.2474	1	82	n/a	n/a	1	0	0
557.2984	1	82	n/a	n/a	1	0	0
558.873	1	10	n/a	n/a	1	52	1
560.173	1	10	n/a	n/a	1	52	2
561.3562	1	10	n/a	n/a	1	52	3
562.5396	1	21	n/a	n/a	1	52	0
563.6062	1	10	n/a	n/a	1	52	1
564.6728	1	21	n/a	n/a	1	52	0
565.9394	1	10	n/a	n/a	1	52	1
566.9892	1	10	n/a	n/a	1	52	2
568.2058	1	10	n/a	n/a	1	52	3
569.4224	1	21	n/a	n/a	1	52	0
570.639	1	10	n/a	n/a	1	52	1
571.8056	1	10	n/a	n/a	1	52	2
572.8722	1	10	n/a	n/a	1	52	3
574.0056	1	10	n/a	n/a	1	52	4
575.1554	1	10	n/a	n/a	1	52	5
576.3054	1	21	n/a	n/a	1	52	0
577.5886	1	10	n/a	n/a	1	52	1
578.8386	1	10	n/a	n/a	1	52	2
579.9386	1	10	n/a	n/a	1	52	3
581.0384	1	21	n/a	n/a	1	52	0
581.7868	1	82	n/a	n/a	1	0	0
581.9048	1	82	n/a	n/a	1	0	0
582.1468	1	82	n/a	n/a	1	0	0
582.4468	1	82	n/a	n/a	1	0	0
582.4798	1	82	n/a	n/a	1	0	0
582.7868	1	82	n/a	n/a	1	0	0
582.9608	1	82	n/a	n/a	1	0	0
583.0558	1	82	n/a	n/a	1	0	0
583.4418	1	82	n/a	n/a	1	0	0
583.5638	1	82	n/a	n/a	1	0	0
584.8216	1	10	n/a	n/a	1	52	1
586.0714	1	10	n/a	n/a	1	52	2
587.1882	1	10	n/a	n/a	1	52	3
588.3048	1	21	n/a	n/a	1	52	0
589.4214	1	10	n/a	n/a	1	52	1
590.6712	1	10	n/a	n/a	1	52	2
591.7378	1	10	n/a	n/a	1	52	3
592.9378	1	10	n/a	n/a	1	52	4
594.171	1	10	n/a	n/a	1	52	5
595.2376	1	10	n/a	n/a	1	52	6
596.3042	1	10	n/a	n/a	1	52	7
597.3708	1	21	n/a	n/a	1	52	0
598.4208	1	10	n/a	n/a	1	52	1
599.4874	1	10	n/a	n/a	1	52	2
600.604	1	10	n/a	n/a	1	52	3
601.904	1	10	n/a	n/a	1	52	4
602.9372	1	10	n/a	n/a	1	52	5
604.2204	1	10	n/a	n/a	1	52	6
605.487	1	10	n/a	n/a	1	52	7
606.7536	1	21	n/a	n/a	1	52	0
671.1966	1	81	n/a	n/a	1	0	0
671.3966	1	81	n/a	n/a	1	0	0
671.5966	1	81	n/a	n/a	1	0	0
671.7966	1	81	n/a	n/a	1	0	0
671.9966	1	81	n/a	n/a	1	0	0
672.1966	1	81	n/a	n/a	1	0	0
672.3966	1	81	n/a	n/a	1	0	0
672.5966	1	81	n/a	n/a	1	0	0
672.7966	1	81	n/a	n/a	1	0	0
672.9966	1	81	n/a	n/a	1	0	0
674.133	1	10	n/a	n/a	1	52	1
675.183	1	21	n/a	n/a	1	52	0
676.383	1	10	n/a	n/a	1	52	1
677.5828	1	21	n/a	n/a	1	52	0
678.8328	1	10	n/a	n/a	1	52	1
679.966	1	10	n/a	n/a	1	52	2
680.9992	1	10	n/a	n/a	1	52	3
682.2992	1	10	n/a	n/a	1	52	4
683.4158	1	10	n/a	n/a	1	52	5
684.5324	1	21	n/a	n/a	1	52	0
685.6656	1	10	n/a	n/a	1	52	1
686.799	1	10	n/a	n/a	1	52	2
687.9822	1	10	n/a	n/a	1	52	3
689.1654	1	21	n/a	n/a	1	52	0
690.3488	1	10	n/a	n/a	1	52	1
691.432	1	10	n/a	n/a	1	52	2
692.582	1	10	n/a	n/a	1	52	3
693.7318	1	21	n/a	n/a	1	52	0
694.8152	1	10	n/a	n/a	1	52	1
696.0484	1	10	n/a	n/a	1	52	2
697.0638	1	81	n/a	n/a	1	0	0
697.2638	1	81	n/a	n/a	1	0	0
697.4638	1	81	n/a	n/a	1	0	0
697.6638	1	81	n/a	n/a	1	0	0
697.8638	1	81	n/a	n/a	1	0	0
698.0638	1	81	n/a	n/a	1	0	0
698.2638	1	81	n/a	n/a	1	0	0
698.4638	1	81	n/a	n/a	1	0	0
698.6638	1	81	n/a	n/a	1	0	0
698.8638	1	81	n/a	n/a	1	0	0
700.1648	1	10	n/a	n/a	1	52	1
701.3648	1	21	n/a	n/a	1	52	0
702.698	1	10	n/a	n/a	1	52	1
703.748	1	10	n/a	n/a	1	52	2
704.9312	1	10	n/a	n/a	1	52	3
706.0812	1	10	n/a	n/a	1	52	4
707.1144	1	10	n/a	n/a	1	52	5
708.4478	1	10	n/a	n/a	1	52	6
709.6642	1	10	n/a	n/a	1	52	7
710.8808	1	21	n/a	n/a	1	52	0
711.9308	1	10	n/a	n/a	1	52	1
712.9808	1	21	n/a	n/a	1	52	0
714.0308	1	10	n/a	n/a	1	52	1
715.114	1	10	n/a	n/a	1	52	2
716.4138	1	10	n/a	n/a	1	52	3
717.7138	1	21	n/a	n/a	1	52	0
718.8638	1	10	n/a	n/a	1	52	1
719.9136	1	10	n/a	n/a	1	52	2
721.2302	1	10	n/a	n/a	1	52	3
722.4302	1	10	n/a	n/a	1	52	4
723.4026	1	81	n/a	n/a	1	0	0
723.6026	1	81	n/a	n/a	1	0	0
723.8026	1	81	n/a	n/a	1	0	0
724.0026	1	81	n/a	n/a	1	0	0
724.2026	1	81	n/a	n/a	1	0	0
724.4026	1	81	n/a	n/a	1	0	0
724.6026	1	81	n/a	n/a	1	0	0
724.8026	1	81	n/a	n/a	1	0	0
725.0026	1	81	n/a	n/a	1	0	0
725.2026	1	81	n/a	n/a	1	0	0
726.4466	1	10	n/a	n/a	1	52	1
727.48	1	10	n/a	n/a	1	52	2
728.7632	1	10	n/a	n/a	1	52	3
729.9464	1	10	n/a	n/a	1	52	4
731.0298	1	10	n/a	n/a	1	52	5
732.113	1	21	n/a	n/a	1	52	0
733.2796	1	10	n/a	n/a	1	52	1
734.4296	1	10	n/a	n/a	1	52	2
735.4962	1	10	n/a	n/a	1	52	3
736.796	1	10	n/a	n/a	1	52	4
737.9626	1	10	n/a	n/a	1	52	5
739.0792	1	10	n/a	n/a	1	52	6
740.1126	1	10	n/a	n/a	1	52	7
741.1458	1	21	n/a	n/a	1	52	0
742.3124	1	10	n/a	n/a	1	52	1
743.579	1	10	n/a	n/a	1	52	2
744.6622	1	10	n/a	n/a	1	52	3
745.7622	1	10	n/a	n/a	1	52	4
746.9788	1	10	n/a	n/a	1	52	5
748.1788	1	10	n/a	n/a	1	52	6
749.015	1	81	n/a	n/a	1	0	0
749.215	1	81	n/a	n/a	1	0	0
749.415	1	81	n/a	n/a	1	0	0
749.615	1	81	n/a	n/a	1	0	0
749.815	1	81	n/a	n/a	1	0	0
750.0152	1	81	n/a	n/a	1	0	0
750.2152	1	81	n/a	n/a	1	0	0
750.4152	1	81	n/a	n/a	1	0	0
750.615	1	81	n/a	n/a	1	0	0
750.815	1	81	n/a	n/a	1	0	0
752.0452	1	10	n/a	n/a	1	52	1
753.145	1	10	n/a	n/a	1	52	2
754.4616	1	10	n/a	n/a	1	52	3
755.7782	1	21	n/a	n/a	1	52	0
757.0616	1	10	n/a	n/a	1	52	1
758.3614	1	21	n/a	n/a	1	52	0
759.428	1	10	n/a	n/a	1	52	1
760.6614	1	10	n/a	n/a	1	52	2
761.928	1	10	n/a	n/a	1	52	3
762.9946	1	10	n/a	n/a	1	52	4
764.0612	1	10	n/a	n/a	1	52	5
765.1278	1	21	n/a	n/a	1	52	0
766.311	1	10	n/a	n/a	1	52	1
767.4942	1	21	n/a	n/a	1	52	0
768.6276	1	10	n/a	n/a	1	52	1
769.9274	1	10	n/a	n/a	1	52	2
771.194	1	10	n/a	n/a	1	52	3
772.2774	1	10	n/a	n/a	1	52	4
773.3272	1	10	n/a	n/a	1	52	5
774.3772	1	21	n/a	n/a	1	52	0
775.4798	1	81	n/a	n/a	1	0	0
775.6798	1	81	n/a	n/a	1	0	0
775.8798	1	81	n/a	n/a	1	0	0
776.0798	1	81	n/a	n/a	1	0	0
776.2798	1	81	n/a	n/a	1	0	0
776.4806	1	81	n/a	n/a	1	0	0
776.6806	1	81	n/a	n/a	1	0	0
776.8806	1	81	n/a	n/a	1	0	0
777.0806	1	81	n/a	n/a	1	0	0
777.2806	1	81	n/a	n/a	1	0	0
778.5936	1	10	n/a	n/a	1	52	1
779.7268	1	10	n/a	n/a	1	52	2
780.8268	1	10	n/a	n/a	1	52	3
782.0768	1	10	n/a	n/a	1	52	4
783.26	1	10	n/a	n/a	1	52	5
784.4432	1	10	n/a	n/a	1	52	6
785.5266	1	10	n/a	n/a	1	52	7
786.6098	1	21	n/a	n/a	1	52	0
787.893	1	10	n/a	n/a	1	52	1
789.1764	1	21	n/a	n/a	1	52	0
790.4262	1	10	n/a	n/a	1	52	1
791.6762	1	10	n/a	n/a	1	52	2
792.7428	1	10	n/a	n/a	1	52	3
793.8928	1	10	n/a	n/a	1	52	4
795.2094	1	10	n/a	n/a	1	52	5
796.5258	1	21	n/a	n/a	1	52	0
797.8258	1	10	n/a	n/a	1	52	1
799.109	1	10	n/a	n/a	1	52	2
800.2756	1	10	n/a	n/a	1	52	3
801.4256	1	10	n/a	n/a	1	52	4
812.0472	1	82	n/a	n/a	1	0	0
812.1582	1	82	n/a	n/a	1	0	0
812.1902	1	82	n/a	n/a	1	0	0
812.5952	1	82	n/a	n/a	1	0	0
812.8452	1	82	n/a	n/a	1	0	0
813.0472	1	82	n/a	n/a	1	0	0
813.1562	1	82	n/a	n/a	1	0	0
813.2952	1	82	n/a	n/a	1	0	0
813.5772	1	82	n/a	n/a	1	0	0
813.9152	1	82	n/a	n/a	1	0	0
815.1082	1	10	n/a	n/a	1	50	1
816.2748	1	21	n/a	n/a	1	50	0
817.5914	1	10	n/a	n/a	1	50	1
818.708	1	10	n/a	n/a	1	50	2
819.8412	1	10	n/a	n/a	1	50	3
821.1244	1	10	n/a	n/a	1	50	4
822.4244	1	10	n/a	n/a	1	50	5
823.5244	1	10	n/a	n/a	1	50	6
824.7742	1	10	n/a	n/a	1	50	7
826.0242	1	21	n/a	n/a	1	50	0
827.0742	1	10	n/a	n/a	1	50	1
828.2408	1	10	n/a	n/a	1	50	2
829.424	1	10	n/a	n/a	1	50	3
830.5238	1	10	n/a	n/a	1	50	4
831.8404	1	10	n/a	n/a	1	50	5
833.157	1	21	n/a	n/a	1	50	0
834.357	1	10	n/a	n/a	1	50	1
835.5736	1	10	n/a	n/a	1	50	2
836.8902	1	10	n/a	n/a	1	50	3
838.2068	1	21	n/a	n/a	1	50	0
839.1436	1	82	n/a	n/a	1	0	0
839.4736	1	82	n/a	n/a	1	0	0
839.5556	1	82	n/a	n/a	1	0	0
839.9216	1	82	n/a	n/a	1	0	0
839.9786	1	82	n/a	n/a	1	0	0
840.1436	1	82	n/a	n/a	1	0	0
840.2056	1	82	n/a	n/a	1	0	0
840.6166	1	82	n/a	n/a	1	0	0
840.7196	1	82	n/a	n/a	1	0	0
840.8876	1	82	n/a	n/a	1	0	0
842.1232	1	10	n/a	n/a	1	50	1
843.2064	1	21	n/a	n/a	1	50	0
844.2898	1	10	n/a	n/a	1	50	1
845.4564	1	10	n/a	n/a	1	50	2
846.5064	1	10	n/a	n/a	1	50	3
847.5562	1	10	n/a	n/a	1	50	4
848.7062	1	10	n/a	n/a	1	50	5
849.8562	1	21	n/a	n/a	1	50	0
851.0228	1	10	n/a	n/a	1	50	1
852.056	1	10	n/a	n/a	1	50	2
853.1892	1	10	n/a	n/a	1	50	3
854.4058	1	10	n/a	n/a	1	50	4
855.7058	1	10	n/a	n/a	1	50	5
857.0224	1	10	n/a	n/a	1	50	6
858.089	1	10	n/a	n/a	1	50	7
859.1556	1	21	n/a	n/a	1	50	0
860.2388	1	10	n/a	n/a	1	50	1
861.322	1	21	n/a	n/a	1	50	0
862.5554	1	10	n/a	n/a	1	50	1
863.8052	1	10	n/a	n/a	1	50	2
864.5548	1	82	n/a	n/a	1	0	0
864.9358	1	82	n/a	n/a	1	0	0
865.1018	1	82	n/a	n/a	1	0	0
865.3868	1	82	n/a	n/a	1	0	0
865.4788	1	82	n/a	n/a	1	0	0
865.5548	1	82	n/a	n/a	1	0	0
865.9108	1	82	n/a	n/a	1	0	0
866.0818	1	82	n/a	n/a	1	0	0
866.3038	1	82	n/a	n/a	1	0	0
866.3948	1	82	n/a	n/a	1	0	0
867.6218	1	10	n/a	n/a	1	50	1
868.6884	1	10	n/a	n/a	1	50	2
869.855	1	10	n/a	n/a	1	50	3
871.0216	1	21	n/a	n/a	1	50	0
872.2382	1	10	n/a	n/a	1	50	1
873.4548	1	21	n/a	n/a	1	50	0
874.638	1	10	n/a	n/a	1	50	1
875.9212	1	10	n/a	n/a	1	50	2
877.0712	1	10	n/a	n/a	1	50	3
878.3044	1	10	n/a	n/a	1	50	4
879.621	1	10	n/a	n/a	1	50	5
880.9376	1	21	n/a	n/a	1	50	0
882.0376	1	10	n/a	n/a	1	50	1
883.1374	1	21	n/a	n/a	1	50	0
884.2708	1	10	n/a	n/a	1	50	1
885.504	1	10	n/a	n/a	1	50	2
886.704	1	10	n/a	n/a	1	50	3
887.9038	1	21	n/a	n/a	1	50	0
889.2204	1	10	n/a	n/a	1	50	1
890.3538	1	10	n/a	n/a	1	50	2
891.4382	1	82	n/a	n/a	1	0	0
891.5052	1	82	n/a	n/a	1	0	0
891.6782	1	82	n/a	n/a	1	0	0
891.9022	1	82	n/a	n/a	1	0	0
892.1692	1	82	n/a	n/a	1	0	0
892.4382	1	82	n/a	n/a	1	0	0
892.6912	1	82	n/a	n/a	1	0	0
892.7542	1	82	n/a	n/a	1	0	0
892.8392	1	82	n/a	n/a	1	0	0
892.9912	1	82	n/a	n/a	1	0	0
894.6202	1	10	n/a	n/a	1	50	1
895.92	1	10	n/a	n/a	1	50	2
897.17	1	10	n/a	n/a	1	50	3
898.42	1	21	n/a	n/a	1	50	0
899.7366	1	10	n/a	n/a	1	50	1
900.8032	1	10	n/a	n/a	1	50	2
902.0364	1	10	n/a	n/a	1	50	3
903.0696	1	10	n/a	n/a	1	50	4
904.2362	1	10	n/a	n/a	1	50	5
905.4028	1	21	n/a	n/a	1	50	0
906.5862	1	10	n/a	n/a	1	50	1
907.786	1	10	n/a	n/a	1	50	2
908.8194	1	10	n/a	n/a	1	50	3
909.8526	1	21	n/a	n/a	1	50	0
910.8858	1	10	n/a	n/a	1	50	1
911.9192	1	21	n/a	n/a	1	50	0
913.1524	1	10	n/a	n/a	1	50	1
914.2024	1	10	n/a	n/a	1	50	2
915.3356	1	10	n/a	n/a	1	50	3
916.3688	1	10	n/a	n/a	1	50	4
917.4314	1	82	n/a	n/a	1	0	0
917.6764	1	82	n/a	n/a	1	0	0
917.8274	1	82	n/a	n/a	1	0	0
918.0224	1	82	n/a	n/a	1	0	0
918.3524	1	82	n/a	n/a	1	0	0
918.4314	1	82	n/a	n/a	1	0	0
918.7714	1	82	n/a	n/a	1	0	0
918.8884	1	82	n/a	n/a	1	0	0
918.9374	1	82	n/a	n/a	1	0	0
918.9654	1	82	n/a	n/a	1	0	0
920.5854	1	10	n/a	n/a	1	50	1
921.652	1	10	n/a	n/a	1	50	2
922.9352	1	10	n/a	n/a	1	50	3
924.0684	1	10	n/a	n/a	1	50	4
925.2184	1	10	n/a	n/a	1	50	5
926.3016	1	10	n/a	n/a	1	50	6
927.4682	1	10	n/a	n/a	1	50	7
928.6348	1	21	n/a	n/a	1	50	0
929.9514	1	10	n/a	n/a	1	50	1
931.218	1	10	n/a	n/a	1	50	2
932.5346	1	10	n/a	n/a	1	50	3
933.8346	1	10	n/a	n/a	1	50	4
935.1344	1	10	n/a	n/a	1	50	5
936.4344	1	21	n/a	n/a	1	50	0
937.5844	1	10	n/a	n/a	1	50	1
938.7342	1	21	n/a	n/a	1	50	0
939.9342	1	10	n/a	n/a	1	50	1
941.1342	1	21	n/a	n/a	1	50	0
942.184	1	10	n/a	n/a	1	50	1
943.2174	1	10	n/a	n/a	1	50	2
966.8456	1	82	n/a	n/a	1	0	0
967.1326	1	82	n/a	n/a	1	0	0
967.3016	1	82	n/a	n/a	1	0	0
967.6466	1	82	n/a	n/a	1	0	0
967.7446	1	82	n/a	n/a	1	0	0
967.8458	1	82	n/a	n/a	1	0	0
967.9858	1	82	n/a	n/a	1	0	0
968.0368	1	82	n/a	n/a	1	0	0
968.2598	1	82	n/a	n/a	1	0	0
968.4378	1	82	n/a	n/a	1	0	0
970.0158	1	10	n/a	n/a	1	51	1
971.249	1	10	n/a	n/a	1	51	2
972.299	1	10	n/a	n/a	1	51	3
973.5988	1	10	n/a	n/a	1	51	4
974.7988	1	10	n/a	n/a	1	51	5
976.0988	1	10	n/a	n/a	1	51	6
977.382	1	10	n/a	n/a	1	51	7
978.6652	1	21	n/a	n/a	1	51	0
979.8152	1	10	n/a	n/a	1	51	1
980.9652	1	21	n/a	n/a	1	51	0
982.015	1	10	n/a	n/a	1	51	1
983.065	1	21	n/a	n/a	1	51	0
984.165	1	10	n/a	n/a	1	51	1
985.2648	1	21	n/a	n/a	1	51	0
986.5482	1	10	n/a	n/a	1	51	1
987.6148	1	10	n/a	n/a	1	51	2
988.698	1	10	n/a	n/a	1	51	3
989.748	1	10	n/a	n/a	1	51	4
990.9478	1	10	n/a	n/a	1	51	5
992.1478	1	21	n/a	n/a	1	51	0
993.0136	1	82	n/a	n/a	1	0	0
993.2686	1	82	n/a	n/a	1	0	0
993.4406	1	82	n/a	n/a	1	0	0
993.5486	1	82	n/a	n/a	1	0	0
993.9306	1	82	n/a	n/a	1	0	0
994.0136	1	82	n/a	n/a	1	0	0
994.0486	1	82	n/a	n/a	1	0	0
994.2796	1	82	n/a	n/a	1	0	0
994.4686	1	82	n/a	n/a	1	0	0
994.8096	1	82	n/a	n/a	1	0	0
996.1976	1	10	n/a	n/a	1	51	1
997.4808	1	10	n/a	n/a	1	51	2
998.5474	1	10	n/a	n/a	1	51	3
999.7474	1	10	n/a	n/a	1	51	4
1001.014	1	10	n/a	n/a	1	51	5
1002.2806	1	21	n/a	n/a	1	51	0
1003.3804	1	10	n/a	n/a	1	51	1
1004.5304	1	10	n/a	n/a	1	51	2
1005.7804	1	10	n/a	n/a	1	51	3
1006.9636	1	10	n/a	n/a	1	51	4
1008.1468	1	10	n/a	n/a	1	51	5
1009.3302	1	21	n/a	n/a	1	51	0
1010.3968	1	10	n/a	n/a	1	51	1
1011.63	1	10	n/a	n/a	1	51	2
1012.9632	1	10	n/a	n/a	1	51	3
1014.1298	1	10	n/a	n/a	1	51	4
1015.2964	1	10	n/a	n/a	1	51	5
1016.3798	1	10	n/a	n/a	1	51	6
1017.563	1	10	n/a	n/a	1	51	7
1018.7462	1	21	n/a	n/a	1	51	0
1019.7196	1	82	n/a	n/a	1	0	0
1019.8166	1	82	n/a	n/a	1	0	0
1019.8726	1	82	n/a	n/a	1	0	0
1020.0296	1	82	n/a	n/a	1	0	0
1020.3786	1	82	n/a	n/a	1	0	0
1020.7196	1	82	n/a	n/a	1	0	0
1020.9976	1	82	n/a	n/a	1	0	0
1021.3766	1	82	n/a	n/a	1	0	0
1021.4016	1	82	n/a	n/a	1	0	0
1021.4886	1	82	n/a	n/a	1	0	0
1022.6626	1	10	n/a	n/a	1	51	1
1023.7792	1	10	n/a	n/a	1	51	2
1025.0626	1	10	n/a	n/a	1	51	3
1026.3624	1	10	n/a	n/a	1	51	4
1027.4624	1	10	n/a	n/a	1	51	5
1028.7624	1	10	n/a	n/a	1	51	6
1029.929	1	10	n/a	n/a	1	51	7
1031.0956	1	21	n/a	n/a	1	51	0
1032.4122	1	10	n/a	n/a	1	51	1
1033.7286	1	21	n/a	n/a	1	51	0
1034.912	1	10	n/a	n/a	1	51	1
1036.1286	1	10	n/a	n/a	1	51	2
1037.2284	1	10	n/a	n/a	1	51	3
1038.445	1	10	n/a	n/a	1	51	4
1039.6784	1	10	n/a	n/a	1	51	5
1040.9116	1	21	n/a	n/a	1	51	0
1042.2116	1	10	n/a	n/a	1	51	1
1043.2782	1	10	n/a	n/a	1	51	2
1044.3614	1	10	n/a	n/a	1	51	3
1045.4446	1	21	n/a	n/a	1	51	0
1046.5282	1	82	n/a	n/a	1	0	0
1046.6562	1	82	n/a	n/a	1	0	0
1046.7062	1	82	n/a	n/a	1	0	0
1047.0432	1	82	n/a	n/a	1	0	0
1047.4222	1	82	n/a	n/a	1	0	0
1047.529	1	82	n/a	n/a	1	0	0
1047.624	1	82	n/a	n/a	1	0	0
1047.757	1	82	n/a	n/a	1	0	0
1047.964	1	82	n/a	n/a	1	0	0
1048.385	1	82	n/a	n/a	1	0	0
1049.6278	1	10	n/a	n/a	1	51	1
1050.8944	1	10	n/a	n/a	1	51	2
1052.0276	1	10	n/a	n/a	1	51	3
1053.2442	1	10	n/a	n/a	1	51	4
1054.4108	1	10	n/a	n/a	1	51	5
1055.5608	1	10	n/a	n/a	1	51	6
1056.7774	1	10	n/a	n/a	1	51	7
1057.994	1	21	n/a	n/a	1	51	0
1059.2438	1	10	n/a	n/a	1	51	1
1060.3438	1	10	n/a	n/a	1	51	2
1061.6104	1	10	n/a	n/a	1	51	3
1062.927	1	10	n/a	n/a	1	51	4
1064.2436	1	10	n/a	n/a	1	51	5
1065.4936	1	10	n/a	n/a	1	51	6
1066.6768	1	10	n/a	n/a	1	51	7
1067.86	1	21	n/a	n/a	1	51	0
1069.06	1	10	n/a	n/a	1	51	1
1070.2598	1	21	n/a	n/a	1	51	0
1071.5098	1	10	n/a	n/a	1	51	1
1072.8264	1	10	n/a	n/a	1	51	2
1073.585	1	82	n/a	n/a	1	0	0
1073.748	1	82	n/a	n/a	1	0	0
1073.873	1	82	n/a	n/a	1	0	0
1074.115	1	82	n/a	n/a	1	0	0
1074.529	1	82	n/a	n/a	1	0	0
1074.585	1	82	n/a	n/a	1	0	0
1074.864	1	82	n/a	n/a	1	0	0
1075.117	1	82	n/a	n/a	1	0	0
1075.151	1	82	n/a	n/a	1	0	0
1075.329	1	82	n/a	n/a	1	0	0
1076.7262	1	10	n/a	n/a	1	51	1
1077.8762	1	10	n/a	n/a	1	51	2
1078.9928	1	10	n/a	n/a	1	51	3
1080.1094	1	21	n/a	n/a	1	51	0
1081.226	1	10	n/a	n/a	1	51	1
1082.3426	1	21	n/a	n/a	1	51	0
1083.6092	1	10	n/a	n/a	1	51	1
1084.6924	1	10	n/a	n/a	1	51	2
1085.9424	1	10	n/a	n/a	1	51	3
1087.109	1	10	n/a	n/a	1	51	4
1088.2256	1	10	n/a	n/a	1	51	5
1089.3422	1	21	n/a	n/a	1	51	0
1090.592	1	10	n/a	n/a	1	51	1
1091.842	1	10	n/a	n/a	1	51	2
1092.8918	1	10	n/a	n/a	1	51	3
1093.9418	1	21	n/a	n/a	1	51	0
1095.1084	1	10	n/a	n/a	1	51	1
1096.375	1	10	n/a	n/a	1	51	2
1097.4416	1	10	n/a	n/a	1	51	3
1098.6916	1	10	n/a	n/a	1	51	4
1201.5326	1	82	n/a	n/a	1	0	0
1201.8056	1	82	n/a	n/a	1	0	0
1201.9126	1	82	n/a	n/a	1	0	0
1201.9496	1	82	n/a	n/a	1	0	0
1202.3736	1	82	n/a	n/a	1	0	0
1202.5326	1	82	n/a	n/a	1	0	0
1202.6666	1	82	n/a	n/a	1	0	0
1202.9766	1	82	n/a	n/a	1	0	0
1203.2386	1	82	n/a	n/a	1	0	0
1203.4056	1	82	n/a	n/a	1	0	0
1204.7354	1	10	n/a	n/a	1	51	1
1205.952	1	10	n/a	n/a	1	51	2
1207.2186	1	10	n/a	n/a	1	51	3
1208.4852	1	21	n/a	n/a	1	51	0
1209.7184	1	10	n/a	n/a	1	51	1
1210.935	1	10	n/a	n/a	1	51	2
1212.1182	1	10	n/a	n/a	1	51	3
1213.3016	1	21	n/a	n/a	1	51	0
1214.4848	1	10	n/a	n/a	1	51	1
1215.5348	1	10	n/a	n/a	1	51	2
1216.568	1	10	n/a	n/a	1	51	3
1217.6012	1	10	n/a	n/a	1	51	4
1218.8678	1	10	n/a	n/a	1	51	5
1219.9178	1	10	n/a	n/a	1	51	6
1221.1178	1	10	n/a	n/a	1	51	7
1222.3176	1	21	n/a	n/a	1	51	0
1223.551	1	10	n/a	n/a	1	51	1
1224.7842	1	21	n/a	n/a	1	51	0
1225.8674	1	10	n/a	n/a	1	51	1
1226.9508	1	21	n/a	n/a	1	51	0
1227.7844	1	82	n/a	n/a	1	0	0
1228.0354	1	82	n/a	n/a	1	0	0
1228.1474	1	82	n/a	n/a	1	0	0
1228.4814	1	82	n/a	n/a	1	0	0
1228.5274	1	82	n/a	n/a	1	0	0
1228.7844	1	82	n/a	n/a	1	0	0
1228.8194	1	82	n/a	n/a	1	0	0
1229.1764	1	82	n/a	n/a	1	0	0
1229.4614	1	82	n/a	n/a	1	0	0
1229.6354	1	82	n/a	n/a	1	0	0
1230.8338	1	10	n/a	n/a	1	51	1
1231.9338	1	10	n/a	n/a	1	51	2
1233.0004	1	10	n/a	n/a	1	51	3
1234.067	1	21	n/a	n/a	1	51	0
1235.217	1	10	n/a	n/a	1	51	1
1236.2668	1	10	n/a	n/a	1	51	2
1237.4502	1	10	n/a	n/a	1	51	3
1238.75	1	10	n/a	n/a	1	51	4
1239.8334	1	10	n/a	n/a	1	51	5
1240.9166	1	21	n/a	n/a	1	51	0
1242.2164	1	10	n/a	n/a	1	51	1
1243.283	1	10	n/a	n/a	1	51	2
1244.333	1	10	n/a	n/a	1	51	3
1245.383	1	21	n/a	n/a	1	51	0
1246.5162	1	10	n/a	n/a	1	51	1
1247.6996	1	10	n/a	n/a	1	51	2
1248.8662	1	10	n/a	n/a	1	51	3
1250.0994	1	10	n/a	n/a	1	51	4
1251.3492	1	10	n/a	n/a	1	51	5
1252.5992	1	21	n/a	n/a	1	51	0
1253.66	1	82	n/a	n/a	1	0	0
1253.907	1	82	n/a	n/a	1	0	0
1254.225	1	82	n/a	n/a	1	0	0
1254.303	1	82	n/a	n/a	1	0	0
1254.328	1	82	n/a	n/a	1	0	0
1254.66	1	82	n/a	n/a	1	0	0
1254.759	1	82	n/a	n/a	1	0	0
1254.997	1	82	n/a	n/a	1	0	0
1255.333	1	82	n/a	n/a	1	0	0
1255.46	1	82	n/a	n/a	1	0	0
1256.799	1	10	n/a	n/a	1	51	1
1257.8656	1	10	n/a	n/a	1	51	2
1258.9988	1	10	n/a	n/a	1	51	3
1260.1988	1	10	n/a	n/a	1	51	4
1261.232	1	10	n/a	n/a	1	51	5
1262.2654	1	21	n/a	n/a	1	51	0
1263.4486	1	10	n/a	n/a	1	51	1
1264.5318	1	10	n/a	n/a	1	51	2
1265.6152	1	10	n/a	n/a	1	51	3
1266.915	1	10	n/a	n/a	1	51	4
1268.015	1	10	n/a	n/a	1	51	5
1269.115	1	21	n/a	n/a	1	51	0
1270.1648	1	10	n/a	n/a	1	51	1
1271.2648	1	10	n/a	n/a	1	51	2
1272.398	1	10	n/a	n/a	1	51	3
1273.5314	1	21	n/a	n/a	1	51	0
1274.6646	1	10	n/a	n/a	1	51	1
1275.7646	1	10	n/a	n/a	1	51	2
1277.0812	1	10	n/a	n/a	1	51	3
1278.181	1	10	n/a	n/a	1	51	4
1278.9526	1	82	n/a	n/a	1	0	0
1279.0426	1	82	n/a	n/a	1	0	0
1279.1736	1	82	n/a	n/a	1	0	0
1279.5926	1	82	n/a	n/a	1	0	0
1279.8586	1	82	n/a	n/a	1	0	0
1279.9526	1	82	n/a	n/a	1	0	0
1280.3176	1	82	n/a	n/a	1	0	0
1280.4306	1	82	n/a	n/a	1	0	0
1280.6526	1	82	n/a	n/a	1	0	0
1280.7376	1	82	n/a	n/a	1	0	0
1282.0974	1	10	n/a	n/a	1	51	1
1283.3474	1	21	n/a	n/a	1	51	0
1284.664	1	10	n/a	n/a	1	51	1
1285.7306	1	10	n/a	n/a	1	51	2
1286.8638	1	10	n/a	n/a	1	51	3
1288.0638	1	10	n/a	n/a	1	51	4
1289.1304	1	10	n/a	n/a	1	51	5
1290.347	1	10	n/a	n/a	1	51	6
1291.4302	1	10	n/a	n/a	1	51	7
1292.5136	1	21	n/a	n/a	1	51	0
1293.6468	1	10	n/a	n/a	1	51	1
1294.93	1	10	n/a	n/a	1	51	2
1296.0966	1	10	n/a	n/a	1	51	3
1297.2632	1	21	n/a	n/a	1	51	0
1298.4798	1	10	n/a	n/a	1	51	1
1299.6964	1	21	n/a	n/a	1	51	0
1300.813	1	10	n/a	n/a	1	51	1
1301.9296	1	10	n/a	n/a	1	51	2
1303.2462	1	10	n/a	n/a	1	51	3
1304.3628	1	10	n/a	n/a	1	51	4
1305.3734	1	82	n/a	n/a	1	0	0
1305.7304	1	82	n/a	n/a	1	0	0
1305.8454	1	82	n/a	n/a	1	0	0
1305.9044	1	82	n/a	n/a	1	0	0
1306.0484	1	82	n/a	n/a	1	0	0
1306.3734	1	82	n/a	n/a	1	0	0
1306.5984	1	82	n/a	n/a	1	0	0
1306.7464	1	82	n/a	n/a	1	0	0
1306.8594	1	82	n/a	n/a	1	0	0
1306.9254	1	82	n/a	n/a	1	0	0
1308.3792	1	10	n/a	n/a	1	51	1
1309.4126	1	10	n/a	n/a	1	51	2
1310.4792	1	10	n/a	n/a	1	51	3
1311.5624	1	10	n/a	n/a	1	51	4
1312.729	1	10	n/a	n/a	1	51	5
1313.9456	1	10	n/a	n/a	1	51	6
1315.1288	1	10	n/a	n/a	1	51	7
1316.3122	1	21	n/a	n/a	1	51	0
1317.4454	1	10	n/a	n/a	1	51	1
1318.5454	1	10	n/a	n/a	1	51	2
1319.5786	1	10	n/a	n/a	1	51	3
1320.7952	1	10	n/a	n/a	1	51	4
1321.9284	1	10	n/a	n/a	1	51	5
1323.0618	1	10	n/a	n/a	1	51	6
1324.2116	1	10	n/a	n/a	1	51	7
1325.3616	1	21	n/a	n/a	1	51	0
1326.6782	1	10	n/a	n/a	1	51	1
1327.9282	1	10	n/a	n/a	1	51	2
1328.978	1	10	n/a	n/a	1	51	3
1330.1614	1	10	n/a	n/a	1	51	4
1338.6872	1	82	n/a	n/a	1	0	0
1339.0832	1	82	n/a	n/a	1	0	0
1339.4022	1	82	n/a	n/a	1	0	0
1339.5292	1	82	n/a	n/a	1	0	0
1339.5502	1	82	n/a	n/a	1	0	0
1339.6872	1	82	n/a	n/a	1	0	0
1339.8172	1	82	n/a	n/a	1	0	0
1340.2072	1	82	n/a	n/a	1	0	0
1340.2882	1	82	n/a	n/a	1	0	0
1340.6322	1	82	n/a	n/a	1	0	0
1341.894	1	10	n/a	n/a	1	50	1
1343.0606	1	10	n/a	n/a	1	50	2
1344.3438	1	10	n/a	n/a	1	50	3
1345.6272	1	21	n/a	n/a	1	50	0
1346.8104	1	10	n/a	n/a	1	50	1
1348.077	1	10	n/a	n/a	1	50	2
1349.2602	1	10	n/a	n/a	1	50	3
1350.4434	1	21	n/a	n/a	1	50	0
1351.6768	1	10	n/a	n/a	1	50	1
1352.9934	1	10	n/a	n/a	1	50	2
1354.0932	1	10	n/a	n/a	1	50	3
1355.1932	1	10	n/a	n/a	1	50	4
1356.4932	1	10	n/a	n/a	1	50	5
1357.793	1	21	n/a	n/a	1	50	0
1359.0264	1	10	n/a	n/a	1	50	1
1360.293	1	10	n/a	n/a	1	50	2
1361.5096	1	10	n/a	n/a	1	50	3
1362.7262	1	21	n/a	n/a	1	50	0
1363.8094	1	10	n/a	n/a	1	50	1
1364.8926	1	21	n/a	n/a	1	50	0
1365.6334	1	82	n/a	n/a	1	0	0
1365.6544	1	82	n/a	n/a	1	0	0
1366.0474	1	82	n/a	n/a	1	0	0
1366.3534	1	82	n/a	n/a	1	0	0
1366.4894	1	82	n/a	n/a	1	0	0
1366.6334	1	82	n/a	n/a	1	0	0
1366.6644	1	82	n/a	n/a	1	0	0
1366.8024	1	82	n/a	n/a	1	0	0
1366.8974	1	82	n/a	n/a	1	0	0
1367.1484	1	82	n/a	n/a	1	0	0
1368.6924	1	10	n/a	n/a	1	50	1
1369.9756	1	10	n/a	n/a	1	50	2
1371.0756	1	10	n/a	n/a	1	50	3
1372.1756	1	21	n/a	n/a	1	50	0
1373.3922	1	10	n/a	n/a	1	50	1
1374.5754	1	10	n/a	n/a	1	50	2
1375.642	1	10	n/a	n/a	1	50	3
1376.7086	1	10	n/a	n/a	1	50	4
1377.9586	1	10	n/a	n/a	1	50	5
1379.0918	1	10	n/a	n/a	1	50	6
1380.3084	1	10	n/a	n/a	1	50	7
1381.525	1	21	n/a	n/a	1	50	0
1382.725	1	10	n/a	n/a	1	50	1
1383.7748	1	10	n/a	n/a	1	50	2
1385.0914	1	10	n/a	n/a	1	50	3
1386.3248	1	10	n/a	n/a	1	50	4
1387.5914	1	10	n/a	n/a	1	50	5
1388.6412	1	10	n/a	n/a	1	50	6
1389.6746	1	10	n/a	n/a	1	50	7
1390.7078	1	21	n/a	n/a	1	50	0
1391.7896	1	82	n/a	n/a	1	0	0
1391.9616	1	82	n/a	n/a	1	0	0
1392.4006	1	82	n/a	n/a	1	0	0
1392.6576	1	82	n/a	n/a	1	0	0
1392.7556	1	82	n/a	n/a	1	0	0
1392.7896	1	82	n/a	n/a	1	0	0
1393.1026	1	82	n/a	n/a	1	0	0
1393.2216	1	82	n/a	n/a	1	0	0
1393.4336	1	82	n/a	n/a	1	0	0
1393.4576	1	82	n/a	n/a	1	0	0
1394.7742	1	10	n/a	n/a	1	50	1
1395.9408	1	10	n/a	n/a	1	50	2
1397.2574	1	10	n/a	n/a	1	50	3
1398.2908	1	10	n/a	n/a	1	50	4
1399.324	1	10	n/a	n/a	1	50	5
1400.3572	1	21	n/a	n/a	1	50	0
1401.5238	1	10	n/a	n/a	1	50	1
1402.6904	1	21	n/a	n/a	1	50	0
1403.8738	1	10	n/a	n/a	1	50	1
1405.057	1	10	n/a	n/a	1	50	2
1406.3568	1	10	n/a	n/a	1	50	3
1407.6734	1	10	n/a	n/a	1	50	4
1408.99	1	10	n/a	n/a	1	50	5
1410.1734	1	10	n/a	n/a	1	50	6
1411.29	1	10	n/a	n/a	1	50	7
1412.4066	1	21	n/a	n/a	1	50	0
1413.4398	1	10	n/a	n/a	1	50	1
1414.7398	1	10	n/a	n/a	1	50	2
1415.7896	1	10	n/a	n/a	1	50	3
1416.9062	1	10	n/a	n/a	1	50	4
1417.781	1	82	n/a	n/a	1	0	0
1417.942	1	82	n/a	n/a	1	0	0
1418.021	1	82	n/a	n/a	1	0	0
1418.261	1	82	n/a	n/a	1	0	0
1418.536	1	82	n/a	n/a	1	0	0
1418.781	1	82	n/a	n/a	1	0	0
1419.008	1	82	n/a	n/a	1	0	0
1419.16	1	82	n/a	n/a	1	0	0
1419.439	1	82	n/a	n/a	1	0	0
1419.689	1	82	n/a	n/a	1	0	0
1420.8894	1	10	n/a	n/a	1	50	1
1421.9726	1	10	n/a	n/a	1	50	2
1423.0726	1	10	n/a	n/a	1	50	3
1424.2392	1	10	n/a	n/a	1	50	4
1425.3058	1	10	n/a	n/a	1	50	5
1426.489	1	10	n/a	n/a	1	50	6
1427.7556	1	10	n/a	n/a	1	50	7
1429.0222	1	21	n/a	n/a	1	50	0
1430.1054	1	10	n/a	n/a	1	50	1
1431.2888	1	10	n/a	n/a	1	50	2
1432.372	1	10	n/a	n/a	1	50	3
1433.4554	1	21	n/a	n/a	1	50	0
1434.7718	1	10	n/a	n/a	1	50	1
1435.8884	1	10	n/a	n/a	1	50	2
1437.0718	1	10	n/a	n/a	1	50	3
1438.255	1	21	n/a	n/a	1	50	0
1439.4882	1	10	n/a	n/a	1	50	1
1440.7216	1	21	n/a	n/a	1	50	0
1441.9214	1	10	n/a	n/a	1	50	1
1443.138	1	10	n/a	n/a	1	50	2
1444.2226	1	82	n/a	n/a	1	0	0
1444.2786	1	82	n/a	n/a	1	0	0
1444.3696	1	82	n/a	n/a	1	0	0
1444.5566	1	82	n/a	n/a	1	0	0
1444.9776	1	82	n/a	n/a	1	0	0
1445.2226	1	82	n/a	n/a	1	0	0
1445.3316	1	82	n/a	n/a	1	0	0
1445.7386	1	82	n/a	n/a	1	0	0
1445.8106	1	82	n/a	n/a	1	0	0
1446.1916	1	82	n/a	n/a	1	0	0
1447.4212	1	10	n/a	n/a	1	50	1
1448.5044	1	10	n/a	n/a	1	50	2
1449.721	1	10	n/a	n/a	1	50	3
1450.9376	1	21	n/a	n/a	1	50	0
1452.0208	1	10	n/a	n/a	1	50	1
1453.1042	1	21	n/a	n/a	1	50	0
1454.3708	1	10	n/a	n/a	1	50	1
1455.6206	1	21	n/a	n/a	1	50	0
1456.7372	1	10	n/a	n/a	1	50	1
1457.8538	1	21	n/a	n/a	1	50	0
1458.9204	1	10	n/a	n/a	1	50	1
1459.987	1	21	n/a	n/a	1	50	0
1461.2536	1	10	n/a	n/a	1	50	1
1462.287	1	10	n/a	n/a	1	50	2
1463.3702	1	10	n/a	n/a	1	50	3
1464.4702	1	10	n/a	n/a	1	50	4
1465.5868	1	10	n/a	n/a	1	50	5
1466.67	1	10	n/a	n/a	1	50	6
1467.8366	1	10	n/a	n/a	1	50	7
1469.0032	1	21	n/a	n/a	1	50	0
1494.9286	1	81	n/a	n/a	1	0	0
1495.1286	1	81	n/a	n/a	1	0	0
1495.3286	1	81	n/a	n/a	1	0	0
1495.5286	1	81	n/a	n/a	1	0	0
1495.7286	1	81	n/a	n/a	1	0	0
1495.9286	1	81	n/a	n/a	1	0	0
1496.1286	1	81	n/a	n/a	1	0	0
1496.3286	1	81	n/a	n/a	1	0	0
1496.5286	1	81	n/a	n/a	1	0	0
1496.7286	1	81	n/a	n/a	1	0	0
1498.0516	1	10	n/a	n/a	1	52	1
1499.2848	1	21	n/a	n/a	1	52	0
1500.468	1	10	n/a	n/a	1	52	1
1501.7346	1	10	n/a	n/a	1	52	2
1502.818	1	10	n/a	n/a	1	52	3
1503.9346	1	10	n/a	n/a	1	52	4
1505.2178	1	10	n/a	n/a	1	52	5
1506.4844	1	10	n/a	n/a	1	52	6
1507.6842	1	10	n/a	n/a	1	52	7
1508.8842	1	21	n/a	n/a	1	52	0
1510.0174	1	10	n/a	n/a	1	52	1
1511.2508	1	10	n/a	n/a	1	52	2
1512.534	1	10	n/a	n/a	1	52	3
1513.734	1	10	n/a	n/a	1	52	4
1514.8338	1	10	n/a	n/a	1	52	5
1515.9338	1	21	n/a	n/a	1	52	0
1516.967	1	10	n/a	n/a	1	52	1
1518.217	1	10	n/a	n/a	1	52	2
1519.367	1	10	n/a	n/a	1	52	3
1520.4168	1	10	n/a	n/a	1	52	4
1521.4932	1	81	n/a	n/a	1	0	0
1521.6932	1	81	n/a	n/a	1	0	0
1521.8932	1	81	n/a	n/a	1	0	0
1522.0932	1	81	n/a	n/a	1	0	0
1522.2932	1	81	n/a	n/a	1	0	0
1522.4932	1	81	n/a	n/a	1	0	0
1522.6932	1	81	n/a	n/a	1	0	0
1522.8932	1	81	n/a	n/a	1	0	0
1523.0932	1	81	n/a	n/a	1	0	0
1523.2932	1	81	n/a	n/a	1	0	0
1524.55	1	10	n/a	n/a	1	52	1
1525.7166	1	21	n/a	n/a	1	52	0
1526.8332	1	10	n/a	n/a	1	52	1
1527.9664	1	10	n/a	n/a	1	52	2
1529.133	1	10	n/a	n/a	1	52	3
1530.2162	1	10	n/a	n/a	1	52	4
1531.283	1	10	n/a	n/a	1	52	5
1532.3496	1	21	n/a	n/a	1	52	0
1533.6328	1	10	n/a	n/a	1	52	1
1534.866	1	10	n/a	n/a	1	52	2
1536.1826	1	10	n/a	n/a	1	52	3
1537.4992	1	10	n/a	n/a	1	52	4
1538.6158	1	10	n/a	n/a	1	52	5
1539.8658	1	10	n/a	n/a	1	52	6
1541.1324	1	10	n/a	n/a	1	52	7
1542.399	1	21	n/a	n/a	1	52	0
1543.5156	1	10	n/a	n/a	1	52	1
1544.6322	1	21	n/a	n/a	1	52	0
1545.932	1	10	n/a	n/a	1	52	1
1547.1486	1	10	n/a	n/a	1	52	2
1548.0934	1	81	n/a	n/a	1	0	0
1548.2932	1	81	n/a	n/a	1	0	0
1548.4932	1	81	n/a	n/a	1	0	0
1548.6932	1	81	n/a	n/a	1	0	0
1548.8932	1	81	n/a	n/a	1	0	0
1549.0934	1	81	n/a	n/a	1	0	0
1549.2934	1	81	n/a	n/a	1	0	0
1549.4934	1	81	n/a	n/a	1	0	0
1549.6934	1	81	n/a	n/a	1	0	0
1549.8934	1	81	n/a	n/a	1	0	0
1551.2484	1	10	n/a	n/a	1	52	1
1552.3984	1	10	n/a	n/a	1	52	2
1553.4816	1	10	n/a	n/a	1	52	3
1554.5648	1	21	n/a	n/a	1	52	0
1555.6314	1	10	n/a	n/a	1	52	1
1556.6648	1	10	n/a	n/a	1	52	2
1557.9146	1	10	n/a	n/a	1	52	3
1558.9646	1	10	n/a	n/a	1	52	4
1560.0146	1	10	n/a	n/a	1	52	5
1561.2644	1	10	n/a	n/a	1	52	6
1562.5644	1	10	n/a	n/a	1	52	7
1563.8644	1	21	n/a	n/a	1	52	0
1564.931	1	10	n/a	n/a	1	52	1
1566.2476	1	10	n/a	n/a	1	52	2
1567.3974	1	10	n/a	n/a	1	52	3
1568.5974	1	10	n/a	n/a	1	52	4
1569.7974	1	10	n/a	n/a	1	52	5
1570.8972	1	10	n/a	n/a	1	52	6
1572.0306	1	10	n/a	n/a	1	52	7
1573.1638	1	21	n/a	n/a	1	52	0
1574.2234	1	81	n/a	n/a	1	0	0
1574.4234	1	81	n/a	n/a	1	0	0
1574.6234	1	81	n/a	n/a	1	0	0
1574.8234	1	81	n/a	n/a	1	0	0
1575.0234	1	81	n/a	n/a	1	0	0
1575.2234	1	81	n/a	n/a	1	0	0
1575.4234	1	81	n/a	n/a	1	0	0
1575.6234	1	81	n/a	n/a	1	0	0
1575.8234	1	81	n/a	n/a	1	0	0
1576.0234	1	81	n/a	n/a	1	0	0
1577.1468	1	10	n/a	n/a	1	52	1
1578.3968	1	10	n/a	n/a	1	52	2
1579.4968	1	10	n/a	n/a	1	52	3
1580.73	1	10	n/a	n/a	1	52	4
1581.9632	1	10	n/a	n/a	1	52	5
1583.1798	1	10	n/a	n/a	1	52	6
1584.4964	1	10	n/a	n/a	1	52	7
1585.813	1	21	n/a	n/a	1	52	0
1586.9464	1	10	n/a	n/a	1	52	1
1588.0796	1	21	n/a	n/a	1	52	0
1589.2796	1	10	n/a	n/a	1	52	1
1590.4794	1	21	n/a	n/a	1	52	0
1591.796	1	10	n/a	n/a	1	52	1
1593.1126	1	21	n/a	n/a	1	52	0
1594.3626	1	10	n/a	n/a	1	52	1
1595.6124	1	10	n/a	n/a	1	52	2
1596.6624	1	10	n/a	n/a	1	52	3
1597.879	1	10	n/a	n/a	1	52	4
1599.1456	1	10	n/a	n/a	1	52	5
1600.4122	1	21	n/a	n/a	1	52	0
1601.4988	1	81	n/a	n/a	1	0	0
1601.6988	1	81	n/a	n/a	1	0	0
1601.8988	1	81	n/a	n/a	1	0	0
1602.0988	1	81	n/a	n/a	1	0	0
1602.2988	1	81	n/a	n/a	1	0	0
1602.4988	1	81	n/a	n/a	1	0	0
1602.6988	1	81	n/a	n/a	1	0	0
1602.8988	1	81	n/a	n/a	1	0	0
1603.0988	1	81	n/a	n/a	1	0	0
1603.2988	1	81	n/a	n/a	1	0	0
1604.462	1	10	n/a	n/a	1	52	1
1605.6952	1	10	n/a	n/a	1	52	2
1606.8118	1	10	n/a	n/a	1	52	3
1608.0618	1	10	n/a	n/a	1	52	4
1609.1284	1	10	n/a	n/a	1	52	5
1610.195	1	21	n/a	n/a	1	52	0
1611.4448	1	10	n/a	n/a	1	52	1
1612.5282	1	10	n/a	n/a	1	52	2
1613.628	1	10	n/a	n/a	1	52	3
1614.8946	1	10	n/a	n/a	1	52	4
1616.078	1	10	n/a	n/a	1	52	5
1617.1612	1	10	n/a	n/a	1	52	6
1618.1944	1	10	n/a	n/a	1	52	7
1619.2278	1	21	n/a	n/a	1	52	0
1620.311	1	10	n/a	n/a	1	52	1
1621.4942	1	10	n/a	n/a	1	52	2
1622.7776	1	10	n/a	n/a	1	52	3
1623.8774	1	10	n/a	n/a	1	52	4
1625.094	1	10	n/a	n/a	1	52	5
1626.1274	1	10	n/a	n/a	1	52	6
1673.1596	1	82	n/a	n/a	1	0	0
1673.2406	1	82	n/a	n/a	1	0	0
1673.3976	1	82	n/a	n/a	1	0	0
1673.5816	1	82	n/a	n/a	1	0	0
1673.8776	1	82	n/a	n/a	1	0	0
1674.1596	1	82	n/a	n/a	1	0	0
1674.2616	1	82	n/a	n/a	1	0	0
1674.3376	1	82	n/a	n/a	1	0	0
1674.5978	1	82	n/a	n/a	1	0	0
1674.9286	1	82	n/a	n/a	1	0	0
1676.291	1	10	n/a	n/a	1	51	1
1677.5244	1	10	n/a	n/a	1	51	2
1678.841	1	10	n/a	n/a	1	51	3
1679.9408	1	10	n/a	n/a	1	51	4
1681.0408	1	10	n/a	n/a	1	51	5
1682.3074	1	10	n/a	n/a	1	51	6
1683.624	1	10	n/a	n/a	1	51	7
1684.9406	1	21	n/a	n/a	1	51	0
1686.0906	1	10	n/a	n/a	1	51	1
1687.2404	1	21	n/a	n/a	1	51	0
1688.2904	1	10	n/a	n/a	1	51	1
1689.407	1	10	n/a	n/a	1	51	2
1690.4902	1	10	n/a	n/a	1	51	3
1691.5402	1	10	n/a	n/a	1	51	4
1692.7568	1	10	n/a	n/a	1	51	5
1693.8734	1	10	n/a	n/a	1	51	6
1694.9066	1	10	n/a	n/a	1	51	7
1695.94	1	21	n/a	n/a	1	51	0
1697.1566	1	10	n/a	n/a	1	51	1
1698.1898	1	10	n/a	n/a	1	51	2
1699.2442	1	82	n/a	n/a	1	0	0
1699.3382	1	82	n/a	n/a	1	0	0
1699.7592	1	82	n/a	n/a	1	0	0
1699.8912	1	82	n/a	n/a	1	0	0
1699.9622	1	82	n/a	n/a	1	0	0
1700.2442	1	82	n/a	n/a	1	0	0
1700.5692	1	82	n/a	n/a	1	0	0
1700.7102	1	82	n/a	n/a	1	0	0
1700.8212	1	82	n/a	n/a	1	0	0
1701.0512	1	82	n/a	n/a	1	0	0
1702.3396	1	10	n/a	n/a	1	51	1
1703.5728	1	10	n/a	n/a	1	51	2
1704.7728	1	10	n/a	n/a	1	51	3
1705.9226	1	10	n/a	n/a	1	51	4
1707.0392	1	10	n/a	n/a	1	51	5
1708.1558	1	10	n/a	n/a	1	51	6
1709.2724	1	10	n/a	n/a	1	51	7
1710.389	1	21	n/a	n/a	1	51	0
1711.5556	1	10	n/a	n/a	1	51	1
1712.6222	1	10	n/a	n/a	1	51	2
1713.8556	1	10	n/a	n/a	1	51	3
1715.0722	1	10	n/a	n/a	1	51	4
1716.4054	1	10	n/a	n/a	1	51	5
1717.572	1	10	n/a	n/a	1	51	6
1718.6052	1	10	n/a	n/a	1	51	7
1719.6386	1	21	n/a	n/a	1	51	0
1720.9052	1	10	n/a	n/a	1	51	1
1722.1384	1	10	n/a	n/a	1	51	2
1723.2384	1	10	n/a	n/a	1	51	3
1724.4716	1	10	n/a	n/a	1	51	4
1725.298	1	82	n/a	n/a	1	0	0
1725.594	1	82	n/a	n/a	1	0	0
1725.833	1	82	n/a	n/a	1	0	0
1725.946	1	82	n/a	n/a	1	0	0
1726.013	1	82	n/a	n/a	1	0	0
1726.2982	1	82	n/a	n/a	1	0	0
1726.6132	1	82	n/a	n/a	1	0	0
1726.8632	1	82	n/a	n/a	1	0	0
1726.9742	1	82	n/a	n/a	1	0	0
1727.245	1	82	n/a	n/a	1	0	0
1728.438	1	10	n/a	n/a	1	51	1
1729.688	1	21	n/a	n/a	1	51	0
1730.9546	1	10	n/a	n/a	1	51	1
1732.1378	1	10	n/a	n/a	1	51	2
1733.4044	1	10	n/a	n/a	1	51	3
1734.671	1	21	n/a	n/a	1	51	0
1735.721	1	10	n/a	n/a	1	51	1
1736.7876	1	10	n/a	n/a	1	51	2
1737.9042	1	10	n/a	n/a	1	51	3
1739.0208	1	21	n/a	n/a	1	51	0
1740.104	1	10	n/a	n/a	1	51	1
1741.1872	1	21	n/a	n/a	1	51	0
1742.4372	1	10	n/a	n/a	1	51	1
1743.7538	1	10	n/a	n/a	1	51	2
1745.0538	1	10	n/a	n/a	1	51	3
1746.3536	1	21	n/a	n/a	1	51	0
1747.5536	1	10	n/a	n/a	1	51	1
1748.7202	1	10	n/a	n/a	1	51	2
1749.9368	1	10	n/a	n/a	1	51	3
1750.97	1	10	n/a	n/a	1	51	4
1751.7394	1	82	n/a	n/a	1	0	0
1752.0044	1	82	n/a	n/a	1	0	0
1752.3074	1	82	n/a	n/a	1	0	0
1752.4934	1	82	n/a	n/a	1	0	0
1752.5744	1	82	n/a	n/a	1	0	0
1752.7394	1	82	n/a	n/a	1	0	0
1752.7604	1	82	n/a	n/a	1	0	0
1753.1014	1	82	n/a	n/a	1	0	0
1753.3874	1	82	n/a	n/a	1	0	0
1753.6204	1	82	n/a	n/a	1	0	0
1754.9364	1	10	n/a	n/a	1	51	1
1756.0198	1	10	n/a	n/a	1	51	2
1757.2196	1	10	n/a	n/a	1	51	3
1758.4696	1	10	n/a	n/a	1	51	4
1759.6028	1	10	n/a	n/a	1	51	5
1760.8528	1	10	n/a	n/a	1	51	6
1762.1028	1	10	n/a	n/a	1	51	7
1763.3526	1	21	n/a	n/a	1	51	0
1764.4526	1	10	n/a	n/a	1	51	1
1765.7192	1	10	n/a	n/a	1	51	2
1766.8358	1	10	n/a	n/a	1	51	3
1767.9524	1	21	n/a	n/a	1	51	0
1769.0856	1	10	n/a	n/a	1	51	1
1770.2856	1	10	n/a	n/a	1	51	2
1771.4856	1	10	n/a	n/a	1	51	3
1772.6854	1	10	n/a	n/a	1	51	4
1773.7188	1	10	n/a	n/a	1	51	5
1774.752	1	21	n/a	n/a	1	51	0
1776.0352	1	10	n/a	n/a	1	51	1
1777.0852	1	10	n/a	n/a	1	51	2
1778.0938	1	82	n/a	n/a	1	0	0
1778.1628	1	82	n/a	n/a	1	0	0
1778.4868	1	82	n/a	n/a	1	0	0
1778.8968	1	82	n/a	n/a	1	0	0
1778.9428	1	82	n/a	n/a	1	0	0
1779.0946	1	82	n/a	n/a	1	0	0
1779.2056	1	82	n/a	n/a	1	0	0
1779.2386	1	82	n/a	n/a	1	0	0
1779.5496	1	82	n/a	n/a	1	0	0
1779.7866	1	82	n/a	n/a	1	0	0
1781.1516	1	10	n/a	n/a	1	51	1
1782.3682	1	10	n/a	n/a	1	51	2
1783.6182	1	10	n/a	n/a	1	51	3
1784.818	1	10	n/a	n/a	1	51	4
1785.918	1	10	n/a	n/a	1	51	5
1787.018	1	21	n/a	n/a	1	51	0
1788.1178	1	10	n/a	n/a	1	51	1
1789.3512	1	10	n/a	n/a	1	51	2
1790.5178	1	10	n/a	n/a	1	51	3
1791.5676	1	10	n/a	n/a	1	51	4
1792.651	1	10	n/a	n/a	1	51	5
1793.7342	1	21	n/a	n/a	1	51	0
1794.8342	1	10	n/a	n/a	1	51	1
1796.0674	1	10	n/a	n/a	1	51	2
1797.3006	1	10	n/a	n/a	1	51	3
1798.434	1	10	n/a	n/a	1	51	4
1799.5838	1	10	n/a	n/a	1	51	5
1800.7338	1	21	n/a	n/a	1	51	0
1801.867	1	10	n/a	n/a	1	51	1
1802.9836	1	10	n/a	n/a	1	51	2
1812.3562	1	81	n/a	n/a	1	0	0
1812.5562	1	81	n/a	n/a	1	0	0
1812.7562	1	81	n/a	n/a	1	0	0
1812.9562	1	81	n/a	n/a	1	0	0
1813.1562	1	81	n/a	n/a	1	0	0
1813.3562	1	81	n/a	n/a	1	0	0
1813.5562	1	81	n/a	n/a	1	0	0
1813.7562	1	81	n/a	n/a	1	0	0
1813.9562	1	81	n/a	n/a	1	0	0
1814.1562	1	81	n/a	n/a	1	0	0
1815.5162	1	10	n/a	n/a	1	50	1
1816.5996	1	10	n/a	n/a	1	50	2
1817.7328	1	10	n/a	n/a	1	50	3
1818.8994	1	10	n/a	n/a	1	50	4
1820.0494	1	10	n/a	n/a	1	50	5
1821.1992	1	21	n/a	n/a	1	50	0
1822.3826	1	10	n/a	n/a	1	50	1
1823.6658	1	10	n/a	n/a	1	50	2
1824.8824	1	10	n/a	n/a	1	50	3
1826.099	1	21	n/a	n/a	1	50	0
1827.149	1	10	n/a	n/a	1	50	1
1828.2988	1	10	n/a	n/a	1	50	2
1829.3488	1	10	n/a	n/a	1	50	3
1830.4988	1	10	n/a	n/a	1	50	4
1831.5654	1	10	n/a	n/a	1	50	5
1832.632	1	21	n/a	n/a	1	50	0
1833.9318	1	10	n/a	n/a	1	50	1
1835.1818	1	10	n/a	n/a	1	50	2
1836.215	1	10	n/a	n/a	1	50	3
1837.2484	1	21	n/a	n/a	1	50	0
1838.3482	1	81	n/a	n/a	1	0	0
1838.5482	1	81	n/a	n/a	1	0	0
1838.7482	1	81	n/a	n/a	1	0	0
1838.9482	1	81	n/a	n/a	1	0	0
1839.1482	1	81	n/a	n/a	1	0	0
1839.3482	1	81	n/a	n/a	1	0	0
1839.5482	1	81	n/a	n/a	1	0	0
1839.7482	1	81	n/a	n/a	1	0	0
1839.9482	1	81	n/a	n/a	1	0	0
1840.1482	1	81	n/a	n/a	1	0	0
1841.4814	1	10	n/a	n/a	1	50	1
1842.598	1	10	n/a	n/a	1	50	2
1843.898	1	10	n/a	n/a	1	50	3
1845.1978	1	21	n/a	n/a	1	50	0
1846.3312	1	10	n/a	n/a	1	50	1
1847.4644	1	21	n/a	n/a	1	50	0
1848.4976	1	10	n/a	n/a	1	50	1
1849.6976	1	10	n/a	n/a	1	50	2
1850.8642	1	10	n/a	n/a	1	50	3
1852.1808	1	10	n/a	n/a	1	50	4
1853.414	1	10	n/a	n/a	1	50	5
1854.6472	1	21	n/a	n/a	1	50	0
1855.7638	1	10	n/a	n/a	1	50	1
1856.8638	1	10	n/a	n/a	1	50	2
1857.997	1	10	n/a	n/a	1	50	3
1859.147	1	10	n/a	n/a	1	50	4
1860.1804	1	10	n/a	n/a	1	50	5
1861.2136	1	21	n/a	n/a	1	50	0
1862.3468	1	10	n/a	n/a	1	50	1
1863.6468	1	10	n/a	n/a	1	50	2
1864.6102	1	81	n/a	n/a	1	0	0
1864.8102	1	81	n/a	n/a	1	0	0
1865.0102	1	81	n/a	n/a	1	0	0
1865.2102	1	81	n/a	n/a	1	0	0
1865.4102	1	81	n/a	n/a	1	0	0
1865.6102	1	81	n/a	n/a	1	0	0
1865.8102	1	81	n/a	n/a	1	0	0
1866.0102	1	81	n/a	n/a	1	0	0
1866.2102	1	81	n/a	n/a	1	0	0
1866.4102	1	81	n/a	n/a	1	0	0
1867.7798	1	10	n/a	n/a	1	50	1
1869.0298	1	10	n/a	n/a	1	50	2
1870.0964	1	10	n/a	n/a	1	50	3
1871.3796	1	10	n/a	n/a	1	50	4
1872.6462	1	10	n/a	n/a	1	50	5
1873.8462	1	10	n/a	n/a	1	50	6
1874.8794	1	10	n/a	n/a	1	50	7
1875.9128	1	21	n/a	n/a	1	50	0
1876.9626	1	10	n/a	n/a	1	50	1
1878.0126	1	21	n/a	n/a	1	50	0
1879.0458	1	10	n/a	n/a	1	50	1
1880.1792	1	10	n/a	n/a	1	50	2
1881.3624	1	10	n/a	n/a	1	50	3
1882.5456	1	21	n/a	n/a	1	50	0
1884.9122	1	10	n/a	n/a	1	50	2
1886.2288	1	10	n/a	n/a	1	50	3
1887.3288	1	10	n/a	n/a	1	50	4
1888.512	1	10	n/a	n/a	1	50	5
1889.6952	1	21	n/a	n/a	1	50	0
1890.6508	1	81	n/a	n/a	1	0	0
1890.8508	1	81	n/a	n/a	1	0	0
1891.0508	1	81	n/a	n/a	1	0	0
1891.2508	1	81	n/a	n/a	1	0	0
1891.4508	1	81	n/a	n/a	1	0	0
1891.651	1	81	n/a	n/a	1	0	0
1891.8508	1	81	n/a	n/a	1	0	0
1892.0508	1	81	n/a	n/a	1	0	0
1892.2508	1	81	n/a	n/a	1	0	0
1892.4508	1	81	n/a	n/a	1	0	0
1893.745	1	10	n/a	n/a	1	50	1
1894.8616	1	10	n/a	n/a	1	50	2
1895.9448	1	10	n/a	n/a	1	50	3
1897.1782	1	10	n/a	n/a	1	50	4
1898.328	1	10	n/a	n/a	1	50	5
1899.5114	1	10	n/a	n/a	1	50	6
1900.728	1	10	n/a	n/a	1	50	7
1901.9446	1	21	n/a	n/a	1	50	0
1902.9778	1	10	n/a	n/a	1	50	1
1904.011	1	21	n/a	n/a	1	50	0
1905.1776	1	10	n/a	n/a	1	50	1
1906.4276	1	10	n/a	n/a	1	50	2
1907.5776	1	10	n/a	n/a	1	50	3
1908.8774	1	10	n/a	n/a	1	50	4
1910.1608	1	10	n/a	n/a	1	50	5
1911.444	1	21	n/a	n/a	1	50	0
1912.5438	1	10	n/a	n/a	1	50	1
1913.6438	1	21	n/a	n/a	1	50	0
1914.877	1	10	n/a	n/a	1	50	1
1915.977	1	10	n/a	n/a	1	50	2
1917.0294	1	81	n/a	n/a	1	0	0
1917.2294	1	81	n/a	n/a	1	0	0
1917.4294	1	81	n/a	n/a	1	0	0
1917.6294	1	81	n/a	n/a	1	0	0
1917.8294	1	81	n/a	n/a	1	0	0
1918.0294	1	81	n/a	n/a	1	0	0
1918.2294	1	81	n/a	n/a	1	0	0
1918.4294	1	81	n/a	n/a	1	0	0
1918.6294	1	81	n/a	n/a	1	0	0
1918.8294	1	81	n/a	n/a	1	0	0
1920.0602	1	10	n/a	n/a	1	50	1
1921.2934	1	10	n/a	n/a	1	50	2
1922.4766	1	10	n/a	n/a	1	50	3
1923.7432	1	10	n/a	n/a	1	50	4
1924.8098	1	10	n/a	n/a	1	50	5
1925.8764	1	21	n/a	n/a	1	50	0
1927.0764	1	10	n/a	n/a	1	50	1
1928.143	1	10	n/a	n/a	1	50	2
1929.443	1	10	n/a	n/a	1	50	3
1930.5928	1	10	n/a	n/a	1	50	4
1931.6762	1	10	n/a	n/a	1	50	5
1932.8594	1	10	n/a	n/a	1	50	6
1934.0926	1	10	n/a	n/a	1	50	7
1935.3258	1	21	n/a	n/a	1	50	0
1936.5924	1	10	n/a	n/a	1	50	1
1937.859	1	21	n/a	n/a	1	50	0
1939.059	1	10	n/a	n/a	1	50	1
1940.2922	1	10	n/a	n/a	1	50	2
1941.5756	1	10	n/a	n/a	1	50	3
1942.7754	1	10	n/a	n/a	1	50	4
1968.0714	1	81	n/a	n/a	1	0	0
1968.2714	1	81	n/a	n/a	1	0	0
1968.4714	1	81	n/a	n/a	1	0	0
1968.6714	1	81	n/a	n/a	1	0	0
1968.8714	1	81	n/a	n/a	1	0	0
1969.0714	1	81	n/a	n/a	1	0	0
1969.2714	1	81	n/a	n/a	1	0	0
1969.4714	1	81	n/a	n/a	1	0	0
1969.6714	1	81	n/a	n/a	1	0	0
1969.8714	1	81	n/a	n/a	1	0	0
1971.0404	1	10	n/a	n/a	1	52	1
1972.2404	1	10	n/a	n/a	1	52	2
1973.3404	1	10	n/a	n/a	1	52	3
1974.4402	1	21	n/a	n/a	1	52	0
1975.5236	1	10	n/a	n/a	1	52	1
1976.7734	1	10	n/a	n/a	1	52	2
1977.9568	1	10	n/a	n/a	1	52	3
1979.0566	1	10	n/a	n/a	1	52	4
1980.1232	1	10	n/a	n/a	1	52	5
1981.2566	1	10	n/a	n/a	1	52	6
1982.3732	1	10	n/a	n/a	1	52	7
1983.4898	1	21	n/a	n/a	1	52	0
1984.8064	1	10	n/a	n/a	1	52	1
1986.023	1	10	n/a	n/a	1	52	2
1987.2728	1	10	n/a	n/a	1	52	3
1988.3228	1	10	n/a	n/a	1	52	4
1989.556	1	10	n/a	n/a	1	52	5
1990.7894	1	21	n/a	n/a	1	52	0
1992.0226	1	10	n/a	n/a	1	52	1
1993.2058	1	10	n/a	n/a	1	52	2
1994.0342	1	81	n/a	n/a	1	0	0
1994.2342	1	81	n/a	n/a	1	0	0
1994.4342	1	81	n/a	n/a	1	0	0
1994.6342	1	81	n/a	n/a	1	0	0
1994.8342	1	81	n/a	n/a	1	0	0
1995.0342	1	81	n/a	n/a	1	0	0
1995.2342	1	81	n/a	n/a	1	0	0
1995.4342	1	81	n/a	n/a	1	0	0
1995.6342	1	81	n/a	n/a	1	0	0
1995.8342	1	81	n/a	n/a	1	0	0
1996.9722	1	10	n/a	n/a	1	52	1
1998.2888	1	10	n/a	n/a	1	52	2
1999.4388	1	10	n/a	n/a	1	52	3
2000.6388	1	10	n/a	n/a	1	52	4
2001.722	1	10	n/a	n/a	1	52	5
2002.8052	1	21	n/a	n/a	1	52	0
2004.0386	1	10	n/a	n/a	1	52	1
2005.3052	1	10	n/a	n/a	1	52	2
2006.555	1	10	n/a	n/a	1	52	3
2007.5884	1	10	n/a	n/a	1	52	4
2008.7716	1	10	n/a	n/a	1	52	5
2009.9548	1	21	n/a	n/a	1	52	0
2011.0382	1	10	n/a	n/a	1	52	1
2012.288	1	10	n/a	n/a	1	52	2
2013.3214	1	10	n/a	n/a	1	52	3
2014.4046	1	10	n/a	n/a	1	52	4
2015.5046	1	10	n/a	n/a	1	52	5
2016.5878	1	10	n/a	n/a	1	52	6
2017.9044	1	10	n/a	n/a	1	52	7
2019.221	1	21	n/a	n/a	1	52	0
2020.0486	1	81	n/a	n/a	1	0	0
2020.2486	1	81	n/a	n/a	1	0	0
2020.4486	1	81	n/a	n/a	1	0	0
2020.6486	1	81	n/a	n/a	1	0	0
2020.8486	1	81	n/a	n/a	1	0	0
2021.0486	1	81	n/a	n/a	1	0	0
2021.2486	1	81	n/a	n/a	1	0	0
2021.4486	1	81	n/a	n/a	1	0	0
2021.6486	1	81	n/a	n/a	1	0	0
2021.8486	1	81	n/a	n/a	1	0	0
2023.154	1	10	n/a	n/a	1	52	1
2024.454	1	10	n/a	n/a	1	52	2
2025.604	1	10	n/a	n/a	1	52	3
2026.7538	1	21	n/a	n/a	1	52	0
2028.0204	1	10	n/a	n/a	1	52	1
2029.337	1	10	n/a	n/a	1	52	2
2030.487	1	10	n/a	n/a	1	52	3
2031.6202	1	10	n/a	n/a	1	52	4
2032.6868	1	10	n/a	n/a	1	52	5
2033.7534	1	21	n/a	n/a	1	52	0
2035.07	1	10	n/a	n/a	1	52	1
2036.32	1	10	n/a	n/a	1	52	2
2037.6032	1	10	n/a	n/a	1	52	3
2038.8864	1	21	n/a	n/a	1	52	0
2039.9364	1	10	n/a	n/a	1	52	1
2041.1864	1	10	n/a	n/a	1	52	2
2042.2362	1	10	n/a	n/a	1	52	3
2043.2862	1	21	n/a	n/a	1	52	0
2044.3696	1	10	n/a	n/a	1	52	1
2045.4528	1	21	n/a	n/a	1	52	0
2046.3342	1	81	n/a	n/a	1	0	0
2046.5342	1	81	n/a	n/a	1	0	0
2046.7342	1	81	n/a	n/a	1	0	0
2046.9342	1	81	n/a	n/a	1	0	0
2047.1342	1	81	n/a	n/a	1	0	0
2047.3342	1	81	n/a	n/a	1	0	0
2047.5342	1	81	n/a	n/a	1	0	0
2047.7342	1	81	n/a	n/a	1	0	0
2047.9342	1	81	n/a	n/a	1	0	0
2048.1342	1	81	n/a	n/a	1	0	0
2049.2858	1	10	n/a	n/a	1	52	1
2050.4192	1	10	n/a	n/a	1	52	2
2051.669	1	10	n/a	n/a	1	52	3
2052.8024	1	10	n/a	n/a	1	52	4
2054.0022	1	10	n/a	n/a	1	52	5
2055.3022	1	10	n/a	n/a	1	52	6
2056.5188	1	10	n/a	n/a	1	52	7
2057.7354	1	21	n/a	n/a	1	52	0
2058.952	1	10	n/a	n/a	1	52	1
2060.1352	1	10	n/a	n/a	1	52	2
2061.2686	1	10	n/a	n/a	1	52	3
2062.3852	1	10	n/a	n/a	1	52	4
2063.4684	1	10	n/a	n/a	1	52	5
2064.5516	1	21	n/a	n/a	1	52	0
2065.685	1	10	n/a	n/a	1	52	1
2066.8516	1	10	n/a	n/a	1	52	2
2067.9514	1	10	n/a	n/a	1	52	3
2069.1014	1	10	n/a	n/a	1	52	4
2070.2514	1	10	n/a	n/a	1	52	5
2071.4012	1	21	n/a	n/a	1	52	0
2072.498	1	81	n/a	n/a	1	0	0
2072.6978	1	81	n/a	n/a	1	0	0
2072.8978	1	81	n/a	n/a	1	0	0
2073.0978	1	81	n/a	n/a	1	0	0
2073.2978	1	81	n/a	n/a	1	0	0
2073.498	1	81	n/a	n/a	1	0	0
2073.698	1	81	n/a	n/a	1	0	0
2073.898	1	81	n/a	n/a	1	0	0
2074.098	1	81	n/a	n/a	1	0	0
2074.298	1	81	n/a	n/a	1	0	0
2075.4176	1	10	n/a	n/a	1	52	1
2076.5176	1	10	n/a	n/a	1	52	2
2077.5508	1	10	n/a	n/a	1	52	3
2078.7842	1	10	n/a	n/a	1	52	4
2079.9508	1	10	n/a	n/a	1	52	5
2081.1174	1	21	n/a	n/a	1	52	0
2082.1672	1	10	n/a	n/a	1	52	1
2083.2172	1	21	n/a	n/a	1	52	0
2084.2838	1	10	n/a	n/a	1	52	1
2085.4504	1	10	n/a	n/a	1	52	2
2086.4836	1	10	n/a	n/a	1	52	3
2087.6836	1	10	n/a	n/a	1	52	4
2088.8336	1	10	n/a	n/a	1	52	5
2090.1502	1	10	n/a	n/a	1	52	6
2091.2334	1	10	n/a	n/a	1	52	7
2092.3166	1	21	n/a	n/a	1	52	0
2093.6	1	10	n/a	n/a	1	52	1
2094.8998	1	10	n/a	n/a	1	52	2
2096.1164	1	10	n/a	n/a	1	52	3
2097.333	1	21	n/a	n/a	1	52	0
