onset	duration	value	response	rt	good	TMS	seq
64.4388	1	81	n/a	n/a	1	0	0
64.6388	1	81	n/a	n/a	1	0	0
64.8388	1	81	n/a	n/a	1	0	0
65.0388	1	81	n/a	n/a	1	0	0
65.2388	1	81	n/a	n/a	1	0	0
65.4388	1	81	n/a	n/a	1	0	0
65.6388	1	81	n/a	n/a	1	0	0
65.8388	1	81	n/a	n/a	1	0	0
66.0388	1	81	n/a	n/a	1	0	0
66.2388	1	81	n/a	n/a	1	0	0
67.4682	1	10	n/a	n/a	1	51	1
68.5016	1	10	n/a	n/a	1	51	2
69.6848	1	10	n/a	n/a	1	51	3
70.918	1	10	n/a	n/a	1	51	4
71.968	1	10	n/a	n/a	1	51	5
73.1012	1	10	n/a	n/a	1	51	6
74.2346	1	10	n/a	n/a	1	51	7
75.3678	1	21	n/a	n/a	1	51	0
76.5678	1	10	n/a	n/a	1	51	1
77.6344	1	10	n/a	n/a	1	51	2
78.9176	1	10	n/a	n/a	1	51	3
80.1342	1	10	n/a	n/a	1	51	4
81.4174	1	10	n/a	n/a	1	51	5
82.6508	1	10	n/a	n/a	1	51	6
83.9506	1	10	n/a	n/a	1	51	7
85.2506	1	21	n/a	n/a	1	51	0
86.3172	1	10	n/a	n/a	1	51	1
87.5504	1	10	n/a	n/a	1	51	2
88.7504	1	10	n/a	n/a	1	51	3
89.7836	1	10	n/a	n/a	1	51	4
90.585	1	81	n/a	n/a	1	0	0
90.785	1	81	n/a	n/a	1	0	0
90.985	1	81	n/a	n/a	1	0	0
91.185	1	81	n/a	n/a	1	0	0
91.385	1	81	n/a	n/a	1	0	0
91.585	1	81	n/a	n/a	1	0	0
91.785	1	81	n/a	n/a	1	0	0
91.985	1	81	n/a	n/a	1	0	0
92.185	1	81	n/a	n/a	1	0	0
92.385	1	81	n/a	n/a	1	0	0
93.6834	1	10	n/a	n/a	1	51	1
94.9	1	10	n/a	n/a	1	51	2
96.0332	1	10	n/a	n/a	1	51	3
97.0832	1	10	n/a	n/a	1	51	4
98.3998	1	10	n/a	n/a	1	51	5
99.7164	1	21	n/a	n/a	1	51	0
100.8664	1	10	n/a	n/a	1	51	1
101.9496	1	10	n/a	n/a	1	51	2
103.2662	1	10	n/a	n/a	1	51	3
104.3662	1	10	n/a	n/a	1	51	4
105.516	1	10	n/a	n/a	1	51	5
106.566	1	10	n/a	n/a	1	51	6
107.8326	1	10	n/a	n/a	1	51	7
109.0992	1	21	n/a	n/a	1	51	0
110.1492	1	10	n/a	n/a	1	51	1
111.4156	1	10	n/a	n/a	1	51	2
112.449	1	10	n/a	n/a	1	51	3
113.7322	1	10	n/a	n/a	1	51	4
115.0322	1	10	n/a	n/a	1	51	5
116.332	1	21	n/a	n/a	1	51	0
117.3008	1	81	n/a	n/a	1	0	0
117.5008	1	81	n/a	n/a	1	0	0
117.7008	1	81	n/a	n/a	1	0	0
117.9008	1	81	n/a	n/a	1	0	0
118.1008	1	81	n/a	n/a	1	0	0
118.3008	1	81	n/a	n/a	1	0	0
118.5008	1	81	n/a	n/a	1	0	0
118.7008	1	81	n/a	n/a	1	0	0
118.9008	1	81	n/a	n/a	1	0	0
119.1008	1	81	n/a	n/a	1	0	0
120.4818	1	10	n/a	n/a	1	51	1
121.765	1	21	n/a	n/a	1	51	0
123.0484	1	10	n/a	n/a	1	51	1
124.0816	1	10	n/a	n/a	1	51	2
125.1316	1	10	n/a	n/a	1	51	3
126.4148	1	10	n/a	n/a	1	51	4
127.448	1	10	n/a	n/a	1	51	5
128.498	1	10	n/a	n/a	1	51	6
129.598	1	10	n/a	n/a	1	51	7
130.6978	1	21	n/a	n/a	1	51	0
131.8144	1	10	n/a	n/a	1	51	1
132.8644	1	10	n/a	n/a	1	51	2
133.8976	1	10	n/a	n/a	1	51	3
135.0476	1	10	n/a	n/a	1	51	4
136.3642	1	10	n/a	n/a	1	51	5
137.6474	1	10	n/a	n/a	1	51	6
138.6808	1	10	n/a	n/a	1	51	7
139.714	1	21	n/a	n/a	1	51	0
140.814	1	10	n/a	n/a	1	51	1
141.9138	1	21	n/a	n/a	1	51	0
142.7866	1	81	n/a	n/a	1	0	0
142.9866	1	81	n/a	n/a	1	0	0
143.1866	1	81	n/a	n/a	1	0	0
143.3866	1	81	n/a	n/a	1	0	0
143.5866	1	81	n/a	n/a	1	0	0
143.7866	1	81	n/a	n/a	1	0	0
143.9866	1	81	n/a	n/a	1	0	0
144.1866	1	81	n/a	n/a	1	0	0
144.3866	1	81	n/a	n/a	1	0	0
144.5866	1	81	n/a	n/a	1	0	0
145.947	1	10	n/a	n/a	1	51	1
147.0802	1	10	n/a	n/a	1	51	2
148.2636	1	10	n/a	n/a	1	51	3
149.4468	1	21	n/a	n/a	1	51	0
150.53	1	10	n/a	n/a	1	51	1
151.7134	1	10	n/a	n/a	1	51	2
152.7632	1	10	n/a	n/a	1	51	3
153.8132	1	21	n/a	n/a	1	51	0
155.1298	1	10	n/a	n/a	1	51	1
156.263	1	10	n/a	n/a	1	51	2
157.4464	1	10	n/a	n/a	1	51	3
158.613	1	10	n/a	n/a	1	51	4
159.8628	1	10	n/a	n/a	1	51	5
160.9128	1	10	n/a	n/a	1	51	6
162.0294	1	10	n/a	n/a	1	51	7
163.146	1	21	n/a	n/a	1	51	0
164.2292	1	10	n/a	n/a	1	51	1
165.3126	1	21	n/a	n/a	1	51	0
166.3792	1	10	n/a	n/a	1	51	1
167.4958	1	10	n/a	n/a	1	51	2
168.5392	1	81	n/a	n/a	1	0	0
168.7392	1	81	n/a	n/a	1	0	0
168.9392	1	81	n/a	n/a	1	0	0
169.1392	1	81	n/a	n/a	1	0	0
169.3392	1	81	n/a	n/a	1	0	0
169.5392	1	81	n/a	n/a	1	0	0
169.7392	1	81	n/a	n/a	1	0	0
169.9392	1	81	n/a	n/a	1	0	0
170.1392	1	81	n/a	n/a	1	0	0
170.3392	1	81	n/a	n/a	1	0	0
171.5454	1	10	n/a	n/a	1	51	1
172.662	1	21	n/a	n/a	1	51	0
173.6954	1	10	n/a	n/a	1	51	1
174.762	1	10	n/a	n/a	1	51	2
175.9286	1	10	n/a	n/a	1	51	3
177.2118	1	10	n/a	n/a	1	51	4
178.3784	1	10	n/a	n/a	1	51	5
179.545	1	21	n/a	n/a	1	51	0
180.7782	1	10	n/a	n/a	1	51	1
182.0116	1	21	n/a	n/a	1	51	0
183.1114	1	10	n/a	n/a	1	51	1
184.2114	1	21	n/a	n/a	1	51	0
185.4946	1	10	n/a	n/a	1	51	1
186.5446	1	10	n/a	n/a	1	51	2
187.8112	1	10	n/a	n/a	1	51	3
189.0778	1	21	n/a	n/a	1	51	0
190.311	1	10	n/a	n/a	1	51	1
191.5442	1	21	n/a	n/a	1	51	0
192.6776	1	10	n/a	n/a	1	51	1
193.9942	1	10	n/a	n/a	1	51	2
205.7852	1	81	n/a	n/a	1	0	0
205.9852	1	81	n/a	n/a	1	0	0
206.1852	1	81	n/a	n/a	1	0	0
206.3852	1	81	n/a	n/a	1	0	0
206.5852	1	81	n/a	n/a	1	0	0
206.7852	1	81	n/a	n/a	1	0	0
206.9852	1	81	n/a	n/a	1	0	0
207.1852	1	81	n/a	n/a	1	0	0
207.3852	1	81	n/a	n/a	1	0	0
207.5852	1	81	n/a	n/a	1	0	0
208.9432	1	10	n/a	n/a	1	50	1
210.2098	1	21	n/a	n/a	1	50	0
211.5264	1	10	n/a	n/a	1	50	1
212.843	1	21	n/a	n/a	1	50	0
214.1262	1	10	n/a	n/a	1	50	1
215.2262	1	10	n/a	n/a	1	50	2
216.4262	1	10	n/a	n/a	1	50	3
217.7094	1	10	n/a	n/a	1	50	4
218.9594	1	10	n/a	n/a	1	50	5
220.2092	1	21	n/a	n/a	1	50	0
221.3426	1	10	n/a	n/a	1	50	1
222.4258	1	10	n/a	n/a	1	50	2
223.4758	1	10	n/a	n/a	1	50	3
224.5756	1	10	n/a	n/a	1	50	4
225.6422	1	10	n/a	n/a	1	50	5
226.9588	1	10	n/a	n/a	1	50	6
228.1922	1	10	n/a	n/a	1	50	7
229.4254	1	21	n/a	n/a	1	50	0
230.592	1	10	n/a	n/a	1	50	1
231.892	1	10	n/a	n/a	1	50	2
232.6464	1	81	n/a	n/a	1	0	0
232.8464	1	81	n/a	n/a	1	0	0
233.0464	1	81	n/a	n/a	1	0	0
233.2464	1	81	n/a	n/a	1	0	0
233.4464	1	81	n/a	n/a	1	0	0
233.6464	1	81	n/a	n/a	1	0	0
233.8464	1	81	n/a	n/a	1	0	0
234.0464	1	81	n/a	n/a	1	0	0
234.2464	1	81	n/a	n/a	1	0	0
234.4464	1	81	n/a	n/a	1	0	0
235.6916	1	10	n/a	n/a	1	50	1
236.7916	1	10	n/a	n/a	1	50	2
238.1082	1	10	n/a	n/a	1	50	3
239.3582	1	10	n/a	n/a	1	50	4
240.5914	1	10	n/a	n/a	1	50	5
241.8246	1	21	n/a	n/a	1	50	0
243.1412	1	10	n/a	n/a	1	50	1
244.2078	1	10	n/a	n/a	1	50	2
245.4578	1	10	n/a	n/a	1	50	3
246.7078	1	21	n/a	n/a	1	50	0
247.941	1	10	n/a	n/a	1	50	1
249.2742	1	10	n/a	n/a	1	50	2
250.4074	1	10	n/a	n/a	1	50	3
251.524	1	10	n/a	n/a	1	50	4
252.5906	1	10	n/a	n/a	1	50	5
253.6572	1	21	n/a	n/a	1	50	0
254.9572	1	10	n/a	n/a	1	50	1
256.0238	1	10	n/a	n/a	1	50	2
257.207	1	10	n/a	n/a	1	50	3
258.3404	1	10	n/a	n/a	1	50	4
259.1848	1	81	n/a	n/a	1	0	0
259.3848	1	81	n/a	n/a	1	0	0
259.5848	1	81	n/a	n/a	1	0	0
259.7848	1	81	n/a	n/a	1	0	0
259.9848	1	81	n/a	n/a	1	0	0
260.1848	1	81	n/a	n/a	1	0	0
260.3848	1	81	n/a	n/a	1	0	0
260.5848	1	81	n/a	n/a	1	0	0
260.7848	1	81	n/a	n/a	1	0	0
260.9848	1	81	n/a	n/a	1	0	0
262.1068	1	10	n/a	n/a	1	50	1
263.14	1	21	n/a	n/a	1	50	0
264.3566	1	10	n/a	n/a	1	50	1
265.54	1	10	n/a	n/a	1	50	2
266.6732	1	10	n/a	n/a	1	50	3
267.8898	1	10	n/a	n/a	1	50	4
269.1564	1	10	n/a	n/a	1	50	5
270.423	1	21	n/a	n/a	1	50	0
271.5562	1	10	n/a	n/a	1	50	1
272.6896	1	21	n/a	n/a	1	50	0
273.856	1	10	n/a	n/a	1	50	1
275.0726	1	10	n/a	n/a	1	50	2
276.106	1	10	n/a	n/a	1	50	3
277.1392	1	21	n/a	n/a	1	50	0
278.1726	1	10	n/a	n/a	1	50	1
279.3392	1	10	n/a	n/a	1	50	2
280.489	1	10	n/a	n/a	1	50	3
281.639	1	21	n/a	n/a	1	50	0
282.9056	1	10	n/a	n/a	1	50	1
283.9722	1	10	n/a	n/a	1	50	2
284.7696	1	81	n/a	n/a	1	0	0
284.9696	1	81	n/a	n/a	1	0	0
285.1696	1	81	n/a	n/a	1	0	0
285.3696	1	81	n/a	n/a	1	0	0
285.5696	1	81	n/a	n/a	1	0	0
285.7696	1	81	n/a	n/a	1	0	0
285.9696	1	81	n/a	n/a	1	0	0
286.1696	1	81	n/a	n/a	1	0	0
286.3696	1	81	n/a	n/a	1	0	0
286.5696	1	81	n/a	n/a	1	0	0
287.722	1	10	n/a	n/a	1	50	1
288.7886	1	21	n/a	n/a	1	50	0
290.0052	1	10	n/a	n/a	1	50	1
291.2384	1	10	n/a	n/a	1	50	2
292.2716	1	10	n/a	n/a	1	50	3
293.305	1	21	n/a	n/a	1	50	0
294.5048	1	10	n/a	n/a	1	50	1
295.5714	1	10	n/a	n/a	1	50	2
296.7214	1	10	n/a	n/a	1	50	3
297.8048	1	10	n/a	n/a	1	50	4
298.988	1	10	n/a	n/a	1	50	5
300.1878	1	10	n/a	n/a	1	50	6
301.3044	1	10	n/a	n/a	1	50	7
302.421	1	21	n/a	n/a	1	50	0
303.7376	1	10	n/a	n/a	1	50	1
305.0542	1	21	n/a	n/a	1	50	0
306.1542	1	10	n/a	n/a	1	50	1
307.2374	1	10	n/a	n/a	1	50	2
308.4874	1	10	n/a	n/a	1	50	3
309.7374	1	21	n/a	n/a	1	50	0
310.663	1	81	n/a	n/a	1	0	0
310.863	1	81	n/a	n/a	1	0	0
311.063	1	81	n/a	n/a	1	0	0
311.263	1	81	n/a	n/a	1	0	0
311.463	1	81	n/a	n/a	1	0	0
311.663	1	81	n/a	n/a	1	0	0
311.863	1	81	n/a	n/a	1	0	0
312.063	1	81	n/a	n/a	1	0	0
312.263	1	81	n/a	n/a	1	0	0
312.463	1	81	n/a	n/a	1	0	0
313.687	1	10	n/a	n/a	1	50	1
314.737	1	10	n/a	n/a	1	50	2
315.9536	1	10	n/a	n/a	1	50	3
317.1702	1	21	n/a	n/a	1	50	0
318.4702	1	10	n/a	n/a	1	50	1
319.7868	1	10	n/a	n/a	1	50	2
320.9034	1	10	n/a	n/a	1	50	3
322.1366	1	10	n/a	n/a	1	50	4
323.2532	1	10	n/a	n/a	1	50	5
324.3698	1	21	n/a	n/a	1	50	0
325.4198	1	10	n/a	n/a	1	50	1
326.653	1	10	n/a	n/a	1	50	2
327.953	1	10	n/a	n/a	1	50	3
329.2528	1	21	n/a	n/a	1	50	0
330.5194	1	10	n/a	n/a	1	50	1
331.836	1	10	n/a	n/a	1	50	2
332.886	1	10	n/a	n/a	1	50	3
333.9358	1	21	n/a	n/a	1	50	0
335.0358	1	10	n/a	n/a	1	50	1
336.1858	1	10	n/a	n/a	1	50	2
362.3884	1	82	n/a	n/a	1	0	0
362.5294	1	82	n/a	n/a	1	0	0
362.6944	1	82	n/a	n/a	1	0	0
362.9574	1	82	n/a	n/a	1	0	0
363.1992	1	82	n/a	n/a	1	0	0
363.3884	1	82	n/a	n/a	1	0	0
363.6634	1	82	n/a	n/a	1	0	0
364.0574	1	82	n/a	n/a	1	0	0
364.1544	1	82	n/a	n/a	1	0	0
364.3014	1	82	n/a	n/a	1	0	0
365.5506	1	10	n/a	n/a	1	52	1
366.634	1	10	n/a	n/a	1	52	2
367.7006	1	10	n/a	n/a	1	52	3
369.0172	1	10	n/a	n/a	1	52	4
370.117	1	10	n/a	n/a	1	52	5
371.217	1	21	n/a	n/a	1	52	0
372.467	1	10	n/a	n/a	1	52	1
373.5836	1	10	n/a	n/a	1	52	2
374.7002	1	10	n/a	n/a	1	52	3
375.9168	1	10	n/a	n/a	1	52	4
376.95	1	10	n/a	n/a	1	52	5
377.9832	1	21	n/a	n/a	1	52	0
379.2666	1	10	n/a	n/a	1	52	1
380.4998	1	10	n/a	n/a	1	52	2
381.7998	1	10	n/a	n/a	1	52	3
383.0996	1	21	n/a	n/a	1	52	0
384.233	1	10	n/a	n/a	1	52	1
385.4996	1	10	n/a	n/a	1	52	2
386.5494	1	10	n/a	n/a	1	52	3
387.5994	1	21	n/a	n/a	1	52	0
388.647	1	82	n/a	n/a	1	0	0
388.965	1	82	n/a	n/a	1	0	0
389.005	1	82	n/a	n/a	1	0	0
389.135	1	82	n/a	n/a	1	0	0
389.217	1	82	n/a	n/a	1	0	0
389.647	1	82	n/a	n/a	1	0	0
389.789	1	82	n/a	n/a	1	0	0
389.874	1	82	n/a	n/a	1	0	0
390.114	1	82	n/a	n/a	1	0	0
390.223	1	82	n/a	n/a	1	0	0
391.5658	1	10	n/a	n/a	1	52	1
392.6824	1	10	n/a	n/a	1	52	2
393.7324	1	10	n/a	n/a	1	52	3
394.949	1	10	n/a	n/a	1	52	4
396.0988	1	10	n/a	n/a	1	52	5
397.4154	1	10	n/a	n/a	1	52	6
398.632	1	10	n/a	n/a	1	52	7
399.8486	1	21	n/a	n/a	1	52	0
400.8986	1	10	n/a	n/a	1	52	1
401.9486	1	21	n/a	n/a	1	52	0
403.2152	1	10	n/a	n/a	1	52	1
404.4818	1	21	n/a	n/a	1	52	0
405.5816	1	10	n/a	n/a	1	52	1
406.765	1	10	n/a	n/a	1	52	2
407.8648	1	10	n/a	n/a	1	52	3
408.9648	1	21	n/a	n/a	1	52	0
410.2148	1	10	n/a	n/a	1	52	1
411.4146	1	10	n/a	n/a	1	52	2
412.6646	1	10	n/a	n/a	1	52	3
413.8146	1	10	n/a	n/a	1	52	4
414.684	1	82	n/a	n/a	1	0	0
414.719	1	82	n/a	n/a	1	0	0
414.82	1	82	n/a	n/a	1	0	0
415.175	1	82	n/a	n/a	1	0	0
415.328	1	82	n/a	n/a	1	0	0
415.684	1	82	n/a	n/a	1	0	0
415.847	1	82	n/a	n/a	1	0	0
415.883	1	82	n/a	n/a	1	0	0
416.137	1	82	n/a	n/a	1	0	0
416.468	1	82	n/a	n/a	1	0	0
417.6976	1	10	n/a	n/a	1	52	1
418.7476	1	10	n/a	n/a	1	52	2
420.0142	1	10	n/a	n/a	1	52	3
421.2974	1	10	n/a	n/a	1	52	4
422.5474	1	10	n/a	n/a	1	52	5
423.7972	1	21	n/a	n/a	1	52	0
425.0972	1	10	n/a	n/a	1	52	1
426.4138	1	10	n/a	n/a	1	52	2
427.597	1	10	n/a	n/a	1	52	3
428.7802	1	21	n/a	n/a	1	52	0
430.0968	1	10	n/a	n/a	1	52	1
431.3968	1	10	n/a	n/a	1	52	2
432.58	1	10	n/a	n/a	1	52	3
433.7634	1	21	n/a	n/a	1	52	0
434.9966	1	10	n/a	n/a	1	52	1
436.0298	1	10	n/a	n/a	1	52	2
437.3298	1	10	n/a	n/a	1	52	3
438.6298	1	21	n/a	n/a	1	52	0
439.8796	1	10	n/a	n/a	1	52	1
441.1296	1	21	n/a	n/a	1	52	0
441.9412	1	82	n/a	n/a	1	0	0
442.0032	1	82	n/a	n/a	1	0	0
442.3552	1	82	n/a	n/a	1	0	0
442.7402	1	82	n/a	n/a	1	0	0
442.8422	1	82	n/a	n/a	1	0	0
442.9412	1	82	n/a	n/a	1	0	0
443.1712	1	82	n/a	n/a	1	0	0
443.2392	1	82	n/a	n/a	1	0	0
443.2742	1	82	n/a	n/a	1	0	0
443.6152	1	82	n/a	n/a	1	0	0
445.1126	1	10	n/a	n/a	1	52	1
446.3626	1	10	n/a	n/a	1	52	2
447.5126	1	10	n/a	n/a	1	52	3
448.6624	1	21	n/a	n/a	1	52	0
449.7958	1	10	n/a	n/a	1	52	1
450.929	1	21	n/a	n/a	1	52	0
452.1956	1	10	n/a	n/a	1	52	1
453.4622	1	21	n/a	n/a	1	52	0
454.5288	1	10	n/a	n/a	1	52	1
455.5954	1	10	n/a	n/a	1	52	2
456.7454	1	10	n/a	n/a	1	52	3
458.0618	1	10	n/a	n/a	1	52	4
459.1118	1	10	n/a	n/a	1	52	5
460.1618	1	21	n/a	n/a	1	52	0
461.345	1	10	n/a	n/a	1	52	1
462.545	1	21	n/a	n/a	1	52	0
463.7782	1	10	n/a	n/a	1	52	1
465.0114	1	21	n/a	n/a	1	52	0
466.0614	1	10	n/a	n/a	1	52	1
467.2446	1	10	n/a	n/a	1	52	2
468.0912	1	82	n/a	n/a	1	0	0
468.3612	1	82	n/a	n/a	1	0	0
468.4652	1	82	n/a	n/a	1	0	0
468.5242	1	82	n/a	n/a	1	0	0
468.8482	1	82	n/a	n/a	1	0	0
469.0912	1	82	n/a	n/a	1	0	0
469.1812	1	82	n/a	n/a	1	0	0
469.5772	1	82	n/a	n/a	1	0	0
469.6942	1	82	n/a	n/a	1	0	0
469.7612	1	82	n/a	n/a	1	0	0
471.1944	1	10	n/a	n/a	1	52	1
472.261	1	10	n/a	n/a	1	52	2
473.4944	1	10	n/a	n/a	1	52	3
474.7276	1	21	n/a	n/a	1	52	0
475.9276	1	10	n/a	n/a	1	52	1
477.0108	1	10	n/a	n/a	1	52	2
478.094	1	10	n/a	n/a	1	52	3
479.1274	1	10	n/a	n/a	1	52	4
480.4438	1	10	n/a	n/a	1	52	5
481.7604	1	21	n/a	n/a	1	52	0
482.8438	1	10	n/a	n/a	1	52	1
483.927	1	21	n/a	n/a	1	52	0
484.9604	1	10	n/a	n/a	1	52	1
486.0602	1	10	n/a	n/a	1	52	2
487.3102	1	10	n/a	n/a	1	52	3
488.46	1	10	n/a	n/a	1	52	4
489.6934	1	10	n/a	n/a	1	52	5
490.81	1	10	n/a	n/a	1	52	6
492.0098	1	10	n/a	n/a	1	52	7
493.2098	1	21	n/a	n/a	1	52	0
656.6126	1	81	n/a	n/a	1	0	0
656.8126	1	81	n/a	n/a	1	0	0
657.0126	1	81	n/a	n/a	1	0	0
657.2126	1	81	n/a	n/a	1	0	0
657.4126	1	81	n/a	n/a	1	0	0
657.6126	1	81	n/a	n/a	1	0	0
657.8126	1	81	n/a	n/a	1	0	0
658.0126	1	81	n/a	n/a	1	0	0
658.2126	1	81	n/a	n/a	1	0	0
658.4126	1	81	n/a	n/a	1	0	0
659.8166	1	10	n/a	n/a	1	51	1
660.85	1	10	n/a	n/a	1	51	2
661.9332	1	10	n/a	n/a	1	51	3
663.0664	1	10	n/a	n/a	1	51	4
664.0998	1	10	n/a	n/a	1	51	5
665.4164	1	10	n/a	n/a	1	51	6
666.7162	1	10	n/a	n/a	1	51	7
668.0162	1	21	n/a	n/a	1	51	0
669.2328	1	10	n/a	n/a	1	51	1
670.316	1	10	n/a	n/a	1	51	2
671.3492	1	10	n/a	n/a	1	51	3
672.3826	1	21	n/a	n/a	1	51	0
673.5492	1	10	n/a	n/a	1	51	1
674.8324	1	10	n/a	n/a	1	51	2
675.899	1	10	n/a	n/a	1	51	3
676.9656	1	21	n/a	n/a	1	51	0
677.999	1	10	n/a	n/a	1	51	1
679.1988	1	10	n/a	n/a	1	51	2
680.482	1	10	n/a	n/a	1	51	3
681.7654	1	21	n/a	n/a	1	51	0
682.613	1	81	n/a	n/a	1	0	0
682.813	1	81	n/a	n/a	1	0	0
683.013	1	81	n/a	n/a	1	0	0
683.213	1	81	n/a	n/a	1	0	0
683.413	1	81	n/a	n/a	1	0	0
683.613	1	81	n/a	n/a	1	0	0
683.813	1	81	n/a	n/a	1	0	0
684.013	1	81	n/a	n/a	1	0	0
684.213	1	81	n/a	n/a	1	0	0
684.413	1	81	n/a	n/a	1	0	0
685.5984	1	10	n/a	n/a	1	51	1
686.7318	1	10	n/a	n/a	1	51	2
687.8484	1	10	n/a	n/a	1	51	3
688.9316	1	10	n/a	n/a	1	51	4
690.0316	1	10	n/a	n/a	1	51	5
691.1314	1	21	n/a	n/a	1	51	0
692.348	1	10	n/a	n/a	1	51	1
693.4814	1	10	n/a	n/a	1	51	2
694.598	1	10	n/a	n/a	1	51	3
695.6978	1	10	n/a	n/a	1	51	4
696.7478	1	10	n/a	n/a	1	51	5
697.7978	1	21	n/a	n/a	1	51	0
698.9144	1	10	n/a	n/a	1	51	1
699.9476	1	10	n/a	n/a	1	51	2
701.0308	1	10	n/a	n/a	1	51	3
702.1808	1	10	n/a	n/a	1	51	4
703.3308	1	10	n/a	n/a	1	51	5
704.4806	1	21	n/a	n/a	1	51	0
705.5472	1	10	n/a	n/a	1	51	1
706.6138	1	10	n/a	n/a	1	51	2
707.5022	1	81	n/a	n/a	1	0	0
707.7022	1	81	n/a	n/a	1	0	0
707.9022	1	81	n/a	n/a	1	0	0
708.1022	1	81	n/a	n/a	1	0	0
708.3022	1	81	n/a	n/a	1	0	0
708.5022	1	81	n/a	n/a	1	0	0
708.7022	1	81	n/a	n/a	1	0	0
708.9022	1	81	n/a	n/a	1	0	0
709.1022	1	81	n/a	n/a	1	0	0
709.3022	1	81	n/a	n/a	1	0	0
710.547	1	10	n/a	n/a	1	51	1
711.6136	1	10	n/a	n/a	1	51	2
712.8636	1	10	n/a	n/a	1	51	3
714.1134	1	21	n/a	n/a	1	51	0
715.1968	1	10	n/a	n/a	1	51	1
716.3634	1	10	n/a	n/a	1	51	2
717.4966	1	10	n/a	n/a	1	51	3
718.5798	1	10	n/a	n/a	1	51	4
719.7632	1	10	n/a	n/a	1	51	5
720.9464	1	21	n/a	n/a	1	51	0
722.2462	1	10	n/a	n/a	1	51	1
723.2796	1	10	n/a	n/a	1	51	2
724.3296	1	10	n/a	n/a	1	51	3
725.4794	1	10	n/a	n/a	1	51	4
726.5128	1	10	n/a	n/a	1	51	5
727.546	1	21	n/a	n/a	1	51	0
728.796	1	10	n/a	n/a	1	51	1
730.0292	1	10	n/a	n/a	1	51	2
731.229	1	10	n/a	n/a	1	51	3
732.3624	1	10	n/a	n/a	1	51	4
733.246	1	81	n/a	n/a	1	0	0
733.446	1	81	n/a	n/a	1	0	0
733.646	1	81	n/a	n/a	1	0	0
733.846	1	81	n/a	n/a	1	0	0
734.046	1	81	n/a	n/a	1	0	0
734.246	1	81	n/a	n/a	1	0	0
734.446	1	81	n/a	n/a	1	0	0
734.646	1	81	n/a	n/a	1	0	0
734.846	1	81	n/a	n/a	1	0	0
735.046	1	81	n/a	n/a	1	0	0
736.3454	1	10	n/a	n/a	1	51	1
737.5454	1	21	n/a	n/a	1	51	0
738.862	1	10	n/a	n/a	1	51	1
740.1786	1	21	n/a	n/a	1	51	0
741.2952	1	10	n/a	n/a	1	51	1
742.4284	1	10	n/a	n/a	1	51	2
743.7284	1	10	n/a	n/a	1	51	3
744.9782	1	10	n/a	n/a	1	51	4
746.2948	1	10	n/a	n/a	1	51	5
747.6114	1	21	n/a	n/a	1	51	0
748.728	1	10	n/a	n/a	1	51	1
749.8446	1	21	n/a	n/a	1	51	0
751.028	1	10	n/a	n/a	1	51	1
752.2778	1	10	n/a	n/a	1	51	2
753.5944	1	10	n/a	n/a	1	51	3
754.711	1	10	n/a	n/a	1	51	4
755.8276	1	10	n/a	n/a	1	51	5
756.9442	1	21	n/a	n/a	1	51	0
758.2442	1	10	n/a	n/a	1	51	1
759.4608	1	10	n/a	n/a	1	51	2
760.2252	1	81	n/a	n/a	1	0	0
760.4252	1	81	n/a	n/a	1	0	0
760.6252	1	81	n/a	n/a	1	0	0
760.8252	1	81	n/a	n/a	1	0	0
761.0252	1	81	n/a	n/a	1	0	0
761.2252	1	81	n/a	n/a	1	0	0
761.4252	1	81	n/a	n/a	1	0	0
761.6252	1	81	n/a	n/a	1	0	0
761.8252	1	81	n/a	n/a	1	0	0
762.0252	1	81	n/a	n/a	1	0	0
763.2938	1	10	n/a	n/a	1	51	1
764.4772	1	10	n/a	n/a	1	51	2
765.5938	1	10	n/a	n/a	1	51	3
766.7104	1	10	n/a	n/a	1	51	4
767.8102	1	10	n/a	n/a	1	51	5
768.9602	1	10	n/a	n/a	1	51	6
770.2768	1	10	n/a	n/a	1	51	7
771.5934	1	21	n/a	n/a	1	51	0
772.6766	1	10	n/a	n/a	1	51	1
773.7432	1	10	n/a	n/a	1	51	2
774.9932	1	10	n/a	n/a	1	51	3
776.2432	1	21	n/a	n/a	1	51	0
777.543	1	10	n/a	n/a	1	51	1
778.5762	1	10	n/a	n/a	1	51	2
779.6762	1	10	n/a	n/a	1	51	3
780.8594	1	10	n/a	n/a	1	51	4
782.126	1	10	n/a	n/a	1	51	5
783.3926	1	21	n/a	n/a	1	51	0
784.5092	1	10	n/a	n/a	1	51	1
785.7592	1	10	n/a	n/a	1	51	2
797.0786	1	82	n/a	n/a	1	0	0
797.1216	1	82	n/a	n/a	1	0	0
797.3496	1	82	n/a	n/a	1	0	0
797.6146	1	82	n/a	n/a	1	0	0
797.7526	1	82	n/a	n/a	1	0	0
798.0786	1	82	n/a	n/a	1	0	0
798.4566	1	82	n/a	n/a	1	0	0
798.7496	1	82	n/a	n/a	1	0	0
798.9406	1	82	n/a	n/a	1	0	0
799.0206	1	82	n/a	n/a	1	0	0
800.1084	1	10	n/a	n/a	1	50	1
801.3916	1	10	n/a	n/a	1	50	2
802.4416	1	10	n/a	n/a	1	50	3
803.4914	1	21	n/a	n/a	1	50	0
804.5248	1	10	n/a	n/a	1	50	1
805.7746	1	10	n/a	n/a	1	50	2
807.058	1	10	n/a	n/a	1	50	3
808.1246	1	10	n/a	n/a	1	50	4
809.2412	1	10	n/a	n/a	1	50	5
810.3578	1	21	n/a	n/a	1	50	0
811.4744	1	10	n/a	n/a	1	50	1
812.741	1	10	n/a	n/a	1	50	2
813.9408	1	10	n/a	n/a	1	50	3
815.2574	1	10	n/a	n/a	1	50	4
816.324	1	10	n/a	n/a	1	50	5
817.3906	1	21	n/a	n/a	1	50	0
818.6906	1	10	n/a	n/a	1	50	1
819.8238	1	10	n/a	n/a	1	50	2
821.0904	1	10	n/a	n/a	1	50	3
822.157	1	10	n/a	n/a	1	50	4
823.1136	1	82	n/a	n/a	1	0	0
823.5476	1	82	n/a	n/a	1	0	0
823.6886	1	82	n/a	n/a	1	0	0
823.9526	1	82	n/a	n/a	1	0	0
824.0726	1	82	n/a	n/a	1	0	0
824.1136	1	82	n/a	n/a	1	0	0
824.2236	1	82	n/a	n/a	1	0	0
824.6336	1	82	n/a	n/a	1	0	0
824.9916	1	82	n/a	n/a	1	0	0
825.0346	1	82	n/a	n/a	1	0	0
826.2068	1	10	n/a	n/a	1	50	1
827.4068	1	21	n/a	n/a	1	50	0
828.6566	1	10	n/a	n/a	1	50	1
829.7066	1	10	n/a	n/a	1	50	2
830.8732	1	10	n/a	n/a	1	50	3
832.0398	1	21	n/a	n/a	1	50	0
833.223	1	10	n/a	n/a	1	50	1
834.3564	1	10	n/a	n/a	1	50	2
835.5396	1	10	n/a	n/a	1	50	3
836.7228	1	21	n/a	n/a	1	50	0
837.9728	1	10	n/a	n/a	1	50	1
839.206	1	10	n/a	n/a	1	50	2
840.4394	1	10	n/a	n/a	1	50	3
841.6726	1	21	n/a	n/a	1	50	0
842.8226	1	10	n/a	n/a	1	50	1
843.9892	1	10	n/a	n/a	1	50	2
845.189	1	10	n/a	n/a	1	50	3
846.389	1	21	n/a	n/a	1	50	0
847.6056	1	10	n/a	n/a	1	50	1
848.8222	1	21	n/a	n/a	1	50	0
849.6278	1	82	n/a	n/a	1	0	0
849.9638	1	82	n/a	n/a	1	0	0
850.1308	1	82	n/a	n/a	1	0	0
850.4918	1	82	n/a	n/a	1	0	0
850.5328	1	82	n/a	n/a	1	0	0
850.6278	1	82	n/a	n/a	1	0	0
851.0188	1	82	n/a	n/a	1	0	0
851.3408	1	82	n/a	n/a	1	0	0
851.3738	1	82	n/a	n/a	1	0	0
851.5468	1	82	n/a	n/a	1	0	0
852.7386	1	10	n/a	n/a	1	50	1
853.9552	1	21	n/a	n/a	1	50	0
855.2552	1	10	n/a	n/a	1	50	1
856.3384	1	10	n/a	n/a	1	50	2
857.605	1	10	n/a	n/a	1	50	3
858.8548	1	10	n/a	n/a	1	50	4
859.9548	1	10	n/a	n/a	1	50	5
861.0548	1	21	n/a	n/a	1	50	0
862.3546	1	10	n/a	n/a	1	50	1
863.4046	1	10	n/a	n/a	1	50	2
864.7046	1	10	n/a	n/a	1	50	3
866.0044	1	10	n/a	n/a	1	50	4
867.0544	1	10	n/a	n/a	1	50	5
868.1544	1	10	n/a	n/a	1	50	6
869.2376	1	10	n/a	n/a	1	50	7
870.3208	1	21	n/a	n/a	1	50	0
871.4042	1	10	n/a	n/a	1	50	1
872.4374	1	10	n/a	n/a	1	50	2
873.6374	1	10	n/a	n/a	1	50	3
874.754	1	10	n/a	n/a	1	50	4
875.5754	1	82	n/a	n/a	1	0	0
875.6374	1	82	n/a	n/a	1	0	0
875.8964	1	82	n/a	n/a	1	0	0
876.0754	1	82	n/a	n/a	1	0	0
876.4304	1	82	n/a	n/a	1	0	0
876.5754	1	82	n/a	n/a	1	0	0
876.8704	1	82	n/a	n/a	1	0	0
877.1004	1	82	n/a	n/a	1	0	0
877.2554	1	82	n/a	n/a	1	0	0
877.5184	1	82	n/a	n/a	1	0	0
878.537	1	10	n/a	n/a	1	50	1
879.6036	1	21	n/a	n/a	1	50	0
880.637	1	10	n/a	n/a	1	50	1
881.8202	1	10	n/a	n/a	1	50	2
882.9868	1	10	n/a	n/a	1	50	3
884.2534	1	10	n/a	n/a	1	50	4
885.42	1	10	n/a	n/a	1	50	5
886.5866	1	21	n/a	n/a	1	50	0
887.7532	1	10	n/a	n/a	1	50	1
888.8532	1	10	n/a	n/a	1	50	2
890.1364	1	10	n/a	n/a	1	50	3
891.2864	1	10	n/a	n/a	1	50	4
892.4696	1	10	n/a	n/a	1	50	5
893.6528	1	21	n/a	n/a	1	50	0
894.936	1	10	n/a	n/a	1	50	1
896.1694	1	10	n/a	n/a	1	50	2
897.4692	1	10	n/a	n/a	1	50	3
898.7692	1	21	n/a	n/a	1	50	0
900.0692	1	10	n/a	n/a	1	50	1
901.3858	1	10	n/a	n/a	1	50	2
902.3042	1	82	n/a	n/a	1	0	0
902.3332	1	82	n/a	n/a	1	0	0
902.7602	1	82	n/a	n/a	1	0	0
902.8182	1	82	n/a	n/a	1	0	0
903.1852	1	82	n/a	n/a	1	0	0
903.3042	1	82	n/a	n/a	1	0	0
903.5322	1	82	n/a	n/a	1	0	0
903.6242	1	82	n/a	n/a	1	0	0
903.8222	1	82	n/a	n/a	1	0	0
903.8572	1	82	n/a	n/a	1	0	0
905.4854	1	10	n/a	n/a	1	50	1
906.552	1	10	n/a	n/a	1	50	2
907.702	1	10	n/a	n/a	1	50	3
908.852	1	21	n/a	n/a	1	50	0
909.8852	1	10	n/a	n/a	1	50	1
911.0518	1	10	n/a	n/a	1	50	2
912.1184	1	10	n/a	n/a	1	50	3
913.285	1	10	n/a	n/a	1	50	4
914.4682	1	10	n/a	n/a	1	50	5
915.6516	1	21	n/a	n/a	1	50	0
916.8682	1	10	n/a	n/a	1	50	1
917.9514	1	10	n/a	n/a	1	50	2
919.1514	1	10	n/a	n/a	1	50	3
920.3512	1	21	n/a	n/a	1	50	0
921.5346	1	10	n/a	n/a	1	50	1
922.6012	1	10	n/a	n/a	1	50	2
923.901	1	10	n/a	n/a	1	50	3
925.201	1	21	n/a	n/a	1	50	0
926.3342	1	10	n/a	n/a	1	50	1
927.5508	1	10	n/a	n/a	1	50	2
948.8974	1	82	n/a	n/a	1	0	0
949.2174	1	82	n/a	n/a	1	0	0
949.3534	1	82	n/a	n/a	1	0	0
949.6294	1	82	n/a	n/a	1	0	0
949.7434	1	82	n/a	n/a	1	0	0
949.8974	1	82	n/a	n/a	1	0	0
950.0074	1	82	n/a	n/a	1	0	0
950.2814	1	82	n/a	n/a	1	0	0
950.4284	1	82	n/a	n/a	1	0	0
950.8424	1	82	n/a	n/a	1	0	0
952.0994	1	10	n/a	n/a	1	52	1
953.416	1	10	n/a	n/a	1	52	2
954.6826	1	10	n/a	n/a	1	52	3
955.9492	1	21	n/a	n/a	1	52	0
957.0324	1	10	n/a	n/a	1	52	1
958.349	1	10	n/a	n/a	1	52	2
959.449	1	10	n/a	n/a	1	52	3
960.5488	1	21	n/a	n/a	1	52	0
961.7654	1	10	n/a	n/a	1	52	1
962.982	1	10	n/a	n/a	1	52	2
964.0486	1	10	n/a	n/a	1	52	3
965.1152	1	21	n/a	n/a	1	52	0
966.3652	1	10	n/a	n/a	1	52	1
967.6318	1	10	n/a	n/a	1	52	2
968.765	1	10	n/a	n/a	1	52	3
969.8984	1	21	n/a	n/a	1	52	0
971.0482	1	10	n/a	n/a	1	52	1
972.1982	1	21	n/a	n/a	1	52	0
973.4648	1	10	n/a	n/a	1	52	1
974.7314	1	21	n/a	n/a	1	52	0
975.558	1	82	n/a	n/a	1	0	0
975.655	1	82	n/a	n/a	1	0	0
975.79	1	82	n/a	n/a	1	0	0
975.946	1	82	n/a	n/a	1	0	0
976.173	1	82	n/a	n/a	1	0	0
976.558	1	82	n/a	n/a	1	0	0
976.631	1	82	n/a	n/a	1	0	0
976.682	1	82	n/a	n/a	1	0	0
976.854	1	82	n/a	n/a	1	0	0
977.294	1	82	n/a	n/a	1	0	0
978.4812	1	10	n/a	n/a	1	52	1
979.7644	1	10	n/a	n/a	1	52	2
981.0644	1	10	n/a	n/a	1	52	3
982.3642	1	21	n/a	n/a	1	52	0
983.4642	1	10	n/a	n/a	1	52	1
984.7308	1	10	n/a	n/a	1	52	2
985.8474	1	10	n/a	n/a	1	52	3
986.964	1	21	n/a	n/a	1	52	0
988.0972	1	10	n/a	n/a	1	52	1
989.2306	1	21	n/a	n/a	1	52	0
990.4638	1	10	n/a	n/a	1	52	1
991.7138	1	10	n/a	n/a	1	52	2
992.897	1	10	n/a	n/a	1	52	3
994.0136	1	10	n/a	n/a	1	52	4
995.0468	1	10	n/a	n/a	1	52	5
996.0802	1	21	n/a	n/a	1	52	0
997.13	1	10	n/a	n/a	1	52	1
998.1966	1	21	n/a	n/a	1	52	0
999.2632	1	10	n/a	n/a	1	52	1
1000.3298	1	21	n/a	n/a	1	52	0
1001.3076	1	82	n/a	n/a	1	0	0
1001.3646	1	82	n/a	n/a	1	0	0
1001.7746	1	82	n/a	n/a	1	0	0
1001.8666	1	82	n/a	n/a	1	0	0
1001.9006	1	82	n/a	n/a	1	0	0
1002.3076	1	82	n/a	n/a	1	0	0
1002.4466	1	82	n/a	n/a	1	0	0
1002.6096	1	82	n/a	n/a	1	0	0
1002.6686	1	82	n/a	n/a	1	0	0
1002.9616	1	82	n/a	n/a	1	0	0
1004.313	1	10	n/a	n/a	1	52	1
1005.5962	1	10	n/a	n/a	1	52	2
1006.8628	1	10	n/a	n/a	1	52	3
1008.1294	1	21	n/a	n/a	1	52	0
1009.2794	1	10	n/a	n/a	1	52	1
1010.4292	1	21	n/a	n/a	1	52	0
1011.6292	1	10	n/a	n/a	1	52	1
1012.6624	1	10	n/a	n/a	1	52	2
1013.979	1	10	n/a	n/a	1	52	3
1015.2956	1	21	n/a	n/a	1	52	0
1016.3622	1	10	n/a	n/a	1	52	1
1017.6622	1	10	n/a	n/a	1	52	2
1018.7454	1	10	n/a	n/a	1	52	3
1019.9288	1	10	n/a	n/a	1	52	4
1021.1954	1	10	n/a	n/a	1	52	5
1022.462	1	21	n/a	n/a	1	52	0
1023.5786	1	10	n/a	n/a	1	52	1
1024.7784	1	10	n/a	n/a	1	52	2
1025.895	1	10	n/a	n/a	1	52	3
1027.195	1	10	n/a	n/a	1	52	4
1027.9704	1	82	n/a	n/a	1	0	0
1028.1414	1	82	n/a	n/a	1	0	0
1028.2634	1	82	n/a	n/a	1	0	0
1028.2904	1	82	n/a	n/a	1	0	0
1028.3574	1	82	n/a	n/a	1	0	0
1028.9704	1	82	n/a	n/a	1	0	0
1029.3434	1	82	n/a	n/a	1	0	0
1029.6554	1	82	n/a	n/a	1	0	0
1029.7514	1	82	n/a	n/a	1	0	0
1029.8134	1	82	n/a	n/a	1	0	0
1031.0948	1	10	n/a	n/a	1	52	1
1032.328	1	21	n/a	n/a	1	52	0
1033.5612	1	10	n/a	n/a	1	52	1
1034.7778	1	10	n/a	n/a	1	52	2
1035.8444	1	10	n/a	n/a	1	52	3
1037.011	1	10	n/a	n/a	1	52	4
1038.311	1	10	n/a	n/a	1	52	5
1039.6108	1	21	n/a	n/a	1	52	0
1040.7108	1	10	n/a	n/a	1	52	1
1041.8608	1	10	n/a	n/a	1	52	2
1043.094	1	10	n/a	n/a	1	52	3
1044.2606	1	10	n/a	n/a	1	52	4
1045.5272	1	10	n/a	n/a	1	52	5
1046.7938	1	21	n/a	n/a	1	52	0
1047.9938	1	10	n/a	n/a	1	52	1
1049.277	1	10	n/a	n/a	1	52	2
1050.5436	1	10	n/a	n/a	1	52	3
1051.8102	1	21	n/a	n/a	1	52	0
1052.9602	1	10	n/a	n/a	1	52	1
1054.1268	1	10	n/a	n/a	1	52	2
1055.0962	1	82	n/a	n/a	1	0	0
1055.1842	1	82	n/a	n/a	1	0	0
1055.2312	1	82	n/a	n/a	1	0	0
1055.6082	1	82	n/a	n/a	1	0	0
1055.7762	1	82	n/a	n/a	1	0	0
1056.0962	1	82	n/a	n/a	1	0	0
1056.2612	1	82	n/a	n/a	1	0	0
1056.5342	1	82	n/a	n/a	1	0	0
1056.6082	1	82	n/a	n/a	1	0	0
1057.0402	1	82	n/a	n/a	1	0	0
1058.3098	1	10	n/a	n/a	1	52	1
1059.493	1	10	n/a	n/a	1	52	2
1060.5764	1	10	n/a	n/a	1	52	3
1061.6596	1	21	n/a	n/a	1	52	0
1062.7762	1	10	n/a	n/a	1	52	1
1063.9428	1	10	n/a	n/a	1	52	2
1065.1928	1	10	n/a	n/a	1	52	3
1066.326	1	10	n/a	n/a	1	52	4
1067.5092	1	10	n/a	n/a	1	52	5
1068.6926	1	21	n/a	n/a	1	52	0
1069.8924	1	10	n/a	n/a	1	52	1
1070.9924	1	10	n/a	n/a	1	52	2
1072.0924	1	10	n/a	n/a	1	52	3
1073.2922	1	10	n/a	n/a	1	52	4
1074.5588	1	10	n/a	n/a	1	52	5
1075.842	1	10	n/a	n/a	1	52	6
1077.1754	1	10	n/a	n/a	1	52	7
1078.5086	1	21	n/a	n/a	1	52	0
1079.8086	1	10	n/a	n/a	1	52	1
1081.0584	1	10	n/a	n/a	1	52	2
1159.8278	1	82	n/a	n/a	1	0	0
1159.9388	1	82	n/a	n/a	1	0	0
1160.1138	1	82	n/a	n/a	1	0	0
1160.4718	1	82	n/a	n/a	1	0	0
1160.7638	1	82	n/a	n/a	1	0	0
1160.8278	1	82	n/a	n/a	1	0	0
1160.9268	1	82	n/a	n/a	1	0	0
1161.0508	1	82	n/a	n/a	1	0	0
1161.4638	1	82	n/a	n/a	1	0	0
1161.5398	1	82	n/a	n/a	1	0	0
1162.837	1	10	n/a	n/a	1	52	1
1163.9868	1	10	n/a	n/a	1	52	2
1165.2202	1	10	n/a	n/a	1	52	3
1166.2534	1	10	n/a	n/a	1	52	4
1167.57	1	10	n/a	n/a	1	52	5
1168.8866	1	21	n/a	n/a	1	52	0
1170.0698	1	10	n/a	n/a	1	52	1
1171.3864	1	10	n/a	n/a	1	52	2
1172.4198	1	10	n/a	n/a	1	52	3
1173.453	1	21	n/a	n/a	1	52	0
1174.653	1	10	n/a	n/a	1	52	1
1175.9528	1	10	n/a	n/a	1	52	2
1177.0694	1	10	n/a	n/a	1	52	3
1178.336	1	10	n/a	n/a	1	52	4
1179.536	1	10	n/a	n/a	1	52	5
1180.786	1	10	n/a	n/a	1	52	6
1182.0692	1	10	n/a	n/a	1	52	7
1183.3524	1	21	n/a	n/a	1	52	0
1184.469	1	10	n/a	n/a	1	52	1
1185.5856	1	10	n/a	n/a	1	52	2
1186.451	1	82	n/a	n/a	1	0	0
1186.8	1	82	n/a	n/a	1	0	0
1186.867	1	82	n/a	n/a	1	0	0
1187.139	1	82	n/a	n/a	1	0	0
1187.262	1	82	n/a	n/a	1	0	0
1187.451	1	82	n/a	n/a	1	0	0
1187.729	1	82	n/a	n/a	1	0	0
1188.038	1	82	n/a	n/a	1	0	0
1188.081	1	82	n/a	n/a	1	0	0
1188.329	1	82	n/a	n/a	1	0	0
1189.5188	1	10	n/a	n/a	1	52	1
1190.702	1	10	n/a	n/a	1	52	2
1191.752	1	10	n/a	n/a	1	52	3
1192.8686	1	10	n/a	n/a	1	52	4
1193.9018	1	10	n/a	n/a	1	52	5
1195.1184	1	10	n/a	n/a	1	52	6
1196.2684	1	10	n/a	n/a	1	52	7
1197.4182	1	21	n/a	n/a	1	52	0
1198.5348	1	10	n/a	n/a	1	52	1
1199.7848	1	10	n/a	n/a	1	52	2
1200.9348	1	10	n/a	n/a	1	52	3
1202.1514	1	10	n/a	n/a	1	52	4
1203.4512	1	10	n/a	n/a	1	52	5
1204.5678	1	10	n/a	n/a	1	52	6
1205.6178	1	10	n/a	n/a	1	52	7
1206.6678	1	21	n/a	n/a	1	52	0
1207.951	1	10	n/a	n/a	1	52	1
1209.1176	1	10	n/a	n/a	1	52	2
1210.4008	1	10	n/a	n/a	1	52	3
1211.684	1	21	n/a	n/a	1	52	0
1212.5718	1	82	n/a	n/a	1	0	0
1212.8858	1	82	n/a	n/a	1	0	0
1212.9538	1	82	n/a	n/a	1	0	0
1213.0978	1	82	n/a	n/a	1	0	0
1213.4868	1	82	n/a	n/a	1	0	0
1213.5718	1	82	n/a	n/a	1	0	0
1213.8968	1	82	n/a	n/a	1	0	0
1214.2448	1	82	n/a	n/a	1	0	0
1214.2798	1	82	n/a	n/a	1	0	0
1214.3758	1	82	n/a	n/a	1	0	0
1215.5172	1	10	n/a	n/a	1	52	1
1216.6338	1	10	n/a	n/a	1	52	2
1217.717	1	10	n/a	n/a	1	52	3
1219.017	1	10	n/a	n/a	1	52	4
1220.1836	1	10	n/a	n/a	1	52	5
1221.3502	1	21	n/a	n/a	1	52	0
1222.6334	1	10	n/a	n/a	1	52	1
1223.85	1	10	n/a	n/a	1	52	2
1224.9166	1	10	n/a	n/a	1	52	3
1225.9832	1	21	n/a	n/a	1	52	0
1227.1832	1	10	n/a	n/a	1	52	1
1228.383	1	21	n/a	n/a	1	52	0
1229.683	1	10	n/a	n/a	1	52	1
1230.983	1	21	n/a	n/a	1	52	0
1232.2828	1	10	n/a	n/a	1	52	1
1233.3828	1	10	n/a	n/a	1	52	2
1234.5494	1	10	n/a	n/a	1	52	3
1235.716	1	21	n/a	n/a	1	52	0
1236.9326	1	10	n/a	n/a	1	52	1
1237.9658	1	10	n/a	n/a	1	52	2
1238.9124	1	82	n/a	n/a	1	0	0
1239.3354	1	82	n/a	n/a	1	0	0
1239.5894	1	82	n/a	n/a	1	0	0
1239.6124	1	82	n/a	n/a	1	0	0
1239.7784	1	82	n/a	n/a	1	0	0
1239.9124	1	82	n/a	n/a	1	0	0
1240.0904	1	82	n/a	n/a	1	0	0
1240.1134	1	82	n/a	n/a	1	0	0
1240.5064	1	82	n/a	n/a	1	0	0
1240.8214	1	82	n/a	n/a	1	0	0
1242.049	1	10	n/a	n/a	1	52	1
1243.2988	1	21	n/a	n/a	1	52	0
1244.4322	1	10	n/a	n/a	1	52	1
1245.6488	1	10	n/a	n/a	1	52	2
1246.7654	1	10	n/a	n/a	1	52	3
1247.8652	1	10	n/a	n/a	1	52	4
1249.1818	1	10	n/a	n/a	1	52	5
1250.4984	1	21	n/a	n/a	1	52	0
1251.815	1	10	n/a	n/a	1	52	1
1253.1316	1	21	n/a	n/a	1	52	0
1254.3316	1	10	n/a	n/a	1	52	1
1255.5648	1	10	n/a	n/a	1	52	2
1256.648	1	10	n/a	n/a	1	52	3
1257.7314	1	21	n/a	n/a	1	52	0
1258.9646	1	10	n/a	n/a	1	52	1
1260.2146	1	21	n/a	n/a	1	52	0
1261.2478	1	10	n/a	n/a	1	52	1
1262.5478	1	10	n/a	n/a	1	52	2
1263.8144	1	10	n/a	n/a	1	52	3
1265.081	1	21	n/a	n/a	1	52	0
1265.8656	1	82	n/a	n/a	1	0	0
1265.9196	1	82	n/a	n/a	1	0	0
1266.2356	1	82	n/a	n/a	1	0	0
1266.4426	1	82	n/a	n/a	1	0	0
1266.7016	1	82	n/a	n/a	1	0	0
1266.8656	1	82	n/a	n/a	1	0	0
1266.9976	1	82	n/a	n/a	1	0	0
1267.0876	1	82	n/a	n/a	1	0	0
1267.4476	1	82	n/a	n/a	1	0	0
1267.6066	1	82	n/a	n/a	1	0	0
1268.964	1	10	n/a	n/a	1	52	1
1270.164	1	21	n/a	n/a	1	52	0
1271.2638	1	10	n/a	n/a	1	52	1
1272.3638	1	10	n/a	n/a	1	52	2
1273.6304	1	10	n/a	n/a	1	52	3
1274.747	1	10	n/a	n/a	1	52	4
1275.9302	1	10	n/a	n/a	1	52	5
1277.0136	1	10	n/a	n/a	1	52	6
1278.1302	1	10	n/a	n/a	1	52	7
1279.2468	1	21	n/a	n/a	1	52	0
1280.33	1	10	n/a	n/a	1	52	1
1281.63	1	10	n/a	n/a	1	52	2
1282.7798	1	10	n/a	n/a	1	52	3
1283.9632	1	10	n/a	n/a	1	52	4
1285.0298	1	10	n/a	n/a	1	52	5
1286.0964	1	21	n/a	n/a	1	52	0
1287.3962	1	10	n/a	n/a	1	52	1
1288.5628	1	10	n/a	n/a	1	52	2
1289.8794	1	10	n/a	n/a	1	52	3
1291.196	1	21	n/a	n/a	1	52	0
1305.6586	1	81	n/a	n/a	1	0	0
1305.8586	1	81	n/a	n/a	1	0	0
1306.0586	1	81	n/a	n/a	1	0	0
1306.2586	1	81	n/a	n/a	1	0	0
1306.4586	1	81	n/a	n/a	1	0	0
1306.6586	1	81	n/a	n/a	1	0	0
1306.8586	1	81	n/a	n/a	1	0	0
1307.0586	1	81	n/a	n/a	1	0	0
1307.2586	1	81	n/a	n/a	1	0	0
1307.4586	1	81	n/a	n/a	1	0	0
1308.695	1	10	n/a	n/a	1	50	1
1309.8616	1	10	n/a	n/a	1	50	2
1311.1782	1	10	n/a	n/a	1	50	3
1312.4448	1	10	n/a	n/a	1	50	4
1313.5948	1	10	n/a	n/a	1	50	5
1314.7446	1	21	n/a	n/a	1	50	0
1315.7946	1	10	n/a	n/a	1	50	1
1316.8446	1	21	n/a	n/a	1	50	0
1318.0778	1	10	n/a	n/a	1	50	1
1319.311	1	10	n/a	n/a	1	50	2
1320.5276	1	10	n/a	n/a	1	50	3
1321.8276	1	10	n/a	n/a	1	50	4
1322.9276	1	10	n/a	n/a	1	50	5
1324.1442	1	10	n/a	n/a	1	50	6
1325.394	1	10	n/a	n/a	1	50	7
1326.644	1	21	n/a	n/a	1	50	0
1327.7772	1	10	n/a	n/a	1	50	1
1329.0104	1	10	n/a	n/a	1	50	2
1330.277	1	10	n/a	n/a	1	50	3
1331.5104	1	10	n/a	n/a	1	50	4
1332.3738	1	81	n/a	n/a	1	0	0
1332.5738	1	81	n/a	n/a	1	0	0
1332.7738	1	81	n/a	n/a	1	0	0
1332.9738	1	81	n/a	n/a	1	0	0
1333.1738	1	81	n/a	n/a	1	0	0
1333.3738	1	81	n/a	n/a	1	0	0
1333.5738	1	81	n/a	n/a	1	0	0
1333.7738	1	81	n/a	n/a	1	0	0
1333.9738	1	81	n/a	n/a	1	0	0
1334.1738	1	81	n/a	n/a	1	0	0
1335.3434	1	10	n/a	n/a	1	50	1
1336.66	1	10	n/a	n/a	1	50	2
1337.7932	1	10	n/a	n/a	1	50	3
1338.9266	1	21	n/a	n/a	1	50	0
1340.2432	1	10	n/a	n/a	1	50	1
1341.343	1	10	n/a	n/a	1	50	2
1342.493	1	10	n/a	n/a	1	50	3
1343.643	1	21	n/a	n/a	1	50	0
1344.7428	1	10	n/a	n/a	1	50	1
1345.9262	1	10	n/a	n/a	1	50	2
1347.1094	1	10	n/a	n/a	1	50	3
1348.1926	1	10	n/a	n/a	1	50	4
1349.426	1	10	n/a	n/a	1	50	5
1350.7426	1	10	n/a	n/a	1	50	6
1351.9592	1	10	n/a	n/a	1	50	7
1353.1758	1	21	n/a	n/a	1	50	0
1354.2756	1	10	n/a	n/a	1	50	1
1355.3756	1	21	n/a	n/a	1	50	0
1356.6422	1	10	n/a	n/a	1	50	1
1357.9588	1	10	n/a	n/a	1	50	2
1359.0312	1	81	n/a	n/a	1	0	0
1359.2312	1	81	n/a	n/a	1	0	0
1359.4312	1	81	n/a	n/a	1	0	0
1359.6312	1	81	n/a	n/a	1	0	0
1359.8312	1	81	n/a	n/a	1	0	0
1360.0312	1	81	n/a	n/a	1	0	0
1360.2312	1	81	n/a	n/a	1	0	0
1360.4312	1	81	n/a	n/a	1	0	0
1360.6312	1	81	n/a	n/a	1	0	0
1360.8312	1	81	n/a	n/a	1	0	0
1362.1086	1	10	n/a	n/a	1	50	1
1363.4252	1	10	n/a	n/a	1	50	2
1364.625	1	10	n/a	n/a	1	50	3
1365.825	1	21	n/a	n/a	1	50	0
1367.1082	1	10	n/a	n/a	1	50	1
1368.2082	1	10	n/a	n/a	1	50	2
1369.458	1	10	n/a	n/a	1	50	3
1370.7246	1	10	n/a	n/a	1	50	4
1372.0412	1	10	n/a	n/a	1	50	5
1373.3578	1	10	n/a	n/a	1	50	6
1374.4578	1	10	n/a	n/a	1	50	7
1375.5578	1	21	n/a	n/a	1	50	0
1376.8576	1	10	n/a	n/a	1	50	1
1377.9242	1	10	n/a	n/a	1	50	2
1379.1242	1	10	n/a	n/a	1	50	3
1380.2908	1	10	n/a	n/a	1	50	4
1381.6074	1	10	n/a	n/a	1	50	5
1382.924	1	21	n/a	n/a	1	50	0
1384.0406	1	10	n/a	n/a	1	50	1
1385.3572	1	10	n/a	n/a	1	50	2
1386.3186	1	81	n/a	n/a	1	0	0
1386.5186	1	81	n/a	n/a	1	0	0
1386.7186	1	81	n/a	n/a	1	0	0
1386.9186	1	81	n/a	n/a	1	0	0
1387.1186	1	81	n/a	n/a	1	0	0
1387.3186	1	81	n/a	n/a	1	0	0
1387.5186	1	81	n/a	n/a	1	0	0
1387.7186	1	81	n/a	n/a	1	0	0
1387.9186	1	81	n/a	n/a	1	0	0
1388.1186	1	81	n/a	n/a	1	0	0
1389.3402	1	10	n/a	n/a	1	50	1
1390.5736	1	10	n/a	n/a	1	50	2
1391.6568	1	10	n/a	n/a	1	50	3
1392.74	1	21	n/a	n/a	1	50	0
1393.8734	1	10	n/a	n/a	1	50	1
1395.0566	1	10	n/a	n/a	1	50	2
1396.1066	1	10	n/a	n/a	1	50	3
1397.1898	1	10	n/a	n/a	1	50	4
1398.2398	1	10	n/a	n/a	1	50	5
1399.523	1	10	n/a	n/a	1	50	6
1400.673	1	10	n/a	n/a	1	50	7
1401.8228	1	21	n/a	n/a	1	50	0
1402.9894	1	10	n/a	n/a	1	50	1
1404.306	1	10	n/a	n/a	1	50	2
1405.506	1	10	n/a	n/a	1	50	3
1406.7392	1	10	n/a	n/a	1	50	4
1407.8058	1	10	n/a	n/a	1	50	5
1408.8724	1	21	n/a	n/a	1	50	0
1409.989	1	10	n/a	n/a	1	50	1
1411.1056	1	21	n/a	n/a	1	50	0
1411.8492	1	81	n/a	n/a	1	0	0
1412.0492	1	81	n/a	n/a	1	0	0
1412.2492	1	81	n/a	n/a	1	0	0
1412.4492	1	81	n/a	n/a	1	0	0
1412.6492	1	81	n/a	n/a	1	0	0
1412.8492	1	81	n/a	n/a	1	0	0
1413.0492	1	81	n/a	n/a	1	0	0
1413.2492	1	81	n/a	n/a	1	0	0
1413.4492	1	81	n/a	n/a	1	0	0
1413.6492	1	81	n/a	n/a	1	0	0
1414.9554	1	10	n/a	n/a	1	50	1
1416.222	1	10	n/a	n/a	1	50	2
1417.422	1	10	n/a	n/a	1	50	3
1418.7386	1	10	n/a	n/a	1	50	4
1419.8052	1	10	n/a	n/a	1	50	5
1420.905	1	10	n/a	n/a	1	50	6
1422.0384	1	10	n/a	n/a	1	50	7
1423.1716	1	21	n/a	n/a	1	50	0
1424.4216	1	10	n/a	n/a	1	50	1
1425.5382	1	10	n/a	n/a	1	50	2
1426.6048	1	10	n/a	n/a	1	50	3
1427.7546	1	10	n/a	n/a	1	50	4
1429.0046	1	10	n/a	n/a	1	50	5
1430.2878	1	10	n/a	n/a	1	50	6
1431.3544	1	10	n/a	n/a	1	50	7
1432.421	1	21	n/a	n/a	1	50	0
1433.6544	1	10	n/a	n/a	1	50	1
1434.8876	1	21	n/a	n/a	1	50	0
1436.0874	1	10	n/a	n/a	1	50	1
1437.2708	1	10	n/a	n/a	1	50	2
1460.6704	1	81	n/a	n/a	1	0	0
1460.8704	1	81	n/a	n/a	1	0	0
1461.0704	1	81	n/a	n/a	1	0	0
1461.2704	1	81	n/a	n/a	1	0	0
1461.4704	1	81	n/a	n/a	1	0	0
1461.6704	1	81	n/a	n/a	1	0	0
1461.8704	1	81	n/a	n/a	1	0	0
1462.0704	1	81	n/a	n/a	1	0	0
1462.2704	1	81	n/a	n/a	1	0	0
1462.4704	1	81	n/a	n/a	1	0	0
1463.7692	1	10	n/a	n/a	1	51	1
1464.8192	1	10	n/a	n/a	1	51	2
1465.869	1	10	n/a	n/a	1	51	3
1467.1524	1	10	n/a	n/a	1	51	4
1468.469	1	10	n/a	n/a	1	51	5
1469.7856	1	21	n/a	n/a	1	51	0
1470.9688	1	10	n/a	n/a	1	51	1
1472.102	1	10	n/a	n/a	1	51	2
1473.3852	1	10	n/a	n/a	1	51	3
1474.5018	1	10	n/a	n/a	1	51	4
1475.5518	1	10	n/a	n/a	1	51	5
1476.6018	1	10	n/a	n/a	1	51	6
1477.7184	1	10	n/a	n/a	1	51	7
1478.835	1	21	n/a	n/a	1	51	0
1479.935	1	10	n/a	n/a	1	51	1
1481.2348	1	10	n/a	n/a	1	51	2
1482.3348	1	10	n/a	n/a	1	51	3
1483.4348	1	21	n/a	n/a	1	51	0
1484.6012	1	10	n/a	n/a	1	51	1
1485.7346	1	10	n/a	n/a	1	51	2
1486.785	1	81	n/a	n/a	1	0	0
1486.985	1	81	n/a	n/a	1	0	0
1487.185	1	81	n/a	n/a	1	0	0
1487.385	1	81	n/a	n/a	1	0	0
1487.585	1	81	n/a	n/a	1	0	0
1487.785	1	81	n/a	n/a	1	0	0
1487.985	1	81	n/a	n/a	1	0	0
1488.185	1	81	n/a	n/a	1	0	0
1488.385	1	81	n/a	n/a	1	0	0
1488.585	1	81	n/a	n/a	1	0	0
1489.7844	1	10	n/a	n/a	1	51	1
1490.901	1	10	n/a	n/a	1	51	2
1491.9342	1	10	n/a	n/a	1	51	3
1492.9674	1	10	n/a	n/a	1	51	4
1494.3008	1	10	n/a	n/a	1	51	5
1495.584	1	10	n/a	n/a	1	51	6
1496.7506	1	10	n/a	n/a	1	51	7
1497.9172	1	21	n/a	n/a	1	51	0
1498.9672	1	10	n/a	n/a	1	51	1
1500.1838	1	10	n/a	n/a	1	51	2
1501.2504	1	10	n/a	n/a	1	51	3
1502.517	1	10	n/a	n/a	1	51	4
1503.8168	1	10	n/a	n/a	1	51	5
1504.9	1	10	n/a	n/a	1	51	6
1506	1	10	n/a	n/a	1	51	7
1507.1	1	21	n/a	n/a	1	51	0
1508.1666	1	10	n/a	n/a	1	51	1
1509.4664	1	10	n/a	n/a	1	51	2
1510.583	1	10	n/a	n/a	1	51	3
1511.6996	1	21	n/a	n/a	1	51	0
1512.8134	1	81	n/a	n/a	1	0	0
1513.0134	1	81	n/a	n/a	1	0	0
1513.2134	1	81	n/a	n/a	1	0	0
1513.4134	1	81	n/a	n/a	1	0	0
1513.6134	1	81	n/a	n/a	1	0	0
1513.8134	1	81	n/a	n/a	1	0	0
1514.0134	1	81	n/a	n/a	1	0	0
1514.2134	1	81	n/a	n/a	1	0	0
1514.4134	1	81	n/a	n/a	1	0	0
1514.6134	1	81	n/a	n/a	1	0	0
1515.8828	1	10	n/a	n/a	1	51	1
1517.1828	1	10	n/a	n/a	1	51	2
1518.466	1	10	n/a	n/a	1	51	3
1519.5992	1	10	n/a	n/a	1	51	4
1520.9158	1	10	n/a	n/a	1	51	5
1522.1324	1	10	n/a	n/a	1	51	6
1523.4324	1	10	n/a	n/a	1	51	7
1524.7322	1	21	n/a	n/a	1	51	0
1525.8156	1	10	n/a	n/a	1	51	1
1527.0488	1	10	n/a	n/a	1	51	2
1528.3488	1	10	n/a	n/a	1	51	3
1529.382	1	10	n/a	n/a	1	51	4
1530.632	1	10	n/a	n/a	1	51	5
1531.8818	1	21	n/a	n/a	1	51	0
1533.0818	1	10	n/a	n/a	1	51	1
1534.215	1	10	n/a	n/a	1	51	2
1535.465	1	10	n/a	n/a	1	51	3
1536.5482	1	10	n/a	n/a	1	51	4
1537.6982	1	10	n/a	n/a	1	51	5
1538.848	1	21	n/a	n/a	1	51	0
1539.9028	1	81	n/a	n/a	1	0	0
1540.1028	1	81	n/a	n/a	1	0	0
1540.3028	1	81	n/a	n/a	1	0	0
1540.5028	1	81	n/a	n/a	1	0	0
1540.7028	1	81	n/a	n/a	1	0	0
1540.9028	1	81	n/a	n/a	1	0	0
1541.1028	1	81	n/a	n/a	1	0	0
1541.3028	1	81	n/a	n/a	1	0	0
1541.5028	1	81	n/a	n/a	1	0	0
1541.7028	1	81	n/a	n/a	1	0	0
1542.9978	1	10	n/a	n/a	1	51	1
1544.3144	1	10	n/a	n/a	1	51	2
1545.4644	1	10	n/a	n/a	1	51	3
1546.6144	1	10	n/a	n/a	1	51	4
1547.6976	1	10	n/a	n/a	1	51	5
1548.9142	1	10	n/a	n/a	1	51	6
1550.214	1	10	n/a	n/a	1	51	7
1551.514	1	21	n/a	n/a	1	51	0
1552.764	1	10	n/a	n/a	1	51	1
1553.9306	1	10	n/a	n/a	1	51	2
1555.0638	1	10	n/a	n/a	1	51	3
1556.197	1	21	n/a	n/a	1	51	0
1557.347	1	10	n/a	n/a	1	51	1
1558.597	1	10	n/a	n/a	1	51	2
1559.8968	1	10	n/a	n/a	1	51	3
1561.1968	1	21	n/a	n/a	1	51	0
1562.4634	1	10	n/a	n/a	1	51	1
1563.5466	1	10	n/a	n/a	1	51	2
1564.68	1	10	n/a	n/a	1	51	3
1565.8632	1	10	n/a	n/a	1	51	4
1566.9766	1	81	n/a	n/a	1	0	0
1567.1766	1	81	n/a	n/a	1	0	0
1567.3766	1	81	n/a	n/a	1	0	0
1567.5766	1	81	n/a	n/a	1	0	0
1567.7766	1	81	n/a	n/a	1	0	0
1567.9766	1	81	n/a	n/a	1	0	0
1568.1766	1	81	n/a	n/a	1	0	0
1568.3766	1	81	n/a	n/a	1	0	0
1568.5766	1	81	n/a	n/a	1	0	0
1568.7766	1	81	n/a	n/a	1	0	0
1569.9462	1	10	n/a	n/a	1	51	1
1571.0296	1	21	n/a	n/a	1	51	0
1572.2794	1	10	n/a	n/a	1	51	1
1573.5294	1	21	n/a	n/a	1	51	0
1574.5794	1	10	n/a	n/a	1	51	1
1575.6292	1	21	n/a	n/a	1	51	0
1576.9292	1	10	n/a	n/a	1	51	1
1578.229	1	21	n/a	n/a	1	51	0
1579.2624	1	10	n/a	n/a	1	51	1
1580.3124	1	10	n/a	n/a	1	51	2
1581.3622	1	10	n/a	n/a	1	51	3
1582.6788	1	10	n/a	n/a	1	51	4
1584.012	1	10	n/a	n/a	1	51	5
1585.3454	1	21	n/a	n/a	1	51	0
1586.412	1	10	n/a	n/a	1	51	1
1587.6452	1	10	n/a	n/a	1	51	2
1588.7784	1	10	n/a	n/a	1	51	3
1589.8118	1	10	n/a	n/a	1	51	4
1591.095	1	10	n/a	n/a	1	51	5
1592.3782	1	21	n/a	n/a	1	51	0
1639.9698	1	82	n/a	n/a	1	0	0
1640.2858	1	82	n/a	n/a	1	0	0
1640.3058	1	82	n/a	n/a	1	0	0
1640.5058	1	82	n/a	n/a	1	0	0
1640.7998	1	82	n/a	n/a	1	0	0
1640.9698	1	82	n/a	n/a	1	0	0
1641.3308	1	82	n/a	n/a	1	0	0
1641.3518	1	82	n/a	n/a	1	0	0
1641.5768	1	82	n/a	n/a	1	0	0
1641.9128	1	82	n/a	n/a	1	0	0
1643.0798	1	10	n/a	n/a	1	52	1
1644.3298	1	10	n/a	n/a	1	52	2
1645.6464	1	10	n/a	n/a	1	52	3
1646.963	1	21	n/a	n/a	1	52	0
1648.1962	1	10	n/a	n/a	1	52	1
1649.3628	1	10	n/a	n/a	1	52	2
1650.5462	1	10	n/a	n/a	1	52	3
1651.696	1	10	n/a	n/a	1	52	4
1652.8794	1	10	n/a	n/a	1	52	5
1654.0292	1	10	n/a	n/a	1	52	6
1655.2126	1	10	n/a	n/a	1	52	7
1656.3958	1	21	n/a	n/a	1	52	0
1657.629	1	10	n/a	n/a	1	52	1
1658.8622	1	10	n/a	n/a	1	52	2
1660.0956	1	10	n/a	n/a	1	52	3
1661.3288	1	21	n/a	n/a	1	52	0
1662.3954	1	10	n/a	n/a	1	52	1
1663.462	1	21	n/a	n/a	1	52	0
1664.762	1	10	n/a	n/a	1	52	1
1666.0618	1	10	n/a	n/a	1	52	2
1667.1144	1	82	n/a	n/a	1	0	0
1667.1684	1	82	n/a	n/a	1	0	0
1667.2664	1	82	n/a	n/a	1	0	0
1667.2904	1	82	n/a	n/a	1	0	0
1667.4534	1	82	n/a	n/a	1	0	0
1668.1144	1	82	n/a	n/a	1	0	0
1668.2324	1	82	n/a	n/a	1	0	0
1668.5674	1	82	n/a	n/a	1	0	0
1668.9424	1	82	n/a	n/a	1	0	0
1668.9644	1	82	n/a	n/a	1	0	0
1670.2616	1	10	n/a	n/a	1	52	1
1671.5282	1	10	n/a	n/a	1	52	2
1672.7614	1	10	n/a	n/a	1	52	3
1673.8948	1	10	n/a	n/a	1	52	4
1675.128	1	10	n/a	n/a	1	52	5
1676.4112	1	10	n/a	n/a	1	52	6
1677.6278	1	10	n/a	n/a	1	52	7
1678.8444	1	21	n/a	n/a	1	52	0
1680.0944	1	10	n/a	n/a	1	52	1
1681.3444	1	10	n/a	n/a	1	52	2
1682.5276	1	10	n/a	n/a	1	52	3
1683.6276	1	10	n/a	n/a	1	52	4
1684.8108	1	10	n/a	n/a	1	52	5
1686.0606	1	10	n/a	n/a	1	52	6
1687.344	1	10	n/a	n/a	1	52	7
1688.6272	1	21	n/a	n/a	1	52	0
1689.9272	1	10	n/a	n/a	1	52	1
1691.227	1	21	n/a	n/a	1	52	0
1692.4436	1	10	n/a	n/a	1	52	1
1693.4936	1	10	n/a	n/a	1	52	2
1694.4922	1	82	n/a	n/a	1	0	0
1694.5382	1	82	n/a	n/a	1	0	0
1694.6862	1	82	n/a	n/a	1	0	0
1694.9912	1	82	n/a	n/a	1	0	0
1695.3612	1	82	n/a	n/a	1	0	0
1695.4922	1	82	n/a	n/a	1	0	0
1695.7172	1	82	n/a	n/a	1	0	0
1695.7932	1	82	n/a	n/a	1	0	0
1695.8472	1	82	n/a	n/a	1	0	0
1696.0962	1	82	n/a	n/a	1	0	0
1697.6266	1	10	n/a	n/a	1	52	1
1698.86	1	10	n/a	n/a	1	52	2
1700.0432	1	10	n/a	n/a	1	52	3
1701.2264	1	21	n/a	n/a	1	52	0
1702.5264	1	10	n/a	n/a	1	52	1
1703.5764	1	10	n/a	n/a	1	52	2
1704.8762	1	10	n/a	n/a	1	52	3
1706.1596	1	10	n/a	n/a	1	52	4
1707.4094	1	10	n/a	n/a	1	52	5
1708.576	1	10	n/a	n/a	1	52	6
1709.626	1	10	n/a	n/a	1	52	7
1710.676	1	21	n/a	n/a	1	52	0
1711.7592	1	10	n/a	n/a	1	52	1
1712.8592	1	10	n/a	n/a	1	52	2
1714.159	1	10	n/a	n/a	1	52	3
1715.459	1	21	n/a	n/a	1	52	0
1716.5922	1	10	n/a	n/a	1	52	1
1717.9088	1	10	n/a	n/a	1	52	2
1719.142	1	10	n/a	n/a	1	52	3
1720.2586	1	10	n/a	n/a	1	52	4
1721.1492	1	82	n/a	n/a	1	0	0
1721.2392	1	82	n/a	n/a	1	0	0
1721.2812	1	82	n/a	n/a	1	0	0
1721.5992	1	82	n/a	n/a	1	0	0
1721.9912	1	82	n/a	n/a	1	0	0
1722.1492	1	82	n/a	n/a	1	0	0
1722.2572	1	82	n/a	n/a	1	0	0
1722.4212	1	82	n/a	n/a	1	0	0
1722.8592	1	82	n/a	n/a	1	0	0
1722.9932	1	82	n/a	n/a	1	0	0
1724.1084	1	10	n/a	n/a	1	52	1
1725.175	1	21	n/a	n/a	1	52	0
1726.2916	1	10	n/a	n/a	1	52	1
1727.4082	1	21	n/a	n/a	1	52	0
1728.6916	1	10	n/a	n/a	1	52	1
1729.7582	1	10	n/a	n/a	1	52	2
1731.058	1	10	n/a	n/a	1	52	3
1732.2414	1	10	n/a	n/a	1	52	4
1733.4246	1	10	n/a	n/a	1	52	5
1734.5078	1	10	n/a	n/a	1	52	6
1735.6744	1	10	n/a	n/a	1	52	7
1736.841	1	21	n/a	n/a	1	52	0
1738.091	1	10	n/a	n/a	1	52	1
1739.3908	1	10	n/a	n/a	1	52	2
1740.6242	1	10	n/a	n/a	1	52	3
1741.8574	1	21	n/a	n/a	1	52	0
1742.9574	1	10	n/a	n/a	1	52	1
1744.274	1	10	n/a	n/a	1	52	2
1745.3238	1	10	n/a	n/a	1	52	3
1746.3738	1	21	n/a	n/a	1	52	0
1747.3214	1	82	n/a	n/a	1	0	0
1747.4624	1	82	n/a	n/a	1	0	0
1747.6894	1	82	n/a	n/a	1	0	0
1747.8004	1	82	n/a	n/a	1	0	0
1748.1714	1	82	n/a	n/a	1	0	0
1748.3214	1	82	n/a	n/a	1	0	0
1748.7344	1	82	n/a	n/a	1	0	0
1749.0314	1	82	n/a	n/a	1	0	0
1749.1184	1	82	n/a	n/a	1	0	0
1749.1764	1	82	n/a	n/a	1	0	0
1750.5236	1	10	n/a	n/a	1	52	1
1751.5568	1	10	n/a	n/a	1	52	2
1752.6402	1	10	n/a	n/a	1	52	3
1753.7234	1	21	n/a	n/a	1	52	0
1754.99	1	10	n/a	n/a	1	52	1
1756.0232	1	10	n/a	n/a	1	52	2
1757.2064	1	10	n/a	n/a	1	52	3
1758.5064	1	10	n/a	n/a	1	52	4
1759.7064	1	10	n/a	n/a	1	52	5
1760.9062	1	21	n/a	n/a	1	52	0
1762.1228	1	10	n/a	n/a	1	52	1
1763.1894	1	10	n/a	n/a	1	52	2
1764.3394	1	10	n/a	n/a	1	52	3
1765.4394	1	10	n/a	n/a	1	52	4
1766.556	1	10	n/a	n/a	1	52	5
1767.6726	1	21	n/a	n/a	1	52	0
1768.9892	1	10	n/a	n/a	1	52	1
1770.089	1	10	n/a	n/a	1	52	2
1771.289	1	10	n/a	n/a	1	52	3
1772.4222	1	10	n/a	n/a	1	52	4
1785.7386	1	82	n/a	n/a	1	0	0
1786.1516	1	82	n/a	n/a	1	0	0
1786.3086	1	82	n/a	n/a	1	0	0
1786.3566	1	82	n/a	n/a	1	0	0
1786.7036	1	82	n/a	n/a	1	0	0
1786.7386	1	82	n/a	n/a	1	0	0
1786.9736	1	82	n/a	n/a	1	0	0
1787.2426	1	82	n/a	n/a	1	0	0
1787.4476	1	82	n/a	n/a	1	0	0
1787.5826	1	82	n/a	n/a	1	0	0
1788.8046	1	10	n/a	n/a	1	50	1
1790.0378	1	10	n/a	n/a	1	50	2
1791.3044	1	10	n/a	n/a	1	50	3
1792.571	1	21	n/a	n/a	1	50	0
1793.771	1	10	n/a	n/a	1	50	1
1795.0042	1	10	n/a	n/a	1	50	2
1796.2042	1	10	n/a	n/a	1	50	3
1797.3708	1	10	n/a	n/a	1	50	4
1798.6208	1	10	n/a	n/a	1	50	5
1799.8706	1	21	n/a	n/a	1	50	0
1801.0872	1	10	n/a	n/a	1	50	1
1802.2372	1	10	n/a	n/a	1	50	2
1803.4872	1	10	n/a	n/a	1	50	3
1804.787	1	10	n/a	n/a	1	50	4
1806.0036	1	10	n/a	n/a	1	50	5
1807.0702	1	10	n/a	n/a	1	50	6
1808.1702	1	10	n/a	n/a	1	50	7
1809.27	1	21	n/a	n/a	1	50	0
1810.5366	1	10	n/a	n/a	1	50	1
1811.8032	1	21	n/a	n/a	1	50	0
1812.881	1	82	n/a	n/a	1	0	0
1813.052	1	82	n/a	n/a	1	0	0
1813.198	1	82	n/a	n/a	1	0	0
1813.54	1	82	n/a	n/a	1	0	0
1813.65	1	82	n/a	n/a	1	0	0
1813.881	1	82	n/a	n/a	1	0	0
1814.048	1	82	n/a	n/a	1	0	0
1814.189	1	82	n/a	n/a	1	0	0
1814.299	1	82	n/a	n/a	1	0	0
1814.664	1	82	n/a	n/a	1	0	0
1815.803	1	10	n/a	n/a	1	50	1
1817.0196	1	10	n/a	n/a	1	50	2
1818.2862	1	10	n/a	n/a	1	50	3
1819.4028	1	10	n/a	n/a	1	50	4
1820.4694	1	10	n/a	n/a	1	50	5
1821.5194	1	10	n/a	n/a	1	50	6
1822.636	1	10	n/a	n/a	1	50	7
1823.7526	1	21	n/a	n/a	1	50	0
1824.9692	1	10	n/a	n/a	1	50	1
1826.1024	1	10	n/a	n/a	1	50	2
1827.369	1	10	n/a	n/a	1	50	3
1828.6356	1	21	n/a	n/a	1	50	0
1829.9188	1	10	n/a	n/a	1	50	1
1831.1854	1	10	n/a	n/a	1	50	2
1832.502	1	10	n/a	n/a	1	50	3
1833.8186	1	21	n/a	n/a	1	50	0
1834.8686	1	10	n/a	n/a	1	50	1
1836.0518	1	10	n/a	n/a	1	50	2
1837.1018	1	10	n/a	n/a	1	50	3
1838.2518	1	10	n/a	n/a	1	50	4
1839.2302	1	82	n/a	n/a	1	0	0
1839.5252	1	82	n/a	n/a	1	0	0
1839.6732	1	82	n/a	n/a	1	0	0
1839.8822	1	82	n/a	n/a	1	0	0
1840.0592	1	82	n/a	n/a	1	0	0
1840.2302	1	82	n/a	n/a	1	0	0
1840.3572	1	82	n/a	n/a	1	0	0
1840.5052	1	82	n/a	n/a	1	0	0
1840.9042	1	82	n/a	n/a	1	0	0
1841.0792	1	82	n/a	n/a	1	0	0
1842.3348	1	10	n/a	n/a	1	50	1
1843.5514	1	21	n/a	n/a	1	50	0
1844.8346	1	10	n/a	n/a	1	50	1
1846.0346	1	10	n/a	n/a	1	50	2
1847.3346	1	10	n/a	n/a	1	50	3
1848.6344	1	21	n/a	n/a	1	50	0
1849.801	1	10	n/a	n/a	1	50	1
1851.0842	1	10	n/a	n/a	1	50	2
1852.3508	1	10	n/a	n/a	1	50	3
1853.5008	1	10	n/a	n/a	1	50	4
1854.7508	1	10	n/a	n/a	1	50	5
1855.9506	1	10	n/a	n/a	1	50	6
1857.0172	1	10	n/a	n/a	1	50	7
1858.0838	1	21	n/a	n/a	1	50	0
1859.2338	1	10	n/a	n/a	1	50	1
1860.3838	1	21	n/a	n/a	1	50	0
1861.4836	1	10	n/a	n/a	1	50	1
1862.5502	1	10	n/a	n/a	1	50	2
1863.6168	1	10	n/a	n/a	1	50	3
1864.8834	1	10	n/a	n/a	1	50	4
1865.909	1	82	n/a	n/a	1	0	0
1866.013	1	82	n/a	n/a	1	0	0
1866.182	1	82	n/a	n/a	1	0	0
1866.473	1	82	n/a	n/a	1	0	0
1866.531	1	82	n/a	n/a	1	0	0
1866.909	1	82	n/a	n/a	1	0	0
1867.005	1	82	n/a	n/a	1	0	0
1867.028	1	82	n/a	n/a	1	0	0
1867.374	1	82	n/a	n/a	1	0	0
1867.504	1	82	n/a	n/a	1	0	0
1869.0998	1	10	n/a	n/a	1	50	1
1870.3664	1	10	n/a	n/a	1	50	2
1871.4498	1	10	n/a	n/a	1	50	3
1872.7496	1	10	n/a	n/a	1	50	4
1873.833	1	10	n/a	n/a	1	50	5
1874.8828	1	10	n/a	n/a	1	50	6
1875.9828	1	10	n/a	n/a	1	50	7
1877.0828	1	21	n/a	n/a	1	50	0
1878.116	1	10	n/a	n/a	1	50	1
1879.416	1	10	n/a	n/a	1	50	2
1880.6826	1	10	n/a	n/a	1	50	3
1881.9492	1	10	n/a	n/a	1	50	4
1883.049	1	10	n/a	n/a	1	50	5
1884.1156	1	10	n/a	n/a	1	50	6
1885.249	1	10	n/a	n/a	1	50	7
1886.3822	1	21	n/a	n/a	1	50	0
1887.5488	1	10	n/a	n/a	1	50	1
1888.7654	1	10	n/a	n/a	1	50	2
1889.8486	1	10	n/a	n/a	1	50	3
1890.932	1	21	n/a	n/a	1	50	0
1891.9866	1	82	n/a	n/a	1	0	0
1892.0766	1	82	n/a	n/a	1	0	0
1892.3026	1	82	n/a	n/a	1	0	0
1892.3406	1	82	n/a	n/a	1	0	0
1892.6566	1	82	n/a	n/a	1	0	0
1892.9866	1	82	n/a	n/a	1	0	0
1893.2946	1	82	n/a	n/a	1	0	0
1893.3526	1	82	n/a	n/a	1	0	0
1893.3876	1	82	n/a	n/a	1	0	0
1893.7946	1	82	n/a	n/a	1	0	0
1895.115	1	10	n/a	n/a	1	50	1
1896.2316	1	10	n/a	n/a	1	50	2
1897.3816	1	10	n/a	n/a	1	50	3
1898.4814	1	10	n/a	n/a	1	50	4
1899.748	1	10	n/a	n/a	1	50	5
1901.0146	1	21	n/a	n/a	1	50	0
1902.1146	1	10	n/a	n/a	1	50	1
1903.3812	1	10	n/a	n/a	1	50	2
1904.5312	1	10	n/a	n/a	1	50	3
1905.7644	1	10	n/a	n/a	1	50	4
1906.8144	1	10	n/a	n/a	1	50	5
1907.8642	1	21	n/a	n/a	1	50	0
1909.1642	1	10	n/a	n/a	1	50	1
1910.3808	1	10	n/a	n/a	1	50	2
1911.464	1	10	n/a	n/a	1	50	3
1912.6306	1	10	n/a	n/a	1	50	4
1913.7972	1	10	n/a	n/a	1	50	5
1914.9638	1	21	n/a	n/a	1	50	0
1916.0138	1	10	n/a	n/a	1	50	1
1917.247	1	10	n/a	n/a	1	50	2
1940.7484	1	81	n/a	n/a	1	0	0
1940.9484	1	81	n/a	n/a	1	0	0
1941.1484	1	81	n/a	n/a	1	0	0
1941.3484	1	81	n/a	n/a	1	0	0
1941.5484	1	81	n/a	n/a	1	0	0
1941.7484	1	81	n/a	n/a	1	0	0
1941.9484	1	81	n/a	n/a	1	0	0
1942.1484	1	81	n/a	n/a	1	0	0
1942.3484	1	81	n/a	n/a	1	0	0
1942.5484	1	81	n/a	n/a	1	0	0
1943.8954	1	10	n/a	n/a	1	51	1
1945.1454	1	21	n/a	n/a	1	51	0
1946.462	1	10	n/a	n/a	1	51	1
1947.6786	1	10	n/a	n/a	1	51	2
1948.9952	1	10	n/a	n/a	1	51	3
1950.3118	1	21	n/a	n/a	1	51	0
1951.3618	1	10	n/a	n/a	1	51	1
1952.495	1	10	n/a	n/a	1	51	2
1953.7116	1	10	n/a	n/a	1	51	3
1954.9282	1	21	n/a	n/a	1	51	0
1956.2448	1	10	n/a	n/a	1	51	1
1957.328	1	10	n/a	n/a	1	51	2
1958.4946	1	10	n/a	n/a	1	51	3
1959.5778	1	10	n/a	n/a	1	51	4
1960.6112	1	10	n/a	n/a	1	51	5
1961.661	1	10	n/a	n/a	1	51	6
1962.9444	1	10	n/a	n/a	1	51	7
1964.2276	1	21	n/a	n/a	1	51	0
1965.5442	1	10	n/a	n/a	1	51	1
1966.6274	1	10	n/a	n/a	1	51	2
1967.5698	1	81	n/a	n/a	1	0	0
1967.7698	1	81	n/a	n/a	1	0	0
1967.9698	1	81	n/a	n/a	1	0	0
1968.1698	1	81	n/a	n/a	1	0	0
1968.3698	1	81	n/a	n/a	1	0	0
1968.5698	1	81	n/a	n/a	1	0	0
1968.7698	1	81	n/a	n/a	1	0	0
1968.9698	1	81	n/a	n/a	1	0	0
1969.1698	1	81	n/a	n/a	1	0	0
1969.3698	1	81	n/a	n/a	1	0	0
1970.5272	1	10	n/a	n/a	1	51	1
1971.6106	1	10	n/a	n/a	1	51	2
1972.7438	1	10	n/a	n/a	1	51	3
1974.0436	1	10	n/a	n/a	1	51	4
1975.1436	1	10	n/a	n/a	1	51	5
1976.227	1	10	n/a	n/a	1	51	6
1977.4102	1	10	n/a	n/a	1	51	7
1978.5934	1	21	n/a	n/a	1	51	0
1979.6434	1	10	n/a	n/a	1	51	1
1980.8766	1	10	n/a	n/a	1	51	2
1981.9932	1	10	n/a	n/a	1	51	3
1983.0598	1	10	n/a	n/a	1	51	4
1984.2598	1	10	n/a	n/a	1	51	5
1985.4596	1	21	n/a	n/a	1	51	0
1986.543	1	10	n/a	n/a	1	51	1
1987.6262	1	21	n/a	n/a	1	51	0
1988.7428	1	10	n/a	n/a	1	51	1
1989.8594	1	10	n/a	n/a	1	51	2
1990.9094	1	10	n/a	n/a	1	51	3
1991.9926	1	10	n/a	n/a	1	51	4
1992.793	1	81	n/a	n/a	1	0	0
1992.993	1	81	n/a	n/a	1	0	0
1993.193	1	81	n/a	n/a	1	0	0
1993.393	1	81	n/a	n/a	1	0	0
1993.593	1	81	n/a	n/a	1	0	0
1993.793	1	81	n/a	n/a	1	0	0
1993.993	1	81	n/a	n/a	1	0	0
1994.193	1	81	n/a	n/a	1	0	0
1994.393	1	81	n/a	n/a	1	0	0
1994.593	1	81	n/a	n/a	1	0	0
1995.7924	1	10	n/a	n/a	1	51	1
1996.8924	1	10	n/a	n/a	1	51	2
1998.059	1	10	n/a	n/a	1	51	3
1999.2088	1	10	n/a	n/a	1	51	4
2000.4922	1	10	n/a	n/a	1	51	5
2001.7754	1	21	n/a	n/a	1	51	0
2002.8086	1	10	n/a	n/a	1	51	1
2004.042	1	10	n/a	n/a	1	51	2
2005.0918	1	10	n/a	n/a	1	51	3
2006.1418	1	21	n/a	n/a	1	51	0
2007.225	1	10	n/a	n/a	1	51	1
2008.325	1	10	n/a	n/a	1	51	2
2009.425	1	10	n/a	n/a	1	51	3
2010.5416	1	10	n/a	n/a	1	51	4
2011.6582	1	10	n/a	n/a	1	51	5
2012.6914	1	10	n/a	n/a	1	51	6
2013.7414	1	10	n/a	n/a	1	51	7
2014.7912	1	21	n/a	n/a	1	51	0
2015.9078	1	10	n/a	n/a	1	51	1
2017.0912	1	10	n/a	n/a	1	51	2
2018.1836	1	81	n/a	n/a	1	0	0
2018.3836	1	81	n/a	n/a	1	0	0
2018.5836	1	81	n/a	n/a	1	0	0
2018.7836	1	81	n/a	n/a	1	0	0
2018.9836	1	81	n/a	n/a	1	0	0
2019.1836	1	81	n/a	n/a	1	0	0
2019.3836	1	81	n/a	n/a	1	0	0
2019.5836	1	81	n/a	n/a	1	0	0
2019.7836	1	81	n/a	n/a	1	0	0
2019.9836	1	81	n/a	n/a	1	0	0
2021.3742	1	10	n/a	n/a	1	51	1
2022.5408	1	10	n/a	n/a	1	51	2
2023.824	1	10	n/a	n/a	1	51	3
2025.1074	1	21	n/a	n/a	1	51	0
2026.1906	1	10	n/a	n/a	1	51	1
2027.3406	1	10	n/a	n/a	1	51	2
2028.6072	1	10	n/a	n/a	1	51	3
2029.8738	1	21	n/a	n/a	1	51	0
2031.0236	1	10	n/a	n/a	1	51	1
2032.0902	1	10	n/a	n/a	1	51	2
2033.3736	1	10	n/a	n/a	1	51	3
2034.5734	1	10	n/a	n/a	1	51	4
2035.79	1	10	n/a	n/a	1	51	5
2036.8566	1	10	n/a	n/a	1	51	6
2038.1566	1	10	n/a	n/a	1	51	7
2039.4564	1	21	n/a	n/a	1	51	0
2040.623	1	10	n/a	n/a	1	51	1
2041.8564	1	10	n/a	n/a	1	51	2
2043.073	1	10	n/a	n/a	1	51	3
2044.3896	1	10	n/a	n/a	1	51	4
2045.136	1	81	n/a	n/a	1	0	0
2045.336	1	81	n/a	n/a	1	0	0
2045.536	1	81	n/a	n/a	1	0	0
2045.736	1	81	n/a	n/a	1	0	0
2045.936	1	81	n/a	n/a	1	0	0
2046.136	1	81	n/a	n/a	1	0	0
2046.336	1	81	n/a	n/a	1	0	0
2046.536	1	81	n/a	n/a	1	0	0
2046.736	1	81	n/a	n/a	1	0	0
2046.936	1	81	n/a	n/a	1	0	0
2048.206	1	10	n/a	n/a	1	51	1
2049.3226	1	10	n/a	n/a	1	51	2
2050.4892	1	10	n/a	n/a	1	51	3
2051.7558	1	10	n/a	n/a	1	51	4
2052.9224	1	10	n/a	n/a	1	51	5
2054.089	1	21	n/a	n/a	1	51	0
2055.1722	1	10	n/a	n/a	1	51	1
2056.3888	1	10	n/a	n/a	1	51	2
2057.5054	1	10	n/a	n/a	1	51	3
2058.622	1	21	n/a	n/a	1	51	0
2059.8052	1	10	n/a	n/a	1	51	1
2061.0052	1	10	n/a	n/a	1	51	2
2062.1384	1	10	n/a	n/a	1	51	3
2063.3384	1	10	n/a	n/a	1	51	4
2064.3884	1	10	n/a	n/a	1	51	5
2065.605	1	10	n/a	n/a	1	51	6
2066.8548	1	10	n/a	n/a	1	51	7
2068.1048	1	21	n/a	n/a	1	51	0
2069.1548	1	10	n/a	n/a	1	51	1
2070.3046	1	10	n/a	n/a	1	51	2
