onset	duration	value	response	rt	good	TMS	seq
103.2158	1	81	n/a	n/a	1	0	0
103.4158	1	81	n/a	n/a	1	0	0
103.6158	1	81	n/a	n/a	1	0	0
103.8158	1	81	n/a	n/a	1	0	0
104.0158	1	81	n/a	n/a	1	0	0
104.2158	1	81	n/a	n/a	1	0	0
104.4158	1	81	n/a	n/a	1	0	0
104.6158	1	81	n/a	n/a	1	0	0
104.8158	1	81	n/a	n/a	1	0	0
105.0158	1	81	n/a	n/a	1	0	0
106.367	1	10	n/a	n/a	1	51	1
107.6002	1	10	n/a	n/a	1	51	2
108.7168	1	10	n/a	n/a	1	51	3
109.7834	1	10	n/a	n/a	1	51	4
110.9	1	10	n/a	n/a	1	51	5
112.0166	1	21	n/a	n/a	1	51	0
113.05	1	10	n/a	n/a	1	51	1
114.1998	1	10	n/a	n/a	1	51	2
115.4332	1	10	n/a	n/a	1	51	3
116.5164	1	10	n/a	n/a	1	51	4
117.8164	1	10	n/a	n/a	1	51	5
119.033	1	10	n/a	n/a	1	51	6
120.1496	1	10	n/a	n/a	1	51	7
121.2662	1	21	n/a	n/a	1	51	0
122.316	1	10	n/a	n/a	1	51	1
123.3994	1	10	n/a	n/a	1	51	2
124.716	1	10	n/a	n/a	1	51	3
125.9158	1	10	n/a	n/a	1	51	4
127.2158	1	10	n/a	n/a	1	51	5
128.5324	1	10	n/a	n/a	1	51	6
129.2558	1	81	n/a	n/a	1	0	0
129.4558	1	81	n/a	n/a	1	0	0
129.6558	1	81	n/a	n/a	1	0	0
129.8558	1	81	n/a	n/a	1	0	0
130.0558	1	81	n/a	n/a	1	0	0
130.2558	1	81	n/a	n/a	1	0	0
130.4558	1	81	n/a	n/a	1	0	0
130.6558	1	81	n/a	n/a	1	0	0
130.8558	1	81	n/a	n/a	1	0	0
131.0558	1	81	n/a	n/a	1	0	0
132.1988	1	10	n/a	n/a	1	51	1
133.3988	1	10	n/a	n/a	1	51	2
134.682	1	10	n/a	n/a	1	51	3
135.782	1	10	n/a	n/a	1	51	4
137.0486	1	10	n/a	n/a	1	51	5
138.3152	1	21	n/a	n/a	1	51	0
139.4484	1	10	n/a	n/a	1	51	1
140.5816	1	21	n/a	n/a	1	51	0
141.8316	1	10	n/a	n/a	1	51	1
143.1482	1	10	n/a	n/a	1	51	2
144.348	1	10	n/a	n/a	1	51	3
145.548	1	21	n/a	n/a	1	51	0
146.848	1	10	n/a	n/a	1	51	1
148.0978	1	10	n/a	n/a	1	51	2
149.2812	1	10	n/a	n/a	1	51	3
150.4478	1	10	n/a	n/a	1	51	4
151.631	1	10	n/a	n/a	1	51	5
152.881	1	10	n/a	n/a	1	51	6
153.9308	1	10	n/a	n/a	1	51	7
154.9808	1	21	n/a	n/a	1	51	0
155.7194	1	81	n/a	n/a	1	0	0
155.9194	1	81	n/a	n/a	1	0	0
156.1194	1	81	n/a	n/a	1	0	0
156.3194	1	81	n/a	n/a	1	0	0
156.5194	1	81	n/a	n/a	1	0	0
156.7194	1	81	n/a	n/a	1	0	0
156.9194	1	81	n/a	n/a	1	0	0
157.1194	1	81	n/a	n/a	1	0	0
157.3194	1	81	n/a	n/a	1	0	0
157.5194	1	81	n/a	n/a	1	0	0
158.6472	1	10	n/a	n/a	1	51	1
159.7306	1	10	n/a	n/a	1	51	2
160.8972	1	10	n/a	n/a	1	51	3
162.0638	1	21	n/a	n/a	1	51	0
163.147	1	10	n/a	n/a	1	51	1
164.247	1	10	n/a	n/a	1	51	2
165.5468	1	10	n/a	n/a	1	51	3
166.6302	1	10	n/a	n/a	1	51	4
167.7468	1	10	n/a	n/a	1	51	5
169.03	1	10	n/a	n/a	1	51	6
170.2966	1	10	n/a	n/a	1	51	7
171.5632	1	21	n/a	n/a	1	51	0
172.863	1	10	n/a	n/a	1	51	1
174.163	1	21	n/a	n/a	1	51	0
175.3796	1	10	n/a	n/a	1	51	1
176.4462	1	10	n/a	n/a	1	51	2
177.7294	1	10	n/a	n/a	1	51	3
178.846	1	10	n/a	n/a	1	51	4
179.996	1	10	n/a	n/a	1	51	5
181.096	1	10	n/a	n/a	1	51	6
181.9304	1	81	n/a	n/a	1	0	0
182.1304	1	81	n/a	n/a	1	0	0
182.3304	1	81	n/a	n/a	1	0	0
182.5304	1	81	n/a	n/a	1	0	0
182.7304	1	81	n/a	n/a	1	0	0
182.9304	1	81	n/a	n/a	1	0	0
183.1304	1	81	n/a	n/a	1	0	0
183.3304	1	81	n/a	n/a	1	0	0
183.5304	1	81	n/a	n/a	1	0	0
183.7304	1	81	n/a	n/a	1	0	0
184.979	1	10	n/a	n/a	1	51	1
186.2622	1	10	n/a	n/a	1	51	2
187.3288	1	10	n/a	n/a	1	51	3
188.4122	1	10	n/a	n/a	1	51	4
189.5954	1	10	n/a	n/a	1	51	5
190.7786	1	10	n/a	n/a	1	51	6
191.912	1	10	n/a	n/a	1	51	7
193.0452	1	21	n/a	n/a	1	51	0
194.2118	1	10	n/a	n/a	1	51	1
195.4284	1	10	n/a	n/a	1	51	2
196.5116	1	10	n/a	n/a	1	51	3
197.7116	1	10	n/a	n/a	1	51	4
199.0116	1	10	n/a	n/a	1	51	5
200.3114	1	21	n/a	n/a	1	51	0
201.3614	1	10	n/a	n/a	1	51	1
202.6446	1	10	n/a	n/a	1	51	2
203.728	1	10	n/a	n/a	1	51	3
204.8112	1	21	n/a	n/a	1	51	0
205.9944	1	10	n/a	n/a	1	51	1
207.2944	1	10	n/a	n/a	1	51	2
208.1178	1	81	n/a	n/a	1	0	0
208.3178	1	81	n/a	n/a	1	0	0
208.5178	1	81	n/a	n/a	1	0	0
208.7178	1	81	n/a	n/a	1	0	0
208.9178	1	81	n/a	n/a	1	0	0
209.1178	1	81	n/a	n/a	1	0	0
209.3178	1	81	n/a	n/a	1	0	0
209.5178	1	81	n/a	n/a	1	0	0
209.7178	1	81	n/a	n/a	1	0	0
209.9178	1	81	n/a	n/a	1	0	0
211.3442	1	10	n/a	n/a	1	51	1
212.6108	1	10	n/a	n/a	1	51	2
213.6606	1	10	n/a	n/a	1	51	3
214.8272	1	10	n/a	n/a	1	51	4
216.1438	1	10	n/a	n/a	1	51	5
217.3772	1	10	n/a	n/a	1	51	6
218.577	1	10	n/a	n/a	1	51	7
219.777	1	21	n/a	n/a	1	51	0
220.827	1	10	n/a	n/a	1	51	1
222.0268	1	10	n/a	n/a	1	51	2
223.2268	1	10	n/a	n/a	1	51	3
224.4268	1	10	n/a	n/a	1	51	4
225.7434	1	10	n/a	n/a	1	51	5
226.9932	1	10	n/a	n/a	1	51	6
228.2098	1	10	n/a	n/a	1	51	7
229.4264	1	21	n/a	n/a	1	51	0
230.6096	1	10	n/a	n/a	1	51	1
231.793	1	21	n/a	n/a	1	51	0
232.9096	1	10	n/a	n/a	1	51	1
233.9928	1	10	n/a	n/a	1	51	2
317.4822	1	81	n/a	n/a	1	0	0
317.6822	1	81	n/a	n/a	1	0	0
317.8822	1	81	n/a	n/a	1	0	0
318.0822	1	81	n/a	n/a	1	0	0
318.2822	1	81	n/a	n/a	1	0	0
318.4824	1	81	n/a	n/a	1	0	0
318.6824	1	81	n/a	n/a	1	0	0
318.8824	1	81	n/a	n/a	1	0	0
319.0824	1	81	n/a	n/a	1	0	0
319.2822	1	81	n/a	n/a	1	0	0
320.6544	1	10	n/a	n/a	1	50	1
321.9376	1	21	n/a	n/a	1	50	0
323.221	1	10	n/a	n/a	1	50	1
324.3208	1	10	n/a	n/a	1	50	2
325.4374	1	10	n/a	n/a	1	50	3
326.554	1	21	n/a	n/a	1	50	0
327.6706	1	10	n/a	n/a	1	50	1
328.7372	1	10	n/a	n/a	1	50	2
329.9206	1	10	n/a	n/a	1	50	3
331.1038	1	21	n/a	n/a	1	50	0
332.287	1	10	n/a	n/a	1	50	1
333.4204	1	10	n/a	n/a	1	50	2
334.737	1	10	n/a	n/a	1	50	3
336.0536	1	21	n/a	n/a	1	50	0
337.17	1	10	n/a	n/a	1	50	1
338.3034	1	10	n/a	n/a	1	50	2
339.62	1	10	n/a	n/a	1	50	3
340.6866	1	10	n/a	n/a	1	50	4
341.8032	1	10	n/a	n/a	1	50	5
343.0698	1	10	n/a	n/a	1	50	6
343.9432	1	81	n/a	n/a	1	0	0
344.1432	1	81	n/a	n/a	1	0	0
344.3432	1	81	n/a	n/a	1	0	0
344.5432	1	81	n/a	n/a	1	0	0
344.7432	1	81	n/a	n/a	1	0	0
344.9432	1	81	n/a	n/a	1	0	0
345.1432	1	81	n/a	n/a	1	0	0
345.3432	1	81	n/a	n/a	1	0	0
345.5432	1	81	n/a	n/a	1	0	0
345.7432	1	81	n/a	n/a	1	0	0
347.0028	1	10	n/a	n/a	1	50	1
348.2194	1	10	n/a	n/a	1	50	2
349.2694	1	10	n/a	n/a	1	50	3
350.3194	1	10	n/a	n/a	1	50	4
351.6026	1	10	n/a	n/a	1	50	5
352.7358	1	10	n/a	n/a	1	50	6
353.8858	1	10	n/a	n/a	1	50	7
355.0358	1	21	n/a	n/a	1	50	0
356.3356	1	10	n/a	n/a	1	50	1
357.4022	1	10	n/a	n/a	1	50	2
358.4356	1	10	n/a	n/a	1	50	3
359.6854	1	10	n/a	n/a	1	50	4
360.9354	1	10	n/a	n/a	1	50	5
362.1354	1	10	n/a	n/a	1	50	6
363.3852	1	10	n/a	n/a	1	50	7
364.6352	1	21	n/a	n/a	1	50	0
365.8184	1	10	n/a	n/a	1	50	1
367.0516	1	10	n/a	n/a	1	50	2
368.1182	1	10	n/a	n/a	1	50	3
369.2516	1	10	n/a	n/a	1	50	4
370.349	1	81	n/a	n/a	1	0	0
370.549	1	81	n/a	n/a	1	0	0
370.749	1	81	n/a	n/a	1	0	0
370.949	1	81	n/a	n/a	1	0	0
371.149	1	81	n/a	n/a	1	0	0
371.349	1	81	n/a	n/a	1	0	0
371.549	1	81	n/a	n/a	1	0	0
371.749	1	81	n/a	n/a	1	0	0
371.949	1	81	n/a	n/a	1	0	0
372.149	1	81	n/a	n/a	1	0	0
373.4014	1	10	n/a	n/a	1	50	1
374.6846	1	10	n/a	n/a	1	50	2
376.0012	1	10	n/a	n/a	1	50	3
377.1678	1	10	n/a	n/a	1	50	4
378.4344	1	10	n/a	n/a	1	50	5
379.701	1	21	n/a	n/a	1	50	0
380.9842	1	10	n/a	n/a	1	50	1
382.0508	1	10	n/a	n/a	1	50	2
383.2674	1	10	n/a	n/a	1	50	3
384.484	1	21	n/a	n/a	1	50	0
385.6506	1	10	n/a	n/a	1	50	1
386.7672	1	10	n/a	n/a	1	50	2
387.9672	1	10	n/a	n/a	1	50	3
389.2004	1	10	n/a	n/a	1	50	4
390.4836	1	10	n/a	n/a	1	50	5
391.7668	1	21	n/a	n/a	1	50	0
392.9168	1	10	n/a	n/a	1	50	1
394.0334	1	10	n/a	n/a	1	50	2
395.15	1	10	n/a	n/a	1	50	3
396.2666	1	21	n/a	n/a	1	50	0
397.0922	1	81	n/a	n/a	1	0	0
397.2922	1	81	n/a	n/a	1	0	0
397.4922	1	81	n/a	n/a	1	0	0
397.6922	1	81	n/a	n/a	1	0	0
397.8922	1	81	n/a	n/a	1	0	0
398.0922	1	81	n/a	n/a	1	0	0
398.2922	1	81	n/a	n/a	1	0	0
398.4922	1	81	n/a	n/a	1	0	0
398.6922	1	81	n/a	n/a	1	0	0
398.8922	1	81	n/a	n/a	1	0	0
400.183	1	10	n/a	n/a	1	50	1
401.4996	1	10	n/a	n/a	1	50	2
402.633	1	10	n/a	n/a	1	50	3
403.7328	1	10	n/a	n/a	1	50	4
404.8494	1	10	n/a	n/a	1	50	5
405.9994	1	10	n/a	n/a	1	50	6
407.1326	1	10	n/a	n/a	1	50	7
408.266	1	21	n/a	n/a	1	50	0
409.3826	1	10	n/a	n/a	1	50	1
410.4824	1	10	n/a	n/a	1	50	2
411.549	1	10	n/a	n/a	1	50	3
412.699	1	10	n/a	n/a	1	50	4
413.749	1	10	n/a	n/a	1	50	5
414.9488	1	10	n/a	n/a	1	50	6
416.1322	1	10	n/a	n/a	1	50	7
417.3154	1	21	n/a	n/a	1	50	0
418.5486	1	10	n/a	n/a	1	50	1
419.582	1	10	n/a	n/a	1	50	2
420.8986	1	10	n/a	n/a	1	50	3
422.2152	1	21	n/a	n/a	1	50	0
423.2156	1	81	n/a	n/a	1	0	0
423.4156	1	81	n/a	n/a	1	0	0
423.6156	1	81	n/a	n/a	1	0	0
423.8156	1	81	n/a	n/a	1	0	0
424.0156	1	81	n/a	n/a	1	0	0
424.2156	1	81	n/a	n/a	1	0	0
424.4156	1	81	n/a	n/a	1	0	0
424.6156	1	81	n/a	n/a	1	0	0
424.8156	1	81	n/a	n/a	1	0	0
425.0156	1	81	n/a	n/a	1	0	0
426.2316	1	10	n/a	n/a	1	50	1
427.3482	1	21	n/a	n/a	1	50	0
428.5648	1	10	n/a	n/a	1	50	1
429.7314	1	10	n/a	n/a	1	50	2
430.9646	1	10	n/a	n/a	1	50	3
432.1312	1	10	n/a	n/a	1	50	4
433.1812	1	10	n/a	n/a	1	50	5
434.3478	1	10	n/a	n/a	1	50	6
435.631	1	10	n/a	n/a	1	50	7
436.9142	1	21	n/a	n/a	1	50	0
438.1308	1	10	n/a	n/a	1	50	1
439.3474	1	21	n/a	n/a	1	50	0
440.4306	1	10	n/a	n/a	1	50	1
441.5472	1	10	n/a	n/a	1	50	2
442.6972	1	10	n/a	n/a	1	50	3
443.7806	1	10	n/a	n/a	1	50	4
444.947	1	10	n/a	n/a	1	50	5
446.047	1	10	n/a	n/a	1	50	6
447.1804	1	10	n/a	n/a	1	50	7
448.3136	1	21	n/a	n/a	1	50	0
465.349	1	82	n/a	n/a	1	0	0
465.409	1	82	n/a	n/a	1	0	0
465.664	1	82	n/a	n/a	1	0	0
465.753	1	82	n/a	n/a	1	0	0
466.055	1	82	n/a	n/a	1	0	0
466.349	1	82	n/a	n/a	1	0	0
466.441	1	82	n/a	n/a	1	0	0
466.611	1	82	n/a	n/a	1	0	0
466.673	1	82	n/a	n/a	1	0	0
466.926	1	82	n/a	n/a	1	0	0
468.429	1	10	n/a	n/a	1	52	1
469.729	1	10	n/a	n/a	1	52	2
470.9622	1	10	n/a	n/a	1	52	3
472.1954	1	21	n/a	n/a	1	52	0
473.2954	1	10	n/a	n/a	1	52	1
474.3954	1	21	n/a	n/a	1	52	0
475.562	1	10	n/a	n/a	1	52	1
476.7286	1	21	n/a	n/a	1	52	0
477.7618	1	10	n/a	n/a	1	52	1
478.8784	1	10	n/a	n/a	1	52	2
480.2116	1	10	n/a	n/a	1	52	3
481.345	1	10	n/a	n/a	1	52	4
482.4116	1	10	n/a	n/a	1	52	5
483.4782	1	21	n/a	n/a	1	52	0
484.6448	1	10	n/a	n/a	1	52	1
485.8446	1	10	n/a	n/a	1	52	2
486.9946	1	10	n/a	n/a	1	52	3
488.078	1	10	n/a	n/a	1	52	4
489.2944	1	10	n/a	n/a	1	52	5
490.511	1	21	n/a	n/a	1	52	0
491.4518	1	82	n/a	n/a	1	0	0
491.4718	1	82	n/a	n/a	1	0	0
491.8468	1	82	n/a	n/a	1	0	0
492.0968	1	82	n/a	n/a	1	0	0
492.1528	1	82	n/a	n/a	1	0	0
492.4518	1	82	n/a	n/a	1	0	0
492.6148	1	82	n/a	n/a	1	0	0
492.6978	1	82	n/a	n/a	1	0	0
492.7178	1	82	n/a	n/a	1	0	0
492.9838	1	82	n/a	n/a	1	0	0
494.5942	1	10	n/a	n/a	1	52	1
495.9274	1	10	n/a	n/a	1	52	2
497.0774	1	10	n/a	n/a	1	52	3
498.3772	1	10	n/a	n/a	1	52	4
499.4606	1	10	n/a	n/a	1	52	5
500.4938	1	10	n/a	n/a	1	52	6
501.6104	1	10	n/a	n/a	1	52	7
502.727	1	21	n/a	n/a	1	52	0
503.8604	1	10	n/a	n/a	1	52	1
505.1768	1	10	n/a	n/a	1	52	2
506.2768	1	10	n/a	n/a	1	52	3
507.3768	1	21	n/a	n/a	1	52	0
508.5934	1	10	n/a	n/a	1	52	1
509.7932	1	10	n/a	n/a	1	52	2
510.8766	1	10	n/a	n/a	1	52	3
511.9932	1	10	n/a	n/a	1	52	4
513.093	1	10	n/a	n/a	1	52	5
514.143	1	10	n/a	n/a	1	52	6
515.2596	1	10	n/a	n/a	1	52	7
516.3762	1	21	n/a	n/a	1	52	0
517.364	1	82	n/a	n/a	1	0	0
517.39	1	82	n/a	n/a	1	0	0
517.471	1	82	n/a	n/a	1	0	0
517.757	1	82	n/a	n/a	1	0	0
517.915	1	82	n/a	n/a	1	0	0
518.364	1	82	n/a	n/a	1	0	0
518.668	1	82	n/a	n/a	1	0	0
518.716	1	82	n/a	n/a	1	0	0
518.851	1	82	n/a	n/a	1	0	0
519.184	1	82	n/a	n/a	1	0	0
520.2926	1	10	n/a	n/a	1	52	1
521.6092	1	10	n/a	n/a	1	52	2
522.6426	1	10	n/a	n/a	1	52	3
523.6758	1	21	n/a	n/a	1	52	0
524.859	1	10	n/a	n/a	1	52	1
525.959	1	10	n/a	n/a	1	52	2
527.1922	1	10	n/a	n/a	1	52	3
528.2588	1	10	n/a	n/a	1	52	4
529.5088	1	10	n/a	n/a	1	52	5
530.5588	1	10	n/a	n/a	1	52	6
531.8254	1	10	n/a	n/a	1	52	7
533.092	1	21	n/a	n/a	1	52	0
534.2252	1	10	n/a	n/a	1	52	1
535.3418	1	10	n/a	n/a	1	52	2
536.6584	1	10	n/a	n/a	1	52	3
537.975	1	10	n/a	n/a	1	52	4
539.1582	1	10	n/a	n/a	1	52	5
540.3414	1	21	n/a	n/a	1	52	0
541.4914	1	10	n/a	n/a	1	52	1
542.5414	1	10	n/a	n/a	1	52	2
543.6058	1	82	n/a	n/a	1	0	0
543.9158	1	82	n/a	n/a	1	0	0
544.0228	1	82	n/a	n/a	1	0	0
544.2918	1	82	n/a	n/a	1	0	0
544.3618	1	82	n/a	n/a	1	0	0
544.6058	1	82	n/a	n/a	1	0	0
544.9518	1	82	n/a	n/a	1	0	0
545.0648	1	82	n/a	n/a	1	0	0
545.3578	1	82	n/a	n/a	1	0	0
545.5188	1	82	n/a	n/a	1	0	0
546.6078	1	10	n/a	n/a	1	52	1
547.641	1	10	n/a	n/a	1	52	2
548.941	1	10	n/a	n/a	1	52	3
550.241	1	21	n/a	n/a	1	52	0
551.2742	1	10	n/a	n/a	1	52	1
552.4742	1	10	n/a	n/a	1	52	2
553.6908	1	10	n/a	n/a	1	52	3
554.8906	1	10	n/a	n/a	1	52	4
555.9572	1	10	n/a	n/a	1	52	5
557.0238	1	21	n/a	n/a	1	52	0
558.2572	1	10	n/a	n/a	1	52	1
559.4904	1	10	n/a	n/a	1	52	2
560.5904	1	10	n/a	n/a	1	52	3
561.7902	1	10	n/a	n/a	1	52	4
562.9234	1	10	n/a	n/a	1	52	5
564.0568	1	21	n/a	n/a	1	52	0
565.2066	1	10	n/a	n/a	1	52	1
566.39	1	10	n/a	n/a	1	52	2
567.6066	1	10	n/a	n/a	1	52	3
568.8898	1	10	n/a	n/a	1	52	4
569.8622	1	82	n/a	n/a	1	0	0
570.2732	1	82	n/a	n/a	1	0	0
570.3322	1	82	n/a	n/a	1	0	0
570.6072	1	82	n/a	n/a	1	0	0
570.7302	1	82	n/a	n/a	1	0	0
570.8622	1	82	n/a	n/a	1	0	0
570.9612	1	82	n/a	n/a	1	0	0
571.0822	1	82	n/a	n/a	1	0	0
571.2432	1	82	n/a	n/a	1	0	0
571.5442	1	82	n/a	n/a	1	0	0
572.9396	1	10	n/a	n/a	1	52	1
574.0062	1	10	n/a	n/a	1	52	2
575.1394	1	10	n/a	n/a	1	52	3
576.3728	1	10	n/a	n/a	1	52	4
577.5394	1	10	n/a	n/a	1	52	5
578.706	1	21	n/a	n/a	1	52	0
579.9558	1	10	n/a	n/a	1	52	1
581.2058	1	21	n/a	n/a	1	52	0
582.339	1	10	n/a	n/a	1	52	1
583.4722	1	21	n/a	n/a	1	52	0
584.5222	1	10	n/a	n/a	1	52	1
585.7388	1	10	n/a	n/a	1	52	2
586.8888	1	10	n/a	n/a	1	52	3
588.0386	1	21	n/a	n/a	1	52	0
589.3552	1	10	n/a	n/a	1	52	1
590.6718	1	21	n/a	n/a	1	52	0
591.8052	1	10	n/a	n/a	1	52	1
592.8718	1	10	n/a	n/a	1	52	2
594.0384	1	10	n/a	n/a	1	52	3
595.205	1	21	n/a	n/a	1	52	0
669.7646	1	81	n/a	n/a	1	0	0
669.9646	1	81	n/a	n/a	1	0	0
670.1646	1	81	n/a	n/a	1	0	0
670.3646	1	81	n/a	n/a	1	0	0
670.5646	1	81	n/a	n/a	1	0	0
670.7646	1	81	n/a	n/a	1	0	0
670.9646	1	81	n/a	n/a	1	0	0
671.1646	1	81	n/a	n/a	1	0	0
671.3646	1	81	n/a	n/a	1	0	0
671.5646	1	81	n/a	n/a	1	0	0
672.805	1	10	n/a	n/a	1	50	1
673.8716	1	10	n/a	n/a	1	50	2
675.155	1	10	n/a	n/a	1	50	3
676.4382	1	21	n/a	n/a	1	50	0
677.4882	1	10	n/a	n/a	1	50	1
678.6548	1	10	n/a	n/a	1	50	2
679.738	1	10	n/a	n/a	1	50	3
680.9212	1	10	n/a	n/a	1	50	4
682.1046	1	10	n/a	n/a	1	50	5
683.2878	1	21	n/a	n/a	1	50	0
684.521	1	10	n/a	n/a	1	50	1
685.6042	1	10	n/a	n/a	1	50	2
686.9208	1	10	n/a	n/a	1	50	3
688.0874	1	10	n/a	n/a	1	50	4
689.1708	1	10	n/a	n/a	1	50	5
690.2874	1	10	n/a	n/a	1	50	6
691.404	1	10	n/a	n/a	1	50	7
692.5206	1	21	n/a	n/a	1	50	0
693.8204	1	10	n/a	n/a	1	50	1
695.1204	1	10	n/a	n/a	1	50	2
696.232	1	81	n/a	n/a	1	0	0
696.432	1	81	n/a	n/a	1	0	0
696.632	1	81	n/a	n/a	1	0	0
696.832	1	81	n/a	n/a	1	0	0
697.032	1	81	n/a	n/a	1	0	0
697.232	1	81	n/a	n/a	1	0	0
697.432	1	81	n/a	n/a	1	0	0
697.632	1	81	n/a	n/a	1	0	0
697.832	1	81	n/a	n/a	1	0	0
698.032	1	81	n/a	n/a	1	0	0
699.3202	1	10	n/a	n/a	1	50	1
700.5034	1	10	n/a	n/a	1	50	2
701.7366	1	10	n/a	n/a	1	50	3
702.8032	1	10	n/a	n/a	1	50	4
703.9366	1	10	n/a	n/a	1	50	5
705.0698	1	21	n/a	n/a	1	50	0
706.303	1	10	n/a	n/a	1	50	1
707.553	1	10	n/a	n/a	1	50	2
708.6196	1	10	n/a	n/a	1	50	3
709.6862	1	21	n/a	n/a	1	50	0
710.7694	1	10	n/a	n/a	1	50	1
712.0194	1	10	n/a	n/a	1	50	2
713.136	1	10	n/a	n/a	1	50	3
714.2526	1	21	n/a	n/a	1	50	0
715.3026	1	10	n/a	n/a	1	50	1
716.3524	1	21	n/a	n/a	1	50	0
717.4024	1	10	n/a	n/a	1	50	1
718.4524	1	21	n/a	n/a	1	50	0
719.5856	1	10	n/a	n/a	1	50	1
720.719	1	21	n/a	n/a	1	50	0
721.8226	1	81	n/a	n/a	1	0	0
722.0226	1	81	n/a	n/a	1	0	0
722.2226	1	81	n/a	n/a	1	0	0
722.4226	1	81	n/a	n/a	1	0	0
722.6226	1	81	n/a	n/a	1	0	0
722.8234	1	81	n/a	n/a	1	0	0
723.0234	1	81	n/a	n/a	1	0	0
723.2234	1	81	n/a	n/a	1	0	0
723.4234	1	81	n/a	n/a	1	0	0
723.6234	1	81	n/a	n/a	1	0	0
724.752	1	10	n/a	n/a	1	50	1
725.7852	1	10	n/a	n/a	1	50	2
726.8852	1	10	n/a	n/a	1	50	3
727.9518	1	10	n/a	n/a	1	50	4
729.1518	1	10	n/a	n/a	1	50	5
730.2684	1	10	n/a	n/a	1	50	6
731.5516	1	10	n/a	n/a	1	50	7
732.8348	1	21	n/a	n/a	1	50	0
733.9182	1	10	n/a	n/a	1	50	1
735.218	1	10	n/a	n/a	1	50	2
736.5346	1	10	n/a	n/a	1	50	3
737.8512	1	10	n/a	n/a	1	50	4
739.0512	1	10	n/a	n/a	1	50	5
740.251	1	21	n/a	n/a	1	50	0
741.301	1	10	n/a	n/a	1	50	1
742.4176	1	10	n/a	n/a	1	50	2
743.6176	1	10	n/a	n/a	1	50	3
744.8174	1	21	n/a	n/a	1	50	0
746.1008	1	10	n/a	n/a	1	50	1
747.4006	1	10	n/a	n/a	1	50	2
748.5042	1	81	n/a	n/a	1	0	0
748.7042	1	81	n/a	n/a	1	0	0
748.904	1	81	n/a	n/a	1	0	0
749.104	1	81	n/a	n/a	1	0	0
749.304	1	81	n/a	n/a	1	0	0
749.5042	1	81	n/a	n/a	1	0	0
749.7042	1	81	n/a	n/a	1	0	0
749.9042	1	81	n/a	n/a	1	0	0
750.1042	1	81	n/a	n/a	1	0	0
750.3042	1	81	n/a	n/a	1	0	0
751.717	1	10	n/a	n/a	1	50	1
752.8836	1	10	n/a	n/a	1	50	2
753.967	1	10	n/a	n/a	1	50	3
755.1336	1	10	n/a	n/a	1	50	4
756.3168	1	10	n/a	n/a	1	50	5
757.5168	1	10	n/a	n/a	1	50	6
758.8166	1	10	n/a	n/a	1	50	7
760.1166	1	21	n/a	n/a	1	50	0
761.4166	1	10	n/a	n/a	1	50	1
762.4664	1	10	n/a	n/a	1	50	2
763.7164	1	10	n/a	n/a	1	50	3
764.9996	1	10	n/a	n/a	1	50	4
766.083	1	10	n/a	n/a	1	50	5
767.2162	1	10	n/a	n/a	1	50	6
768.4828	1	10	n/a	n/a	1	50	7
769.7494	1	21	n/a	n/a	1	50	0
771.066	1	10	n/a	n/a	1	50	1
772.3826	1	21	n/a	n/a	1	50	0
773.6658	1	10	n/a	n/a	1	50	1
774.9658	1	21	n/a	n/a	1	50	0
775.9394	1	81	n/a	n/a	1	0	0
776.1394	1	81	n/a	n/a	1	0	0
776.3394	1	81	n/a	n/a	1	0	0
776.5394	1	81	n/a	n/a	1	0	0
776.7394	1	81	n/a	n/a	1	0	0
776.9394	1	81	n/a	n/a	1	0	0
777.1394	1	81	n/a	n/a	1	0	0
777.3394	1	81	n/a	n/a	1	0	0
777.5394	1	81	n/a	n/a	1	0	0
777.7394	1	81	n/a	n/a	1	0	0
778.9654	1	10	n/a	n/a	1	50	1
780.1154	1	21	n/a	n/a	1	50	0
781.432	1	10	n/a	n/a	1	50	1
782.6486	1	10	n/a	n/a	1	50	2
783.9152	1	10	n/a	n/a	1	50	3
785.1818	1	21	n/a	n/a	1	50	0
786.4484	1	10	n/a	n/a	1	50	1
787.4816	1	10	n/a	n/a	1	50	2
788.6316	1	10	n/a	n/a	1	50	3
789.9316	1	10	n/a	n/a	1	50	4
791.2148	1	10	n/a	n/a	1	50	5
792.4814	1	10	n/a	n/a	1	50	6
793.7646	1	10	n/a	n/a	1	50	7
795.0478	1	21	n/a	n/a	1	50	0
796.3644	1	10	n/a	n/a	1	50	1
797.5144	1	10	n/a	n/a	1	50	2
798.681	1	10	n/a	n/a	1	50	3
800.0142	1	10	n/a	n/a	1	50	4
801.1308	1	10	n/a	n/a	1	50	5
802.2474	1	21	n/a	n/a	1	50	0
817.537	1	81	n/a	n/a	1	0	0
817.737	1	81	n/a	n/a	1	0	0
817.937	1	81	n/a	n/a	1	0	0
818.137	1	81	n/a	n/a	1	0	0
818.337	1	81	n/a	n/a	1	0	0
818.537	1	81	n/a	n/a	1	0	0
818.737	1	81	n/a	n/a	1	0	0
818.937	1	81	n/a	n/a	1	0	0
819.137	1	81	n/a	n/a	1	0	0
819.337	1	81	n/a	n/a	1	0	0
820.5798	1	10	n/a	n/a	1	51	1
821.7464	1	10	n/a	n/a	1	51	2
822.8962	1	10	n/a	n/a	1	51	3
824.0794	1	10	n/a	n/a	1	51	4
825.3294	1	10	n/a	n/a	1	51	5
826.646	1	10	n/a	n/a	1	51	6
827.7126	1	10	n/a	n/a	1	51	7
828.7792	1	21	n/a	n/a	1	51	0
829.8458	1	10	n/a	n/a	1	51	1
830.8792	1	10	n/a	n/a	1	51	2
831.979	1	10	n/a	n/a	1	51	3
833.0124	1	10	n/a	n/a	1	51	4
834.229	1	10	n/a	n/a	1	51	5
835.4454	1	10	n/a	n/a	1	51	6
836.7454	1	10	n/a	n/a	1	51	7
838.0454	1	21	n/a	n/a	1	51	0
839.3452	1	10	n/a	n/a	1	51	1
840.6786	1	10	n/a	n/a	1	51	2
841.7618	1	10	n/a	n/a	1	51	3
843.045	1	10	n/a	n/a	1	51	4
844.0814	1	81	n/a	n/a	1	0	0
844.2814	1	81	n/a	n/a	1	0	0
844.4814	1	81	n/a	n/a	1	0	0
844.6814	1	81	n/a	n/a	1	0	0
844.8814	1	81	n/a	n/a	1	0	0
845.0814	1	81	n/a	n/a	1	0	0
845.2814	1	81	n/a	n/a	1	0	0
845.4814	1	81	n/a	n/a	1	0	0
845.6814	1	81	n/a	n/a	1	0	0
845.8814	1	81	n/a	n/a	1	0	0
847.1948	1	10	n/a	n/a	1	51	1
848.3948	1	10	n/a	n/a	1	51	2
849.6614	1	10	n/a	n/a	1	51	3
850.928	1	21	n/a	n/a	1	51	0
852.1112	1	10	n/a	n/a	1	51	1
853.2112	1	10	n/a	n/a	1	51	2
854.3444	1	10	n/a	n/a	1	51	3
855.4776	1	21	n/a	n/a	1	51	0
856.561	1	10	n/a	n/a	1	51	1
857.7108	1	10	n/a	n/a	1	51	2
858.7774	1	10	n/a	n/a	1	51	3
859.994	1	10	n/a	n/a	1	51	4
861.044	1	10	n/a	n/a	1	51	5
862.0772	1	10	n/a	n/a	1	51	6
863.1772	1	10	n/a	n/a	1	51	7
864.2772	1	21	n/a	n/a	1	51	0
865.577	1	10	n/a	n/a	1	51	1
866.8936	1	10	n/a	n/a	1	51	2
868.1102	1	10	n/a	n/a	1	51	3
869.3268	1	21	n/a	n/a	1	51	0
870.1686	1	81	n/a	n/a	1	0	0
870.3684	1	81	n/a	n/a	1	0	0
870.5684	1	81	n/a	n/a	1	0	0
870.7684	1	81	n/a	n/a	1	0	0
870.9684	1	81	n/a	n/a	1	0	0
871.1686	1	81	n/a	n/a	1	0	0
871.3686	1	81	n/a	n/a	1	0	0
871.5686	1	81	n/a	n/a	1	0	0
871.7686	1	81	n/a	n/a	1	0	0
871.9686	1	81	n/a	n/a	1	0	0
873.2432	1	10	n/a	n/a	1	51	1
874.4266	1	21	n/a	n/a	1	51	0
875.5098	1	10	n/a	n/a	1	51	1
876.593	1	10	n/a	n/a	1	51	2
877.9096	1	10	n/a	n/a	1	51	3
879.2262	1	21	n/a	n/a	1	51	0
880.4096	1	10	n/a	n/a	1	51	1
881.6762	1	10	n/a	n/a	1	51	2
882.976	1	10	n/a	n/a	1	51	3
884.276	1	21	n/a	n/a	1	51	0
885.4258	1	10	n/a	n/a	1	51	1
886.5758	1	21	n/a	n/a	1	51	0
887.8924	1	10	n/a	n/a	1	51	1
889.1256	1	10	n/a	n/a	1	51	2
890.1922	1	10	n/a	n/a	1	51	3
891.2588	1	21	n/a	n/a	1	51	0
892.4588	1	10	n/a	n/a	1	51	1
893.642	1	10	n/a	n/a	1	51	2
894.7254	1	10	n/a	n/a	1	51	3
895.8086	1	21	n/a	n/a	1	51	0
896.5342	1	81	n/a	n/a	1	0	0
896.7342	1	81	n/a	n/a	1	0	0
896.9342	1	81	n/a	n/a	1	0	0
897.1342	1	81	n/a	n/a	1	0	0
897.3342	1	81	n/a	n/a	1	0	0
897.5342	1	81	n/a	n/a	1	0	0
897.7342	1	81	n/a	n/a	1	0	0
897.9342	1	81	n/a	n/a	1	0	0
898.1342	1	81	n/a	n/a	1	0	0
898.3342	1	81	n/a	n/a	1	0	0
899.5084	1	10	n/a	n/a	1	51	1
900.625	1	10	n/a	n/a	1	51	2
901.6582	1	10	n/a	n/a	1	51	3
902.6916	1	21	n/a	n/a	1	51	0
903.9582	1	10	n/a	n/a	1	51	1
905.2248	1	21	n/a	n/a	1	51	0
906.5246	1	10	n/a	n/a	1	51	1
907.5912	1	10	n/a	n/a	1	51	2
908.8246	1	10	n/a	n/a	1	51	3
910.0578	1	21	n/a	n/a	1	51	0
911.091	1	10	n/a	n/a	1	51	1
912.2744	1	10	n/a	n/a	1	51	2
913.4242	1	10	n/a	n/a	1	51	3
914.5742	1	21	n/a	n/a	1	51	0
915.8408	1	10	n/a	n/a	1	51	1
917.1074	1	21	n/a	n/a	1	51	0
918.3906	1	10	n/a	n/a	1	51	1
919.6406	1	10	n/a	n/a	1	51	2
920.9404	1	10	n/a	n/a	1	51	3
922.057	1	10	n/a	n/a	1	51	4
923.1196	1	81	n/a	n/a	1	0	0
923.3196	1	81	n/a	n/a	1	0	0
923.5196	1	81	n/a	n/a	1	0	0
923.7196	1	81	n/a	n/a	1	0	0
923.9196	1	81	n/a	n/a	1	0	0
924.1196	1	81	n/a	n/a	1	0	0
924.3196	1	81	n/a	n/a	1	0	0
924.5196	1	81	n/a	n/a	1	0	0
924.7196	1	81	n/a	n/a	1	0	0
924.9196	1	81	n/a	n/a	1	0	0
926.1402	1	10	n/a	n/a	1	51	1
927.2734	1	10	n/a	n/a	1	51	2
928.39	1	10	n/a	n/a	1	51	3
929.49	1	10	n/a	n/a	1	51	4
930.8066	1	10	n/a	n/a	1	51	5
931.9898	1	10	n/a	n/a	1	51	6
933.3064	1	10	n/a	n/a	1	51	7
934.623	1	21	n/a	n/a	1	51	0
935.7562	1	10	n/a	n/a	1	51	1
937.0062	1	10	n/a	n/a	1	51	2
938.2062	1	10	n/a	n/a	1	51	3
939.406	1	21	n/a	n/a	1	51	0
940.7226	1	10	n/a	n/a	1	51	1
942.0226	1	10	n/a	n/a	1	51	2
943.3392	1	10	n/a	n/a	1	51	3
944.6558	1	21	n/a	n/a	1	51	0
945.8224	1	10	n/a	n/a	1	51	1
946.989	1	21	n/a	n/a	1	51	0
948.1722	1	10	n/a	n/a	1	51	1
949.4222	1	10	n/a	n/a	1	51	2
994.1442	1	81	n/a	n/a	1	0	0
994.3442	1	81	n/a	n/a	1	0	0
994.5442	1	81	n/a	n/a	1	0	0
994.7442	1	81	n/a	n/a	1	0	0
994.9442	1	81	n/a	n/a	1	0	0
995.1442	1	81	n/a	n/a	1	0	0
995.3442	1	81	n/a	n/a	1	0	0
995.5442	1	81	n/a	n/a	1	0	0
995.7442	1	81	n/a	n/a	1	0	0
995.9442	1	81	n/a	n/a	1	0	0
997.2694	1	10	n/a	n/a	1	51	1
998.3526	1	10	n/a	n/a	1	51	2
999.6192	1	10	n/a	n/a	1	51	3
1000.8858	1	21	n/a	n/a	1	51	0
1002.1856	1	10	n/a	n/a	1	51	1
1003.4856	1	21	n/a	n/a	1	51	0
1004.7188	1	10	n/a	n/a	1	51	1
1005.9354	1	10	n/a	n/a	1	51	2
1007.1354	1	10	n/a	n/a	1	51	3
1008.2854	1	10	n/a	n/a	1	51	4
1009.3852	1	10	n/a	n/a	1	51	5
1010.5352	1	10	n/a	n/a	1	51	6
1011.6684	1	10	n/a	n/a	1	51	7
1012.8018	1	21	n/a	n/a	1	51	0
1013.9516	1	10	n/a	n/a	1	51	1
1015.135	1	10	n/a	n/a	1	51	2
1016.2016	1	10	n/a	n/a	1	51	3
1017.2348	1	10	n/a	n/a	1	51	4
1018.3014	1	10	n/a	n/a	1	51	5
1019.368	1	21	n/a	n/a	1	51	0
1020.2436	1	81	n/a	n/a	1	0	0
1020.4436	1	81	n/a	n/a	1	0	0
1020.6436	1	81	n/a	n/a	1	0	0
1020.8436	1	81	n/a	n/a	1	0	0
1021.0436	1	81	n/a	n/a	1	0	0
1021.2436	1	81	n/a	n/a	1	0	0
1021.4436	1	81	n/a	n/a	1	0	0
1021.6436	1	81	n/a	n/a	1	0	0
1021.8436	1	81	n/a	n/a	1	0	0
1022.0436	1	81	n/a	n/a	1	0	0
1023.3012	1	10	n/a	n/a	1	51	1
1024.5678	1	10	n/a	n/a	1	51	2
1025.8842	1	10	n/a	n/a	1	51	3
1027.2008	1	21	n/a	n/a	1	51	0
1028.2342	1	10	n/a	n/a	1	51	1
1029.2674	1	21	n/a	n/a	1	51	0
1030.484	1	10	n/a	n/a	1	51	1
1031.7506	1	10	n/a	n/a	1	51	2
1032.8838	1	10	n/a	n/a	1	51	3
1034.1004	1	10	n/a	n/a	1	51	4
1035.2504	1	10	n/a	n/a	1	51	5
1036.4004	1	21	n/a	n/a	1	51	0
1037.617	1	10	n/a	n/a	1	51	1
1038.8836	1	10	n/a	n/a	1	51	2
1040.0168	1	10	n/a	n/a	1	51	3
1041.1834	1	10	n/a	n/a	1	51	4
1042.3	1	10	n/a	n/a	1	51	5
1043.4166	1	21	n/a	n/a	1	51	0
1044.6666	1	10	n/a	n/a	1	51	1
1045.9164	1	21	n/a	n/a	1	51	0
1046.6692	1	81	n/a	n/a	1	0	0
1046.8692	1	81	n/a	n/a	1	0	0
1047.0692	1	81	n/a	n/a	1	0	0
1047.2692	1	81	n/a	n/a	1	0	0
1047.4692	1	81	n/a	n/a	1	0	0
1047.6692	1	81	n/a	n/a	1	0	0
1047.8692	1	81	n/a	n/a	1	0	0
1048.0692	1	81	n/a	n/a	1	0	0
1048.2692	1	81	n/a	n/a	1	0	0
1048.4692	1	81	n/a	n/a	1	0	0
1049.6996	1	10	n/a	n/a	1	51	1
1050.8328	1	21	n/a	n/a	1	51	0
1052.0494	1	10	n/a	n/a	1	51	1
1053.366	1	10	n/a	n/a	1	51	2
1054.466	1	10	n/a	n/a	1	51	3
1055.5826	1	10	n/a	n/a	1	51	4
1056.8158	1	10	n/a	n/a	1	51	5
1058.049	1	21	n/a	n/a	1	51	0
1059.1156	1	10	n/a	n/a	1	51	1
1060.4156	1	10	n/a	n/a	1	51	2
1061.5156	1	10	n/a	n/a	1	51	3
1062.7822	1	10	n/a	n/a	1	51	4
1063.9488	1	10	n/a	n/a	1	51	5
1065.1154	1	21	n/a	n/a	1	51	0
1066.332	1	10	n/a	n/a	1	51	1
1067.3818	1	10	n/a	n/a	1	51	2
1068.4984	1	10	n/a	n/a	1	51	3
1069.615	1	21	n/a	n/a	1	51	0
1070.8816	1	10	n/a	n/a	1	51	1
1072.1816	1	10	n/a	n/a	1	51	2
1073.145	1	81	n/a	n/a	1	0	0
1073.345	1	81	n/a	n/a	1	0	0
1073.545	1	81	n/a	n/a	1	0	0
1073.745	1	81	n/a	n/a	1	0	0
1073.945	1	81	n/a	n/a	1	0	0
1074.145	1	81	n/a	n/a	1	0	0
1074.345	1	81	n/a	n/a	1	0	0
1074.545	1	81	n/a	n/a	1	0	0
1074.745	1	81	n/a	n/a	1	0	0
1074.945	1	81	n/a	n/a	1	0	0
1076.148	1	10	n/a	n/a	1	51	1
1077.2812	1	10	n/a	n/a	1	51	2
1078.4312	1	10	n/a	n/a	1	51	3
1079.5644	1	10	n/a	n/a	1	51	4
1080.6978	1	10	n/a	n/a	1	51	5
1081.9144	1	10	n/a	n/a	1	51	6
1083.1976	1	10	n/a	n/a	1	51	7
1084.4808	1	21	n/a	n/a	1	51	0
1085.7308	1	10	n/a	n/a	1	51	1
1086.914	1	10	n/a	n/a	1	51	2
1088.0306	1	10	n/a	n/a	1	51	3
1089.1472	1	21	n/a	n/a	1	51	0
1090.2638	1	10	n/a	n/a	1	51	1
1091.3804	1	21	n/a	n/a	1	51	0
1092.6804	1	10	n/a	n/a	1	51	1
1093.997	1	21	n/a	n/a	1	51	0
1095.1302	1	10	n/a	n/a	1	51	1
1096.3134	1	10	n/a	n/a	1	51	2
1097.43	1	10	n/a	n/a	1	51	3
1098.5466	1	21	n/a	n/a	1	51	0
1099.5984	1	81	n/a	n/a	1	0	0
1099.7984	1	81	n/a	n/a	1	0	0
1099.9984	1	81	n/a	n/a	1	0	0
1100.1984	1	81	n/a	n/a	1	0	0
1100.3984	1	81	n/a	n/a	1	0	0
1100.5984	1	81	n/a	n/a	1	0	0
1100.7984	1	81	n/a	n/a	1	0	0
1100.9984	1	81	n/a	n/a	1	0	0
1101.1984	1	81	n/a	n/a	1	0	0
1101.3984	1	81	n/a	n/a	1	0	0
1102.5964	1	10	n/a	n/a	1	51	1
1103.813	1	10	n/a	n/a	1	51	2
1104.863	1	10	n/a	n/a	1	51	3
1105.913	1	21	n/a	n/a	1	51	0
1107.1796	1	10	n/a	n/a	1	51	1
1108.3962	1	10	n/a	n/a	1	51	2
1109.4794	1	10	n/a	n/a	1	51	3
1110.5626	1	21	n/a	n/a	1	51	0
1111.8292	1	10	n/a	n/a	1	51	1
1112.9626	1	10	n/a	n/a	1	51	2
1114.2624	1	10	n/a	n/a	1	51	3
1115.529	1	10	n/a	n/a	1	51	4
1116.7956	1	10	n/a	n/a	1	51	5
1118.0622	1	10	n/a	n/a	1	51	6
1119.2122	1	10	n/a	n/a	1	51	7
1120.362	1	21	n/a	n/a	1	51	0
1121.512	1	10	n/a	n/a	1	51	1
1122.662	1	21	n/a	n/a	1	51	0
1123.8618	1	10	n/a	n/a	1	51	1
1125.0618	1	21	n/a	n/a	1	51	0
1134.3976	1	82	n/a	n/a	1	0	0
1134.6196	1	82	n/a	n/a	1	0	0
1134.7696	1	82	n/a	n/a	1	0	0
1135.0216	1	82	n/a	n/a	1	0	0
1135.1386	1	82	n/a	n/a	1	0	0
1135.3976	1	82	n/a	n/a	1	0	0
1135.6326	1	82	n/a	n/a	1	0	0
1135.7706	1	82	n/a	n/a	1	0	0
1135.8436	1	82	n/a	n/a	1	0	0
1136.1886	1	82	n/a	n/a	1	0	0
1137.4944	1	10	n/a	n/a	1	50	1
1138.6944	1	21	n/a	n/a	1	50	0
1139.8776	1	10	n/a	n/a	1	50	1
1141.0608	1	21	n/a	n/a	1	50	0
1142.2274	1	10	n/a	n/a	1	50	1
1143.394	1	21	n/a	n/a	1	50	0
1144.444	1	10	n/a	n/a	1	50	1
1145.594	1	10	n/a	n/a	1	50	2
1146.7606	1	10	n/a	n/a	1	50	3
1148.0104	1	10	n/a	n/a	1	50	4
1149.3438	1	10	n/a	n/a	1	50	5
1150.4104	1	10	n/a	n/a	1	50	6
1151.6436	1	10	n/a	n/a	1	50	7
1152.8768	1	21	n/a	n/a	1	50	0
1154.1268	1	10	n/a	n/a	1	50	1
1155.3766	1	21	n/a	n/a	1	50	0
1156.4932	1	10	n/a	n/a	1	50	1
1157.6098	1	21	n/a	n/a	1	50	0
1158.9098	1	10	n/a	n/a	1	50	1
1160.0598	1	10	n/a	n/a	1	50	2
1160.7992	1	82	n/a	n/a	1	0	0
1161.2282	1	82	n/a	n/a	1	0	0
1161.3672	1	82	n/a	n/a	1	0	0
1161.7362	1	82	n/a	n/a	1	0	0
1161.7592	1	82	n/a	n/a	1	0	0
1161.7992	1	82	n/a	n/a	1	0	0
1162.0442	1	82	n/a	n/a	1	0	0
1162.1522	1	82	n/a	n/a	1	0	0
1162.1832	1	82	n/a	n/a	1	0	0
1162.2372	1	82	n/a	n/a	1	0	0
1163.8596	1	10	n/a	n/a	1	50	1
1165.0262	1	21	n/a	n/a	1	50	0
1166.1428	1	10	n/a	n/a	1	50	1
1167.2594	1	21	n/a	n/a	1	50	0
1168.3092	1	10	n/a	n/a	1	50	1
1169.5926	1	10	n/a	n/a	1	50	2
1170.7592	1	10	n/a	n/a	1	50	3
1171.8758	1	10	n/a	n/a	1	50	4
1173.009	1	10	n/a	n/a	1	50	5
1174.1422	1	21	n/a	n/a	1	50	0
1175.2922	1	10	n/a	n/a	1	50	1
1176.5254	1	10	n/a	n/a	1	50	2
1177.7254	1	10	n/a	n/a	1	50	3
1178.8252	1	10	n/a	n/a	1	50	4
1180.0586	1	10	n/a	n/a	1	50	5
1181.2918	1	21	n/a	n/a	1	50	0
1182.4418	1	10	n/a	n/a	1	50	1
1183.5084	1	10	n/a	n/a	1	50	2
1184.825	1	10	n/a	n/a	1	50	3
1186.1416	1	21	n/a	n/a	1	50	0
1187.2592	1	82	n/a	n/a	1	0	0
1187.338	1	82	n/a	n/a	1	0	0
1187.3852	1	82	n/a	n/a	1	0	0
1187.691	1	82	n/a	n/a	1	0	0
1187.959	1	82	n/a	n/a	1	0	0
1188.2592	1	82	n/a	n/a	1	0	0
1188.6822	1	82	n/a	n/a	1	0	0
1188.9452	1	82	n/a	n/a	1	0	0
1188.9862	1	82	n/a	n/a	1	0	0
1189.1202	1	82	n/a	n/a	1	0	0
1190.458	1	10	n/a	n/a	1	50	1
1191.7578	1	21	n/a	n/a	1	50	0
1192.9912	1	10	n/a	n/a	1	50	1
1194.1578	1	10	n/a	n/a	1	50	2
1195.3244	1	10	n/a	n/a	1	50	3
1196.5576	1	10	n/a	n/a	1	50	4
1197.7742	1	10	n/a	n/a	1	50	5
1199.0908	1	10	n/a	n/a	1	50	6
1200.124	1	10	n/a	n/a	1	50	7
1201.1574	1	21	n/a	n/a	1	50	0
1202.2572	1	10	n/a	n/a	1	50	1
1203.4238	1	10	n/a	n/a	1	50	2
1204.6238	1	10	n/a	n/a	1	50	3
1205.7904	1	10	n/a	n/a	1	50	4
1207.0402	1	10	n/a	n/a	1	50	5
1208.2902	1	21	n/a	n/a	1	50	0
1209.3568	1	10	n/a	n/a	1	50	1
1210.4234	1	21	n/a	n/a	1	50	0
1211.64	1	10	n/a	n/a	1	50	1
1212.94	1	10	n/a	n/a	1	50	2
1214.0144	1	82	n/a	n/a	1	0	0
1214.3464	1	82	n/a	n/a	1	0	0
1214.3894	1	82	n/a	n/a	1	0	0
1214.7574	1	82	n/a	n/a	1	0	0
1214.8974	1	82	n/a	n/a	1	0	0
1215.0144	1	82	n/a	n/a	1	0	0
1215.1694	1	82	n/a	n/a	1	0	0
1215.2754	1	82	n/a	n/a	1	0	0
1215.6204	1	82	n/a	n/a	1	0	0
1215.6514	1	82	n/a	n/a	1	0	0
1217.0564	1	10	n/a	n/a	1	50	1
1218.3564	1	10	n/a	n/a	1	50	2
1219.6728	1	10	n/a	n/a	1	50	3
1220.8894	1	10	n/a	n/a	1	50	4
1222.1728	1	10	n/a	n/a	1	50	5
1223.4226	1	10	n/a	n/a	1	50	6
1224.6226	1	10	n/a	n/a	1	50	7
1225.8226	1	21	n/a	n/a	1	50	0
1226.9558	1	10	n/a	n/a	1	50	1
1228.039	1	10	n/a	n/a	1	50	2
1229.3224	1	10	n/a	n/a	1	50	3
1230.6056	1	21	n/a	n/a	1	50	0
1231.7722	1	10	n/a	n/a	1	50	1
1232.9388	1	21	n/a	n/a	1	50	0
1233.9888	1	10	n/a	n/a	1	50	1
1235.172	1	10	n/a	n/a	1	50	2
1236.2386	1	10	n/a	n/a	1	50	3
1237.3718	1	10	n/a	n/a	1	50	4
1238.4052	1	10	n/a	n/a	1	50	5
1239.4884	1	10	n/a	n/a	1	50	6
1240.4918	1	82	n/a	n/a	1	0	0
1240.5918	1	82	n/a	n/a	1	0	0
1240.9008	1	82	n/a	n/a	1	0	0
1241.0498	1	82	n/a	n/a	1	0	0
1241.4448	1	82	n/a	n/a	1	0	0
1241.4918	1	82	n/a	n/a	1	0	0
1241.8008	1	82	n/a	n/a	1	0	0
1242.0408	1	82	n/a	n/a	1	0	0
1242.1328	1	82	n/a	n/a	1	0	0
1242.4108	1	82	n/a	n/a	1	0	0
1243.4548	1	10	n/a	n/a	1	50	1
1244.6048	1	10	n/a	n/a	1	50	2
1245.688	1	10	n/a	n/a	1	50	3
1247.0046	1	10	n/a	n/a	1	50	4
1248.0546	1	10	n/a	n/a	1	50	5
1249.1044	1	21	n/a	n/a	1	50	0
1250.371	1	10	n/a	n/a	1	50	1
1251.6544	1	10	n/a	n/a	1	50	2
1252.721	1	10	n/a	n/a	1	50	3
1253.9708	1	10	n/a	n/a	1	50	4
1255.2708	1	10	n/a	n/a	1	50	5
1256.3374	1	10	n/a	n/a	1	50	6
1257.6206	1	10	n/a	n/a	1	50	7
1258.904	1	21	n/a	n/a	1	50	0
1260.2038	1	10	n/a	n/a	1	50	1
1261.4538	1	10	n/a	n/a	1	50	2
1262.6704	1	10	n/a	n/a	1	50	3
1263.887	1	21	n/a	n/a	1	50	0
1264.9202	1	10	n/a	n/a	1	50	1
1266.1868	1	10	n/a	n/a	1	50	2
1284.5852	1	82	n/a	n/a	1	0	0
1284.8842	1	82	n/a	n/a	1	0	0
1285.1472	1	82	n/a	n/a	1	0	0
1285.3442	1	82	n/a	n/a	1	0	0
1285.3872	1	82	n/a	n/a	1	0	0
1285.5852	1	82	n/a	n/a	1	0	0
1285.6632	1	82	n/a	n/a	1	0	0
1285.8082	1	82	n/a	n/a	1	0	0
1286.1112	1	82	n/a	n/a	1	0	0
1286.3382	1	82	n/a	n/a	1	0	0
1287.7688	1	10	n/a	n/a	1	52	1
1288.9522	1	10	n/a	n/a	1	52	2
1290.002	1	10	n/a	n/a	1	52	3
1291.202	1	10	n/a	n/a	1	52	4
1292.4186	1	10	n/a	n/a	1	52	5
1293.5018	1	10	n/a	n/a	1	52	6
1294.5852	1	10	n/a	n/a	1	52	7
1295.6684	1	21	n/a	n/a	1	52	0
1296.9516	1	10	n/a	n/a	1	52	1
1298.235	1	21	n/a	n/a	1	52	0
1299.3516	1	10	n/a	n/a	1	52	1
1300.4682	1	21	n/a	n/a	1	52	0
1301.6514	1	10	n/a	n/a	1	52	1
1302.8346	1	21	n/a	n/a	1	52	0
1303.9012	1	10	n/a	n/a	1	52	1
1304.9678	1	21	n/a	n/a	1	52	0
1306.2512	1	10	n/a	n/a	1	52	1
1307.5344	1	21	n/a	n/a	1	52	0
1308.801	1	10	n/a	n/a	1	52	1
1310.0676	1	21	n/a	n/a	1	52	0
1310.9592	1	82	n/a	n/a	1	0	0
1311.2242	1	82	n/a	n/a	1	0	0
1311.3862	1	82	n/a	n/a	1	0	0
1311.6882	1	82	n/a	n/a	1	0	0
1311.7452	1	82	n/a	n/a	1	0	0
1311.9594	1	82	n/a	n/a	1	0	0
1312.2604	1	82	n/a	n/a	1	0	0
1312.4024	1	82	n/a	n/a	1	0	0
1312.4704	1	82	n/a	n/a	1	0	0
1312.5764	1	82	n/a	n/a	1	0	0
1313.984	1	10	n/a	n/a	1	52	1
1315.0506	1	10	n/a	n/a	1	52	2
1316.2338	1	10	n/a	n/a	1	52	3
1317.4172	1	21	n/a	n/a	1	52	0
1318.4504	1	10	n/a	n/a	1	52	1
1319.667	1	10	n/a	n/a	1	52	2
1320.8502	1	10	n/a	n/a	1	52	3
1322.1502	1	10	n/a	n/a	1	52	4
1323.4334	1	10	n/a	n/a	1	52	5
1324.7168	1	21	n/a	n/a	1	52	0
1325.8334	1	10	n/a	n/a	1	52	1
1326.8832	1	10	n/a	n/a	1	52	2
1328.0832	1	10	n/a	n/a	1	52	3
1329.3164	1	10	n/a	n/a	1	52	4
1330.6164	1	10	n/a	n/a	1	52	5
1331.9162	1	21	n/a	n/a	1	52	0
1333.2328	1	10	n/a	n/a	1	52	1
1334.5328	1	10	n/a	n/a	1	52	2
1335.7994	1	10	n/a	n/a	1	52	3
1336.9494	1	10	n/a	n/a	1	52	4
1338.0068	1	82	n/a	n/a	1	0	0
1338.3628	1	82	n/a	n/a	1	0	0
1338.4298	1	82	n/a	n/a	1	0	0
1338.8098	1	82	n/a	n/a	1	0	0
1338.9268	1	82	n/a	n/a	1	0	0
1339.0068	1	82	n/a	n/a	1	0	0
1339.0558	1	82	n/a	n/a	1	0	0
1339.3698	1	82	n/a	n/a	1	0	0
1339.5468	1	82	n/a	n/a	1	0	0
1339.6418	1	82	n/a	n/a	1	0	0
1341.049	1	10	n/a	n/a	1	52	1
1342.199	1	21	n/a	n/a	1	52	0
1343.5156	1	10	n/a	n/a	1	52	1
1344.8156	1	10	n/a	n/a	1	52	2
1346.0822	1	10	n/a	n/a	1	52	3
1347.2988	1	10	n/a	n/a	1	52	4
1348.382	1	10	n/a	n/a	1	52	5
1349.4652	1	21	n/a	n/a	1	52	0
1350.7652	1	10	n/a	n/a	1	52	1
1352.065	1	21	n/a	n/a	1	52	0
1353.265	1	10	n/a	n/a	1	52	1
1354.465	1	21	n/a	n/a	1	52	0
1355.6482	1	10	n/a	n/a	1	52	1
1356.6814	1	10	n/a	n/a	1	52	2
1357.9648	1	10	n/a	n/a	1	52	3
1359.2146	1	10	n/a	n/a	1	52	4
1360.2646	1	10	n/a	n/a	1	52	5
1361.3146	1	21	n/a	n/a	1	52	0
1362.4644	1	10	n/a	n/a	1	52	1
1363.6978	1	10	n/a	n/a	1	52	2
1364.7372	1	82	n/a	n/a	1	0	0
1365.0582	1	82	n/a	n/a	1	0	0
1365.2032	1	82	n/a	n/a	1	0	0
1365.4992	1	82	n/a	n/a	1	0	0
1365.5782	1	82	n/a	n/a	1	0	0
1365.7372	1	82	n/a	n/a	1	0	0
1366.0242	1	82	n/a	n/a	1	0	0
1366.1612	1	82	n/a	n/a	1	0	0
1366.2382	1	82	n/a	n/a	1	0	0
1366.2582	1	82	n/a	n/a	1	0	0
1367.8642	1	10	n/a	n/a	1	52	1
1369.0974	1	21	n/a	n/a	1	52	0
1370.414	1	10	n/a	n/a	1	52	1
1371.614	1	10	n/a	n/a	1	52	2
1372.7306	1	10	n/a	n/a	1	52	3
1373.9804	1	10	n/a	n/a	1	52	4
1375.2638	1	10	n/a	n/a	1	52	5
1376.547	1	21	n/a	n/a	1	52	0
1377.7802	1	10	n/a	n/a	1	52	1
1378.9802	1	10	n/a	n/a	1	52	2
1380.0802	1	10	n/a	n/a	1	52	3
1381.38	1	10	n/a	n/a	1	52	4
1382.4466	1	10	n/a	n/a	1	52	5
1383.7132	1	10	n/a	n/a	1	52	6
1384.7798	1	10	n/a	n/a	1	52	7
1385.8464	1	21	n/a	n/a	1	52	0
1386.963	1	10	n/a	n/a	1	52	1
1387.9964	1	10	n/a	n/a	1	52	2
1389.163	1	10	n/a	n/a	1	52	3
1390.4962	1	10	n/a	n/a	1	52	4
1391.3226	1	82	n/a	n/a	1	0	0
1391.4846	1	82	n/a	n/a	1	0	0
1391.5316	1	82	n/a	n/a	1	0	0
1391.6576	1	82	n/a	n/a	1	0	0
1391.9836	1	82	n/a	n/a	1	0	0
1392.3226	1	82	n/a	n/a	1	0	0
1392.4216	1	82	n/a	n/a	1	0	0
1392.5416	1	82	n/a	n/a	1	0	0
1392.8286	1	82	n/a	n/a	1	0	0
1393.1566	1	82	n/a	n/a	1	0	0
1394.2626	1	10	n/a	n/a	1	52	1
1395.3958	1	10	n/a	n/a	1	52	2
1396.6624	1	10	n/a	n/a	1	52	3
1397.829	1	10	n/a	n/a	1	52	4
1399.0624	1	10	n/a	n/a	1	52	5
1400.2956	1	21	n/a	n/a	1	52	0
1401.5788	1	10	n/a	n/a	1	52	1
1402.8954	1	10	n/a	n/a	1	52	2
1404.1286	1	10	n/a	n/a	1	52	3
1405.362	1	21	n/a	n/a	1	52	0
1406.6786	1	10	n/a	n/a	1	52	1
1407.7952	1	10	n/a	n/a	1	52	2
1408.945	1	10	n/a	n/a	1	52	3
1410.095	1	21	n/a	n/a	1	52	0
1411.345	1	10	n/a	n/a	1	52	1
1412.4948	1	10	n/a	n/a	1	52	2
1413.5948	1	10	n/a	n/a	1	52	3
1414.6948	1	21	n/a	n/a	1	52	0
1415.828	1	10	n/a	n/a	1	52	1
1417.128	1	10	n/a	n/a	1	52	2
1488.6002	1	82	n/a	n/a	1	0	0
1488.6302	1	82	n/a	n/a	1	0	0
1488.7862	1	82	n/a	n/a	1	0	0
1489.1762	1	82	n/a	n/a	1	0	0
1489.2922	1	82	n/a	n/a	1	0	0
1489.6004	1	82	n/a	n/a	1	0	0
1489.7082	1	82	n/a	n/a	1	0	0
1489.9342	1	82	n/a	n/a	1	0	0
1490.1202	1	82	n/a	n/a	1	0	0
1490.4682	1	82	n/a	n/a	1	0	0
1491.664	1	10	n/a	n/a	1	52	1
1492.8306	1	21	n/a	n/a	1	52	0
1493.9638	1	10	n/a	n/a	1	52	1
1495.0972	1	21	n/a	n/a	1	52	0
1496.1304	1	10	n/a	n/a	1	52	1
1497.1636	1	21	n/a	n/a	1	52	0
1498.197	1	10	n/a	n/a	1	52	1
1499.2302	1	21	n/a	n/a	1	52	0
1500.3468	1	10	n/a	n/a	1	52	1
1501.43	1	10	n/a	n/a	1	52	2
1502.6466	1	10	n/a	n/a	1	52	3
1503.88	1	10	n/a	n/a	1	52	4
1505.1798	1	10	n/a	n/a	1	52	5
1506.2298	1	10	n/a	n/a	1	52	6
1507.413	1	10	n/a	n/a	1	52	7
1508.5964	1	21	n/a	n/a	1	52	0
1509.763	1	10	n/a	n/a	1	52	1
1510.8462	1	10	n/a	n/a	1	52	2
1512.1128	1	10	n/a	n/a	1	52	3
1513.2294	1	10	n/a	n/a	1	52	4
1514.097	1	82	n/a	n/a	1	0	0
1514.134	1	82	n/a	n/a	1	0	0
1514.553	1	82	n/a	n/a	1	0	0
1514.669	1	82	n/a	n/a	1	0	0
1514.905	1	82	n/a	n/a	1	0	0
1515.097	1	82	n/a	n/a	1	0	0
1515.208	1	82	n/a	n/a	1	0	0
1515.522	1	82	n/a	n/a	1	0	0
1515.687	1	82	n/a	n/a	1	0	0
1515.963	1	82	n/a	n/a	1	0	0
1517.1792	1	10	n/a	n/a	1	52	1
1518.2458	1	10	n/a	n/a	1	52	2
1519.4956	1	10	n/a	n/a	1	52	3
1520.7456	1	21	n/a	n/a	1	52	0
1522.0288	1	10	n/a	n/a	1	52	1
1523.1288	1	10	n/a	n/a	1	52	2
1524.162	1	10	n/a	n/a	1	52	3
1525.1954	1	21	n/a	n/a	1	52	0
1526.4286	1	10	n/a	n/a	1	52	1
1527.6952	1	10	n/a	n/a	1	52	2
1528.8952	1	10	n/a	n/a	1	52	3
1530.095	1	21	n/a	n/a	1	52	0
1531.395	1	10	n/a	n/a	1	52	1
1532.545	1	10	n/a	n/a	1	52	2
1533.8282	1	10	n/a	n/a	1	52	3
1534.9448	1	10	n/a	n/a	1	52	4
1535.978	1	10	n/a	n/a	1	52	5
1537.0114	1	21	n/a	n/a	1	52	0
1538.2946	1	10	n/a	n/a	1	52	1
1539.5444	1	10	n/a	n/a	1	52	2
1540.326	1	82	n/a	n/a	1	0	0
1540.45	1	82	n/a	n/a	1	0	0
1540.713	1	82	n/a	n/a	1	0	0
1540.741	1	82	n/a	n/a	1	0	0
1540.836	1	82	n/a	n/a	1	0	0
1541.326	1	82	n/a	n/a	1	0	0
1541.547	1	82	n/a	n/a	1	0	0
1541.828	1	82	n/a	n/a	1	0	0
1541.913	1	82	n/a	n/a	1	0	0
1541.962	1	82	n/a	n/a	1	0	0
1543.5276	1	10	n/a	n/a	1	52	1
1544.8276	1	10	n/a	n/a	1	52	2
1546.0942	1	10	n/a	n/a	1	52	3
1547.3608	1	21	n/a	n/a	1	52	0
1548.6272	1	10	n/a	n/a	1	52	1
1549.8606	1	10	n/a	n/a	1	52	2
1551.0938	1	10	n/a	n/a	1	52	3
1552.2104	1	10	n/a	n/a	1	52	4
1553.427	1	10	n/a	n/a	1	52	5
1554.6602	1	10	n/a	n/a	1	52	6
1555.9102	1	10	n/a	n/a	1	52	7
1557.1602	1	21	n/a	n/a	1	52	0
1558.3268	1	10	n/a	n/a	1	52	1
1559.5266	1	10	n/a	n/a	1	52	2
1560.5766	1	10	n/a	n/a	1	52	3
1561.6266	1	21	n/a	n/a	1	52	0
1562.8432	1	10	n/a	n/a	1	52	1
1563.893	1	10	n/a	n/a	1	52	2
1564.943	1	10	n/a	n/a	1	52	3
1565.993	1	21	n/a	n/a	1	52	0
1566.8776	1	82	n/a	n/a	1	0	0
1567.0456	1	82	n/a	n/a	1	0	0
1567.3776	1	82	n/a	n/a	1	0	0
1567.4496	1	82	n/a	n/a	1	0	0
1567.7446	1	82	n/a	n/a	1	0	0
1567.8776	1	82	n/a	n/a	1	0	0
1567.9256	1	82	n/a	n/a	1	0	0
1568.2656	1	82	n/a	n/a	1	0	0
1568.5686	1	82	n/a	n/a	1	0	0
1568.6896	1	82	n/a	n/a	1	0	0
1570.0928	1	10	n/a	n/a	1	52	1
1571.3092	1	10	n/a	n/a	1	52	2
1572.5258	1	10	n/a	n/a	1	52	3
1573.6758	1	10	n/a	n/a	1	52	4
1574.8258	1	10	n/a	n/a	1	52	5
1575.9756	1	21	n/a	n/a	1	52	0
1577.2922	1	10	n/a	n/a	1	52	1
1578.6088	1	21	n/a	n/a	1	52	0
1579.6588	1	10	n/a	n/a	1	52	1
1580.7588	1	10	n/a	n/a	1	52	2
1581.9086	1	10	n/a	n/a	1	52	3
1583.0586	1	10	n/a	n/a	1	52	4
1584.2086	1	10	n/a	n/a	1	52	5
1585.4084	1	10	n/a	n/a	1	52	6
1586.6918	1	10	n/a	n/a	1	52	7
1587.975	1	21	n/a	n/a	1	52	0
1589.175	1	10	n/a	n/a	1	52	1
1590.3248	1	10	n/a	n/a	1	52	2
1591.4582	1	10	n/a	n/a	1	52	3
1592.7248	1	10	n/a	n/a	1	52	4
1593.8322	1	82	n/a	n/a	1	0	0
1593.9522	1	82	n/a	n/a	1	0	0
1594.0432	1	82	n/a	n/a	1	0	0
1594.2452	1	82	n/a	n/a	1	0	0
1594.5512	1	82	n/a	n/a	1	0	0
1594.8322	1	82	n/a	n/a	1	0	0
1594.9012	1	82	n/a	n/a	1	0	0
1595.1942	1	82	n/a	n/a	1	0	0
1595.3972	1	82	n/a	n/a	1	0	0
1595.7922	1	82	n/a	n/a	1	0	0
1597.0578	1	10	n/a	n/a	1	52	1
1598.391	1	21	n/a	n/a	1	52	0
1599.6076	1	10	n/a	n/a	1	52	1
1600.8242	1	21	n/a	n/a	1	52	0
1602.0908	1	10	n/a	n/a	1	52	1
1603.3574	1	21	n/a	n/a	1	52	0
1604.6074	1	10	n/a	n/a	1	52	1
1605.8572	1	21	n/a	n/a	1	52	0
1607.1572	1	10	n/a	n/a	1	52	1
1608.4572	1	21	n/a	n/a	1	52	0
1609.657	1	10	n/a	n/a	1	52	1
1610.7904	1	10	n/a	n/a	1	52	2
1611.9402	1	10	n/a	n/a	1	52	3
1613.0736	1	10	n/a	n/a	1	52	4
1614.2234	1	10	n/a	n/a	1	52	5
1615.5234	1	10	n/a	n/a	1	52	6
1616.69	1	10	n/a	n/a	1	52	7
1617.8566	1	21	n/a	n/a	1	52	0
1618.9064	1	10	n/a	n/a	1	52	1
1619.9564	1	21	n/a	n/a	1	52	0
1628.8424	1	82	n/a	n/a	1	0	0
1629.1874	1	82	n/a	n/a	1	0	0
1629.2864	1	82	n/a	n/a	1	0	0
1629.3574	1	82	n/a	n/a	1	0	0
1629.7324	1	82	n/a	n/a	1	0	0
1629.8424	1	82	n/a	n/a	1	0	0
1630.1224	1	82	n/a	n/a	1	0	0
1630.5134	1	82	n/a	n/a	1	0	0
1630.5384	1	82	n/a	n/a	1	0	0
1630.6544	1	82	n/a	n/a	1	0	0
1632.0558	1	10	n/a	n/a	1	50	1
1633.3724	1	10	n/a	n/a	1	50	2
1634.639	1	10	n/a	n/a	1	50	3
1635.9554	1	10	n/a	n/a	1	50	4
1637.1888	1	10	n/a	n/a	1	50	5
1638.4886	1	10	n/a	n/a	1	50	6
1639.6386	1	10	n/a	n/a	1	50	7
1640.7886	1	21	n/a	n/a	1	50	0
1641.9052	1	10	n/a	n/a	1	50	1
1643.0718	1	10	n/a	n/a	1	50	2
1644.3216	1	10	n/a	n/a	1	50	3
1645.5716	1	21	n/a	n/a	1	50	0
1646.6382	1	10	n/a	n/a	1	50	1
1647.6714	1	10	n/a	n/a	1	50	2
1648.888	1	10	n/a	n/a	1	50	3
1650.2046	1	10	n/a	n/a	1	50	4
1651.438	1	10	n/a	n/a	1	50	5
1652.5378	1	10	n/a	n/a	1	50	6
1653.8212	1	10	n/a	n/a	1	50	7
1655.1044	1	21	n/a	n/a	1	50	0
1656.118	1	82	n/a	n/a	1	0	0
1656.412	1	82	n/a	n/a	1	0	0
1656.48	1	82	n/a	n/a	1	0	0
1656.829	1	82	n/a	n/a	1	0	0
1656.95	1	82	n/a	n/a	1	0	0
1657.118	1	82	n/a	n/a	1	0	0
1657.278	1	82	n/a	n/a	1	0	0
1657.682	1	82	n/a	n/a	1	0	0
1657.881	1	82	n/a	n/a	1	0	0
1657.983	1	82	n/a	n/a	1	0	0
1659.0374	1	10	n/a	n/a	1	50	1
1660.0874	1	10	n/a	n/a	1	50	2
1661.3374	1	10	n/a	n/a	1	50	3
1662.654	1	10	n/a	n/a	1	50	4
1663.7706	1	10	n/a	n/a	1	50	5
1664.9872	1	10	n/a	n/a	1	50	6
1666.1204	1	10	n/a	n/a	1	50	7
1667.2536	1	21	n/a	n/a	1	50	0
1668.5202	1	10	n/a	n/a	1	50	1
1669.8368	1	10	n/a	n/a	1	50	2
1671.0034	1	10	n/a	n/a	1	50	3
1672.17	1	10	n/a	n/a	1	50	4
1673.4866	1	10	n/a	n/a	1	50	5
1674.8032	1	21	n/a	n/a	1	50	0
1675.8532	1	10	n/a	n/a	1	50	1
1676.903	1	10	n/a	n/a	1	50	2
1678.053	1	10	n/a	n/a	1	50	3
1679.203	1	21	n/a	n/a	1	50	0
1680.4528	1	10	n/a	n/a	1	50	1
1681.7028	1	21	n/a	n/a	1	50	0
1682.7754	1	82	n/a	n/a	1	0	0
1682.9104	1	82	n/a	n/a	1	0	0
1683.1624	1	82	n/a	n/a	1	0	0
1683.3634	1	82	n/a	n/a	1	0	0
1683.6384	1	82	n/a	n/a	1	0	0
1683.7754	1	82	n/a	n/a	1	0	0
1683.9004	1	82	n/a	n/a	1	0	0
1683.9594	1	82	n/a	n/a	1	0	0
1684.2504	1	82	n/a	n/a	1	0	0
1684.6794	1	82	n/a	n/a	1	0	0
1685.8192	1	10	n/a	n/a	1	50	1
1686.9858	1	10	n/a	n/a	1	50	2
1688.269	1	10	n/a	n/a	1	50	3
1689.4856	1	10	n/a	n/a	1	50	4
1690.8022	1	10	n/a	n/a	1	50	5
1692.0022	1	10	n/a	n/a	1	50	6
1693.0854	1	10	n/a	n/a	1	50	7
1694.1688	1	21	n/a	n/a	1	50	0
1695.202	1	10	n/a	n/a	1	50	1
1696.2352	1	21	n/a	n/a	1	50	0
1697.5186	1	10	n/a	n/a	1	50	1
1698.7684	1	10	n/a	n/a	1	50	2
1699.835	1	10	n/a	n/a	1	50	3
1701.1016	1	10	n/a	n/a	1	50	4
1702.135	1	10	n/a	n/a	1	50	5
1703.1682	1	21	n/a	n/a	1	50	0
1704.2182	1	10	n/a	n/a	1	50	1
1705.268	1	21	n/a	n/a	1	50	0
1706.468	1	10	n/a	n/a	1	50	1
1707.618	1	10	n/a	n/a	1	50	2
1708.5944	1	82	n/a	n/a	1	0	0
1708.6774	1	82	n/a	n/a	1	0	0
1709.0684	1	82	n/a	n/a	1	0	0
1709.2834	1	82	n/a	n/a	1	0	0
1709.3894	1	82	n/a	n/a	1	0	0
1709.5944	1	82	n/a	n/a	1	0	0
1709.8604	1	82	n/a	n/a	1	0	0
1710.0854	1	82	n/a	n/a	1	0	0
1710.1924	1	82	n/a	n/a	1	0	0
1710.5134	1	82	n/a	n/a	1	0	0
1711.7176	1	10	n/a	n/a	1	50	1
1712.901	1	10	n/a	n/a	1	50	2
1714.2008	1	10	n/a	n/a	1	50	3
1715.2508	1	10	n/a	n/a	1	50	4
1716.384	1	10	n/a	n/a	1	50	5
1717.5174	1	21	n/a	n/a	1	50	0
1718.834	1	10	n/a	n/a	1	50	1
1720.1006	1	10	n/a	n/a	1	50	2
1721.3004	1	10	n/a	n/a	1	50	3
1722.3504	1	10	n/a	n/a	1	50	4
1723.517	1	10	n/a	n/a	1	50	5
1724.6002	1	10	n/a	n/a	1	50	6
1725.9002	1	10	n/a	n/a	1	50	7
1727.2002	1	21	n/a	n/a	1	50	0
1728.4668	1	10	n/a	n/a	1	50	1
1729.6166	1	10	n/a	n/a	1	50	2
1730.7332	1	10	n/a	n/a	1	50	3
1731.8998	1	10	n/a	n/a	1	50	4
1733.0164	1	10	n/a	n/a	1	50	5
1734.133	1	21	n/a	n/a	1	50	0
1735.2368	1	82	n/a	n/a	1	0	0
1735.3048	1	82	n/a	n/a	1	0	0
1735.6338	1	82	n/a	n/a	1	0	0
1736.0478	1	82	n/a	n/a	1	0	0
1736.0748	1	82	n/a	n/a	1	0	0
1736.2378	1	82	n/a	n/a	1	0	0
1736.4898	1	82	n/a	n/a	1	0	0
1736.6688	1	82	n/a	n/a	1	0	0
1736.7826	1	82	n/a	n/a	1	0	0
1737.1056	1	82	n/a	n/a	1	0	0
1738.3328	1	10	n/a	n/a	1	50	1
1739.5328	1	21	n/a	n/a	1	50	0
1740.716	1	10	n/a	n/a	1	50	1
1741.9326	1	10	n/a	n/a	1	50	2
1743.1826	1	10	n/a	n/a	1	50	3
1744.2492	1	10	n/a	n/a	1	50	4
1745.5158	1	10	n/a	n/a	1	50	5
1746.7822	1	21	n/a	n/a	1	50	0
1747.849	1	10	n/a	n/a	1	50	1
1748.9988	1	10	n/a	n/a	1	50	2
1750.2488	1	10	n/a	n/a	1	50	3
1751.5654	1	10	n/a	n/a	1	50	4
1752.7652	1	10	n/a	n/a	1	50	5
1753.9652	1	21	n/a	n/a	1	50	0
1755.2652	1	10	n/a	n/a	1	50	1
1756.4818	1	10	n/a	n/a	1	50	2
1757.515	1	10	n/a	n/a	1	50	3
1758.665	1	10	n/a	n/a	1	50	4
1759.7316	1	10	n/a	n/a	1	50	5
1760.7982	1	21	n/a	n/a	1	50	0
1781.1104	1	81	n/a	n/a	1	0	0
1781.3104	1	81	n/a	n/a	1	0	0
1781.5104	1	81	n/a	n/a	1	0	0
1781.7104	1	81	n/a	n/a	1	0	0
1781.9104	1	81	n/a	n/a	1	0	0
1782.1104	1	81	n/a	n/a	1	0	0
1782.3104	1	81	n/a	n/a	1	0	0
1782.5104	1	81	n/a	n/a	1	0	0
1782.7104	1	81	n/a	n/a	1	0	0
1782.9104	1	81	n/a	n/a	1	0	0
1784.1302	1	10	n/a	n/a	1	51	1
1785.2134	1	10	n/a	n/a	1	51	2
1786.4966	1	10	n/a	n/a	1	51	3
1787.7798	1	21	n/a	n/a	1	51	0
1788.9964	1	10	n/a	n/a	1	51	1
1790.1464	1	10	n/a	n/a	1	51	2
1791.2296	1	10	n/a	n/a	1	51	3
1792.313	1	21	n/a	n/a	1	51	0
1793.6128	1	10	n/a	n/a	1	51	1
1794.8794	1	10	n/a	n/a	1	51	2
1796.096	1	10	n/a	n/a	1	51	3
1797.3126	1	10	n/a	n/a	1	51	4
1798.446	1	10	n/a	n/a	1	51	5
1799.5292	1	10	n/a	n/a	1	51	6
1800.7292	1	10	n/a	n/a	1	51	7
1801.929	1	21	n/a	n/a	1	51	0
1803.029	1	10	n/a	n/a	1	51	1
1804.179	1	10	n/a	n/a	1	51	2
1805.2456	1	10	n/a	n/a	1	51	3
1806.5122	1	10	n/a	n/a	1	51	4
1807.2414	1	81	n/a	n/a	1	0	0
1807.4414	1	81	n/a	n/a	1	0	0
1807.6414	1	81	n/a	n/a	1	0	0
1807.8414	1	81	n/a	n/a	1	0	0
1808.0414	1	81	n/a	n/a	1	0	0
1808.2416	1	81	n/a	n/a	1	0	0
1808.4416	1	81	n/a	n/a	1	0	0
1808.6416	1	81	n/a	n/a	1	0	0
1808.8416	1	81	n/a	n/a	1	0	0
1809.0416	1	81	n/a	n/a	1	0	0
1810.2952	1	10	n/a	n/a	1	51	1
1811.4618	1	21	n/a	n/a	1	51	0
1812.595	1	10	n/a	n/a	1	51	1
1813.7284	1	21	n/a	n/a	1	51	0
1814.8782	1	10	n/a	n/a	1	51	1
1816.0282	1	21	n/a	n/a	1	51	0
1817.0614	1	10	n/a	n/a	1	51	1
1818.178	1	10	n/a	n/a	1	51	2
1819.278	1	10	n/a	n/a	1	51	3
1820.428	1	10	n/a	n/a	1	51	4
1821.6278	1	10	n/a	n/a	1	51	5
1822.8278	1	21	n/a	n/a	1	51	0
1824.061	1	10	n/a	n/a	1	51	1
1825.2944	1	21	n/a	n/a	1	51	0
1826.4442	1	10	n/a	n/a	1	51	1
1827.6442	1	10	n/a	n/a	1	51	2
1828.9274	1	10	n/a	n/a	1	51	3
1830.244	1	10	n/a	n/a	1	51	4
1831.4774	1	10	n/a	n/a	1	51	5
1832.7106	1	21	n/a	n/a	1	51	0
1833.5842	1	81	n/a	n/a	1	0	0
1833.7842	1	81	n/a	n/a	1	0	0
1833.9842	1	81	n/a	n/a	1	0	0
1834.1842	1	81	n/a	n/a	1	0	0
1834.3842	1	81	n/a	n/a	1	0	0
1834.5842	1	81	n/a	n/a	1	0	0
1834.7842	1	81	n/a	n/a	1	0	0
1834.9842	1	81	n/a	n/a	1	0	0
1835.1842	1	81	n/a	n/a	1	0	0
1835.3842	1	81	n/a	n/a	1	0	0
1836.527	1	10	n/a	n/a	1	51	1
1837.6602	1	10	n/a	n/a	1	51	2
1838.7268	1	10	n/a	n/a	1	51	3
1839.7934	1	21	n/a	n/a	1	51	0
1840.9268	1	10	n/a	n/a	1	51	1
1842.0434	1	10	n/a	n/a	1	51	2
1843.1932	1	10	n/a	n/a	1	51	3
1844.4598	1	10	n/a	n/a	1	51	4
1845.7932	1	10	n/a	n/a	1	51	5
1847.1264	1	21	n/a	n/a	1	51	0
1848.2764	1	10	n/a	n/a	1	51	1
1849.593	1	10	n/a	n/a	1	51	2
1850.7096	1	10	n/a	n/a	1	51	3
1851.9094	1	10	n/a	n/a	1	51	4
1853.226	1	10	n/a	n/a	1	51	5
1854.5426	1	21	n/a	n/a	1	51	0
1855.6758	1	10	n/a	n/a	1	51	1
1856.8092	1	21	n/a	n/a	1	51	0
1858.0424	1	10	n/a	n/a	1	51	1
1859.2756	1	10	n/a	n/a	1	51	2
1860.12	1	81	n/a	n/a	1	0	0
1860.32	1	81	n/a	n/a	1	0	0
1860.52	1	81	n/a	n/a	1	0	0
1860.72	1	81	n/a	n/a	1	0	0
1860.92	1	81	n/a	n/a	1	0	0
1861.12	1	81	n/a	n/a	1	0	0
1861.32	1	81	n/a	n/a	1	0	0
1861.52	1	81	n/a	n/a	1	0	0
1861.72	1	81	n/a	n/a	1	0	0
1861.92	1	81	n/a	n/a	1	0	0
1863.1422	1	10	n/a	n/a	1	51	1
1864.392	1	10	n/a	n/a	1	51	2
1865.492	1	10	n/a	n/a	1	51	3
1866.592	1	21	n/a	n/a	1	51	0
1867.9086	1	10	n/a	n/a	1	51	1
1869.0918	1	10	n/a	n/a	1	51	2
1870.4084	1	10	n/a	n/a	1	51	3
1871.475	1	10	n/a	n/a	1	51	4
1872.5916	1	10	n/a	n/a	1	51	5
1873.7082	1	21	n/a	n/a	1	51	0
1874.7748	1	10	n/a	n/a	1	51	1
1875.908	1	10	n/a	n/a	1	51	2
1876.9414	1	10	n/a	n/a	1	51	3
1878.008	1	10	n/a	n/a	1	51	4
1879.2078	1	10	n/a	n/a	1	51	5
1880.5078	1	10	n/a	n/a	1	51	6
1881.7076	1	10	n/a	n/a	1	51	7
1882.9076	1	21	n/a	n/a	1	51	0
1884.0576	1	10	n/a	n/a	1	51	1
1885.2408	1	10	n/a	n/a	1	51	2
1885.9722	1	81	n/a	n/a	1	0	0
1886.1722	1	81	n/a	n/a	1	0	0
1886.3722	1	81	n/a	n/a	1	0	0
1886.5722	1	81	n/a	n/a	1	0	0
1886.7722	1	81	n/a	n/a	1	0	0
1886.9722	1	81	n/a	n/a	1	0	0
1887.1722	1	81	n/a	n/a	1	0	0
1887.3722	1	81	n/a	n/a	1	0	0
1887.5722	1	81	n/a	n/a	1	0	0
1887.7722	1	81	n/a	n/a	1	0	0
1889.0406	1	10	n/a	n/a	1	51	1
1890.3072	1	10	n/a	n/a	1	51	2
1891.5904	1	10	n/a	n/a	1	51	3
1892.8736	1	10	n/a	n/a	1	51	4
1894.0902	1	10	n/a	n/a	1	51	5
1895.1236	1	10	n/a	n/a	1	51	6
1896.3734	1	10	n/a	n/a	1	51	7
1897.6234	1	21	n/a	n/a	1	51	0
1898.7234	1	10	n/a	n/a	1	51	1
1899.8232	1	21	n/a	n/a	1	51	0
1901.1398	1	10	n/a	n/a	1	51	1
1902.1898	1	10	n/a	n/a	1	51	2
1903.3398	1	10	n/a	n/a	1	51	3
1904.4396	1	10	n/a	n/a	1	51	4
1905.5062	1	10	n/a	n/a	1	51	5
1906.6728	1	10	n/a	n/a	1	51	6
1907.8062	1	10	n/a	n/a	1	51	7
1908.9394	1	21	n/a	n/a	1	51	0
1910.0726	1	10	n/a	n/a	1	51	1
1911.206	1	21	n/a	n/a	1	51	0
2030.4134	1	82	n/a	n/a	1	0	0
2030.6644	1	82	n/a	n/a	1	0	0
2030.9884	1	82	n/a	n/a	1	0	0
2031.1184	1	82	n/a	n/a	1	0	0
2031.1904	1	82	n/a	n/a	1	0	0
2031.4134	1	82	n/a	n/a	1	0	0
2031.6924	1	82	n/a	n/a	1	0	0
2031.8634	1	82	n/a	n/a	1	0	0
2032.1174	1	82	n/a	n/a	1	0	0
2032.1394	1	82	n/a	n/a	1	0	0
2033.4154	1	10	n/a	n/a	1	52	1
2034.6154	1	10	n/a	n/a	1	52	2
2035.7486	1	10	n/a	n/a	1	52	3
2036.8818	1	21	n/a	n/a	1	52	0
2038.0984	1	10	n/a	n/a	1	52	1
2039.3318	1	10	n/a	n/a	1	52	2
2040.4816	1	10	n/a	n/a	1	52	3
2041.6316	1	21	n/a	n/a	1	52	0
2042.7316	1	10	n/a	n/a	1	52	1
2044.0314	1	10	n/a	n/a	1	52	2
2045.3314	1	10	n/a	n/a	1	52	3
2046.5146	1	10	n/a	n/a	1	52	4
2047.648	1	10	n/a	n/a	1	52	5
2048.7812	1	21	n/a	n/a	1	52	0
2049.8812	1	10	n/a	n/a	1	52	1
2051.081	1	10	n/a	n/a	1	52	2
2052.2976	1	10	n/a	n/a	1	52	3
2053.5142	1	21	n/a	n/a	1	52	0
2054.6642	1	10	n/a	n/a	1	52	1
2055.7642	1	10	n/a	n/a	1	52	2
2056.6046	1	82	n/a	n/a	1	0	0
2056.9406	1	82	n/a	n/a	1	0	0
2057.0766	1	82	n/a	n/a	1	0	0
2057.3236	1	82	n/a	n/a	1	0	0
2057.4246	1	82	n/a	n/a	1	0	0
2057.6046	1	82	n/a	n/a	1	0	0
2058.0366	1	82	n/a	n/a	1	0	0
2058.1576	1	82	n/a	n/a	1	0	0
2058.1986	1	82	n/a	n/a	1	0	0
2058.2706	1	82	n/a	n/a	1	0	0
2059.8138	1	10	n/a	n/a	1	52	1
2061.1304	1	21	n/a	n/a	1	52	0
2062.3138	1	10	n/a	n/a	1	52	1
2063.497	1	10	n/a	n/a	1	52	2
2064.647	1	10	n/a	n/a	1	52	3
2065.8636	1	10	n/a	n/a	1	52	4
2067.0302	1	10	n/a	n/a	1	52	5
2068.1968	1	10	n/a	n/a	1	52	6
2069.4966	1	10	n/a	n/a	1	52	7
2070.7966	1	21	n/a	n/a	1	52	0
2071.9464	1	10	n/a	n/a	1	52	1
2073.0964	1	21	n/a	n/a	1	52	0
2074.163	1	10	n/a	n/a	1	52	1
2075.3462	1	10	n/a	n/a	1	52	2
2076.4462	1	10	n/a	n/a	1	52	3
2077.6462	1	10	n/a	n/a	1	52	4
2078.746	1	10	n/a	n/a	1	52	5
2079.846	1	21	n/a	n/a	1	52	0
2080.9792	1	10	n/a	n/a	1	52	1
2082.1126	1	21	n/a	n/a	1	52	0
2082.9492	1	82	n/a	n/a	1	0	0
2083.0242	1	82	n/a	n/a	1	0	0
2083.3592	1	82	n/a	n/a	1	0	0
2083.6492	1	82	n/a	n/a	1	0	0
2083.6902	1	82	n/a	n/a	1	0	0
2083.9492	1	82	n/a	n/a	1	0	0
2084.0582	1	82	n/a	n/a	1	0	0
2084.3992	1	82	n/a	n/a	1	0	0
2084.5612	1	82	n/a	n/a	1	0	0
2084.7912	1	82	n/a	n/a	1	0	0
2086.079	1	10	n/a	n/a	1	52	1
2087.1956	1	10	n/a	n/a	1	52	2
2088.4788	1	10	n/a	n/a	1	52	3
2089.6954	1	10	n/a	n/a	1	52	4
2090.8288	1	10	n/a	n/a	1	52	5
2092.112	1	10	n/a	n/a	1	52	6
2093.2452	1	10	n/a	n/a	1	52	7
2094.3786	1	21	n/a	n/a	1	52	0
2095.6618	1	10	n/a	n/a	1	52	1
2096.845	1	10	n/a	n/a	1	52	2
2098.095	1	10	n/a	n/a	1	52	3
2099.3448	1	21	n/a	n/a	1	52	0
2100.6114	1	10	n/a	n/a	1	52	1
2101.878	1	21	n/a	n/a	1	52	0
2103.128	1	10	n/a	n/a	1	52	1
2104.228	1	10	n/a	n/a	1	52	2
2105.4278	1	10	n/a	n/a	1	52	3
2106.4944	1	10	n/a	n/a	1	52	4
2107.611	1	10	n/a	n/a	1	52	5
2108.761	1	10	n/a	n/a	1	52	6
2109.6734	1	82	n/a	n/a	1	0	0
2109.7534	1	82	n/a	n/a	1	0	0
2110.0024	1	82	n/a	n/a	1	0	0
2110.1594	1	82	n/a	n/a	1	0	0
2110.5734	1	82	n/a	n/a	1	0	0
2110.6734	1	82	n/a	n/a	1	0	0
2111.0774	1	82	n/a	n/a	1	0	0
2111.3694	1	82	n/a	n/a	1	0	0
2111.4734	1	82	n/a	n/a	1	0	0
2111.4984	1	82	n/a	n/a	1	0	0
2112.8608	1	10	n/a	n/a	1	52	1
2113.9106	1	10	n/a	n/a	1	52	2
2114.9606	1	10	n/a	n/a	1	52	3
2116.2272	1	10	n/a	n/a	1	52	4
2117.5438	1	10	n/a	n/a	1	52	5
2118.8604	1	21	n/a	n/a	1	52	0
2120.177	1	10	n/a	n/a	1	52	1
2121.4102	1	10	n/a	n/a	1	52	2
2122.4602	1	10	n/a	n/a	1	52	3
2123.6102	1	10	n/a	n/a	1	52	4
2124.71	1	10	n/a	n/a	1	52	5
2126.0266	1	10	n/a	n/a	1	52	6
2127.2432	1	10	n/a	n/a	1	52	7
2128.4598	1	21	n/a	n/a	1	52	0
2129.6264	1	10	n/a	n/a	1	52	1
2130.793	1	21	n/a	n/a	1	52	0
2132.093	1	10	n/a	n/a	1	52	1
2133.3928	1	21	n/a	n/a	1	52	0
2134.6262	1	10	n/a	n/a	1	52	1
2135.8594	1	21	n/a	n/a	1	52	0
2136.9342	1	82	n/a	n/a	1	0	0
2137.191	1	82	n/a	n/a	1	0	0
2137.316	1	82	n/a	n/a	1	0	0
2137.547	1	82	n/a	n/a	1	0	0
2137.873	1	82	n/a	n/a	1	0	0
2137.9342	1	82	n/a	n/a	1	0	0
2138.1052	1	82	n/a	n/a	1	0	0
2138.1292	1	82	n/a	n/a	1	0	0
2138.2162	1	82	n/a	n/a	1	0	0
2138.4992	1	82	n/a	n/a	1	0	0
2140.1092	1	10	n/a	n/a	1	52	1
2141.2424	1	10	n/a	n/a	1	52	2
2142.309	1	10	n/a	n/a	1	52	3
2143.509	1	10	n/a	n/a	1	52	4
2144.5422	1	10	n/a	n/a	1	52	5
2145.7754	1	10	n/a	n/a	1	52	6
2146.8588	1	10	n/a	n/a	1	52	7
2147.942	1	21	n/a	n/a	1	52	0
2149.042	1	10	n/a	n/a	1	52	1
2150.2918	1	10	n/a	n/a	1	52	2
2151.5084	1	10	n/a	n/a	1	52	3
2152.825	1	10	n/a	n/a	1	52	4
2154.1084	1	10	n/a	n/a	1	52	5
2155.3916	1	21	n/a	n/a	1	52	0
2156.4916	1	10	n/a	n/a	1	52	1
2157.6248	1	10	n/a	n/a	1	52	2
2158.9248	1	10	n/a	n/a	1	52	3
2160.058	1	10	n/a	n/a	1	52	4
2161.2246	1	10	n/a	n/a	1	52	5
2162.4412	1	21	n/a	n/a	1	52	0
