onset	duration	value	response	rt	good	TMS	seq
88.272	1	81	n/a	n/a	1	0	0
88.472	1	81	n/a	n/a	1	0	0
88.672	1	81	n/a	n/a	1	0	0
88.872	1	81	n/a	n/a	1	0	0
89.072	1	81	n/a	n/a	1	0	0
89.272	1	81	n/a	n/a	1	0	0
89.472	1	81	n/a	n/a	1	0	0
89.672	1	81	n/a	n/a	1	0	0
89.872	1	81	n/a	n/a	1	0	0
90.072	1	81	n/a	n/a	1	0	0
91.3306	1	10	n/a	n/a	1	51	1
92.6472	1	10	n/a	n/a	1	51	2
93.6806	1	10	n/a	n/a	1	51	3
94.7804	1	10	n/a	n/a	1	51	4
95.8804	1	10	n/a	n/a	1	51	5
96.9804	1	21	n/a	n/a	1	51	0
98.2302	1	10	n/a	n/a	1	51	1
99.5136	1	10	n/a	n/a	1	51	2
100.5468	1	10	n/a	n/a	1	51	3
101.7468	1	10	n/a	n/a	1	51	4
102.8634	1	10	n/a	n/a	1	51	5
103.98	1	21	n/a	n/a	1	51	0
105.1632	1	10	n/a	n/a	1	51	1
106.2132	1	10	n/a	n/a	1	51	2
107.2798	1	10	n/a	n/a	1	51	3
108.3464	1	21	n/a	n/a	1	51	0
109.5296	1	10	n/a	n/a	1	51	1
110.8128	1	10	n/a	n/a	1	51	2
112.0962	1	10	n/a	n/a	1	51	3
113.3794	1	10	n/a	n/a	1	51	4
114.4488	1	81	n/a	n/a	1	0	0
114.6488	1	81	n/a	n/a	1	0	0
114.8488	1	81	n/a	n/a	1	0	0
115.0488	1	81	n/a	n/a	1	0	0
115.2488	1	81	n/a	n/a	1	0	0
115.4488	1	81	n/a	n/a	1	0	0
115.6488	1	81	n/a	n/a	1	0	0
115.8488	1	81	n/a	n/a	1	0	0
116.0488	1	81	n/a	n/a	1	0	0
116.2488	1	81	n/a	n/a	1	0	0
117.5958	1	10	n/a	n/a	1	51	1
118.779	1	10	n/a	n/a	1	51	2
119.9624	1	10	n/a	n/a	1	51	3
121.1122	1	10	n/a	n/a	1	51	4
122.2456	1	10	n/a	n/a	1	51	5
123.5288	1	10	n/a	n/a	1	51	6
124.8286	1	10	n/a	n/a	1	51	7
126.1286	1	21	n/a	n/a	1	51	0
127.3118	1	10	n/a	n/a	1	51	1
128.4952	1	21	n/a	n/a	1	51	0
129.7784	1	10	n/a	n/a	1	51	1
131.1116	1	10	n/a	n/a	1	51	2
132.3782	1	10	n/a	n/a	1	51	3
133.6448	1	21	n/a	n/a	1	51	0
134.7282	1	10	n/a	n/a	1	51	1
135.8448	1	10	n/a	n/a	1	51	2
137.028	1	10	n/a	n/a	1	51	3
138.2112	1	21	n/a	n/a	1	51	0
139.4444	1	10	n/a	n/a	1	51	1
140.7278	1	10	n/a	n/a	1	51	2
141.6114	1	81	n/a	n/a	1	0	0
141.8114	1	81	n/a	n/a	1	0	0
142.0114	1	81	n/a	n/a	1	0	0
142.2114	1	81	n/a	n/a	1	0	0
142.4114	1	81	n/a	n/a	1	0	0
142.6114	1	81	n/a	n/a	1	0	0
142.8114	1	81	n/a	n/a	1	0	0
143.0114	1	81	n/a	n/a	1	0	0
143.2114	1	81	n/a	n/a	1	0	0
143.4114	1	81	n/a	n/a	1	0	0
144.7108	1	10	n/a	n/a	1	51	1
145.9274	1	21	n/a	n/a	1	51	0
147.1108	1	10	n/a	n/a	1	51	1
148.2106	1	10	n/a	n/a	1	51	2
149.4106	1	10	n/a	n/a	1	51	3
150.6106	1	21	n/a	n/a	1	51	0
151.677	1	10	n/a	n/a	1	51	1
152.827	1	10	n/a	n/a	1	51	2
154.0102	1	10	n/a	n/a	1	51	3
155.1936	1	10	n/a	n/a	1	51	4
156.2268	1	10	n/a	n/a	1	51	5
157.4434	1	10	n/a	n/a	1	51	6
158.7434	1	10	n/a	n/a	1	51	7
160.0432	1	21	n/a	n/a	1	51	0
161.1766	1	10	n/a	n/a	1	51	1
162.3098	1	21	n/a	n/a	1	51	0
163.3764	1	10	n/a	n/a	1	51	1
164.443	1	21	n/a	n/a	1	51	0
165.493	1	10	n/a	n/a	1	51	1
166.5428	1	21	n/a	n/a	1	51	0
167.5596	1	81	n/a	n/a	1	0	0
167.7596	1	81	n/a	n/a	1	0	0
167.9596	1	81	n/a	n/a	1	0	0
168.1596	1	81	n/a	n/a	1	0	0
168.3596	1	81	n/a	n/a	1	0	0
168.5596	1	81	n/a	n/a	1	0	0
168.7596	1	81	n/a	n/a	1	0	0
168.9596	1	81	n/a	n/a	1	0	0
169.1596	1	81	n/a	n/a	1	0	0
169.3596	1	81	n/a	n/a	1	0	0
170.6926	1	10	n/a	n/a	1	51	1
171.8426	1	10	n/a	n/a	1	51	2
173.0426	1	10	n/a	n/a	1	51	3
174.1092	1	10	n/a	n/a	1	51	4
175.1424	1	10	n/a	n/a	1	51	5
176.259	1	10	n/a	n/a	1	51	6
177.4756	1	10	n/a	n/a	1	51	7
178.6922	1	21	n/a	n/a	1	51	0
179.7254	1	10	n/a	n/a	1	51	1
181.042	1	10	n/a	n/a	1	51	2
182.2086	1	10	n/a	n/a	1	51	3
183.3752	1	10	n/a	n/a	1	51	4
184.5752	1	10	n/a	n/a	1	51	5
185.775	1	21	n/a	n/a	1	51	0
186.875	1	10	n/a	n/a	1	51	1
187.975	1	21	n/a	n/a	1	51	0
189.2248	1	10	n/a	n/a	1	51	1
190.3582	1	10	n/a	n/a	1	51	2
191.608	1	10	n/a	n/a	1	51	3
192.858	1	21	n/a	n/a	1	51	0
193.7296	1	81	n/a	n/a	1	0	0
193.9296	1	81	n/a	n/a	1	0	0
194.1296	1	81	n/a	n/a	1	0	0
194.3296	1	81	n/a	n/a	1	0	0
194.5296	1	81	n/a	n/a	1	0	0
194.7296	1	81	n/a	n/a	1	0	0
194.9296	1	81	n/a	n/a	1	0	0
195.1296	1	81	n/a	n/a	1	0	0
195.3296	1	81	n/a	n/a	1	0	0
195.5296	1	81	n/a	n/a	1	0	0
196.841	1	10	n/a	n/a	1	51	1
197.941	1	10	n/a	n/a	1	51	2
199.191	1	10	n/a	n/a	1	51	3
200.2742	1	10	n/a	n/a	1	51	4
201.5908	1	10	n/a	n/a	1	51	5
202.9074	1	10	n/a	n/a	1	51	6
204.174	1	10	n/a	n/a	1	51	7
205.4406	1	21	n/a	n/a	1	51	0
206.5072	1	10	n/a	n/a	1	51	1
207.7572	1	10	n/a	n/a	1	51	2
208.8904	1	10	n/a	n/a	1	51	3
210.0236	1	21	n/a	n/a	1	51	0
211.2736	1	10	n/a	n/a	1	51	1
212.5402	1	21	n/a	n/a	1	51	0
213.5734	1	10	n/a	n/a	1	51	1
214.84	1	10	n/a	n/a	1	51	2
216.1066	1	10	n/a	n/a	1	51	3
217.1398	1	10	n/a	n/a	1	51	4
218.2564	1	10	n/a	n/a	1	51	5
219.2898	1	10	n/a	n/a	1	51	6
239.308	1	82	n/a	n/a	1	0	0
239.549	1	82	n/a	n/a	1	0	0
239.569	1	82	n/a	n/a	1	0	0
239.843	1	82	n/a	n/a	1	0	0
240.199	1	82	n/a	n/a	1	0	0
240.308	1	82	n/a	n/a	1	0	0
240.344	1	82	n/a	n/a	1	0	0
240.602	1	82	n/a	n/a	1	0	0
240.668	1	82	n/a	n/a	1	0	0
241.094	1	82	n/a	n/a	1	0	0
242.2384	1	10	n/a	n/a	1	50	1
243.3216	1	10	n/a	n/a	1	50	2
244.4716	1	10	n/a	n/a	1	50	3
245.6216	1	21	n/a	n/a	1	50	0
246.7214	1	10	n/a	n/a	1	50	1
247.988	1	10	n/a	n/a	1	50	2
249.138	1	10	n/a	n/a	1	50	3
250.288	1	21	n/a	n/a	1	50	0
251.4546	1	10	n/a	n/a	1	50	1
252.5544	1	10	n/a	n/a	1	50	2
253.6378	1	10	n/a	n/a	1	50	3
254.7044	1	10	n/a	n/a	1	50	4
255.9376	1	10	n/a	n/a	1	50	5
257.1708	1	21	n/a	n/a	1	50	0
258.2874	1	10	n/a	n/a	1	50	1
259.4374	1	10	n/a	n/a	1	50	2
260.7372	1	10	n/a	n/a	1	50	3
261.9538	1	10	n/a	n/a	1	50	4
262.9872	1	10	n/a	n/a	1	50	5
264.187	1	10	n/a	n/a	1	50	6
265.2766	1	82	n/a	n/a	1	0	0
265.3256	1	82	n/a	n/a	1	0	0
265.7626	1	82	n/a	n/a	1	0	0
265.7876	1	82	n/a	n/a	1	0	0
266.1946	1	82	n/a	n/a	1	0	0
266.2766	1	82	n/a	n/a	1	0	0
266.4236	1	82	n/a	n/a	1	0	0
266.5306	1	82	n/a	n/a	1	0	0
266.7756	1	82	n/a	n/a	1	0	0
267.1876	1	82	n/a	n/a	1	0	0
268.2702	1	10	n/a	n/a	1	50	1
269.4702	1	10	n/a	n/a	1	50	2
270.7868	1	10	n/a	n/a	1	50	3
271.9532	1	10	n/a	n/a	1	50	4
272.9866	1	10	n/a	n/a	1	50	5
274.0198	1	21	n/a	n/a	1	50	0
275.2698	1	10	n/a	n/a	1	50	1
276.5864	1	10	n/a	n/a	1	50	2
277.7862	1	10	n/a	n/a	1	50	3
278.9362	1	10	n/a	n/a	1	50	4
280.2694	1	10	n/a	n/a	1	50	5
281.436	1	10	n/a	n/a	1	50	6
282.5026	1	10	n/a	n/a	1	50	7
283.5692	1	21	n/a	n/a	1	50	0
284.8192	1	10	n/a	n/a	1	50	1
286.0692	1	21	n/a	n/a	1	50	0
287.169	1	10	n/a	n/a	1	50	1
288.3856	1	10	n/a	n/a	1	50	2
289.4356	1	10	n/a	n/a	1	50	3
290.7188	1	10	n/a	n/a	1	50	4
291.5582	1	82	n/a	n/a	1	0	0
291.9172	1	82	n/a	n/a	1	0	0
292.0642	1	82	n/a	n/a	1	0	0
292.3562	1	82	n/a	n/a	1	0	0
292.3872	1	82	n/a	n/a	1	0	0
292.5582	1	82	n/a	n/a	1	0	0
292.8482	1	82	n/a	n/a	1	0	0
293.2672	1	82	n/a	n/a	1	0	0
293.4512	1	82	n/a	n/a	1	0	0
293.4952	1	82	n/a	n/a	1	0	0
294.5352	1	10	n/a	n/a	1	50	1
295.6186	1	21	n/a	n/a	1	50	0
296.7684	1	10	n/a	n/a	1	50	1
297.9184	1	21	n/a	n/a	1	50	0
299.1516	1	10	n/a	n/a	1	50	1
300.3516	1	10	n/a	n/a	1	50	2
301.4182	1	10	n/a	n/a	1	50	3
302.5014	1	10	n/a	n/a	1	50	4
303.5514	1	10	n/a	n/a	1	50	5
304.8014	1	10	n/a	n/a	1	50	6
305.9012	1	10	n/a	n/a	1	50	7
307.0012	1	21	n/a	n/a	1	50	0
308.0844	1	10	n/a	n/a	1	50	1
309.3178	1	10	n/a	n/a	1	50	2
310.601	1	10	n/a	n/a	1	50	3
311.801	1	10	n/a	n/a	1	50	4
312.9176	1	10	n/a	n/a	1	50	5
314.0342	1	21	n/a	n/a	1	50	0
315.234	1	10	n/a	n/a	1	50	1
316.5174	1	10	n/a	n/a	1	50	2
317.513	1	82	n/a	n/a	1	0	0
317.626	1	82	n/a	n/a	1	0	0
317.868	1	82	n/a	n/a	1	0	0
318.156	1	82	n/a	n/a	1	0	0
318.202	1	82	n/a	n/a	1	0	0
318.513	1	82	n/a	n/a	1	0	0
318.784	1	82	n/a	n/a	1	0	0
318.853	1	82	n/a	n/a	1	0	0
318.947	1	82	n/a	n/a	1	0	0
319.361	1	82	n/a	n/a	1	0	0
320.4504	1	10	n/a	n/a	1	50	1
321.6504	1	10	n/a	n/a	1	50	2
322.767	1	10	n/a	n/a	1	50	3
323.9668	1	10	n/a	n/a	1	50	4
325.2334	1	10	n/a	n/a	1	50	5
326.3834	1	10	n/a	n/a	1	50	6
327.5	1	10	n/a	n/a	1	50	7
328.6166	1	21	n/a	n/a	1	50	0
329.8666	1	10	n/a	n/a	1	50	1
330.8998	1	10	n/a	n/a	1	50	2
331.9498	1	10	n/a	n/a	1	50	3
332.9996	1	21	n/a	n/a	1	50	0
334.1496	1	10	n/a	n/a	1	50	1
335.2996	1	10	n/a	n/a	1	50	2
336.6162	1	10	n/a	n/a	1	50	3
337.7994	1	10	n/a	n/a	1	50	4
338.9994	1	10	n/a	n/a	1	50	5
340.1992	1	21	n/a	n/a	1	50	0
341.3658	1	10	n/a	n/a	1	50	1
342.5158	1	10	n/a	n/a	1	50	2
343.4002	1	82	n/a	n/a	1	0	0
343.6512	1	82	n/a	n/a	1	0	0
344.0542	1	82	n/a	n/a	1	0	0
344.2052	1	82	n/a	n/a	1	0	0
344.3172	1	82	n/a	n/a	1	0	0
344.4002	1	82	n/a	n/a	1	0	0
344.5552	1	82	n/a	n/a	1	0	0
344.6192	1	82	n/a	n/a	1	0	0
344.8382	1	82	n/a	n/a	1	0	0
345.1502	1	82	n/a	n/a	1	0	0
346.5488	1	10	n/a	n/a	1	50	1
347.6654	1	10	n/a	n/a	1	50	2
348.9654	1	10	n/a	n/a	1	50	3
350.2654	1	10	n/a	n/a	1	50	4
351.5318	1	10	n/a	n/a	1	50	5
352.7984	1	21	n/a	n/a	1	50	0
353.8984	1	10	n/a	n/a	1	50	1
355.065	1	10	n/a	n/a	1	50	2
356.315	1	10	n/a	n/a	1	50	3
357.5648	1	21	n/a	n/a	1	50	0
358.7814	1	10	n/a	n/a	1	50	1
359.8148	1	10	n/a	n/a	1	50	2
360.9314	1	10	n/a	n/a	1	50	3
362.248	1	10	n/a	n/a	1	50	4
363.5146	1	10	n/a	n/a	1	50	5
364.7812	1	21	n/a	n/a	1	50	0
366.0644	1	10	n/a	n/a	1	50	1
367.3476	1	21	n/a	n/a	1	50	0
368.6476	1	10	n/a	n/a	1	50	1
369.9474	1	21	n/a	n/a	1	50	0
404.085	1	82	n/a	n/a	1	0	0
404.112	1	82	n/a	n/a	1	0	0
404.549	1	82	n/a	n/a	1	0	0
404.708	1	82	n/a	n/a	1	0	0
404.8	1	82	n/a	n/a	1	0	0
405.085	1	82	n/a	n/a	1	0	0
405.314	1	82	n/a	n/a	1	0	0
405.468	1	82	n/a	n/a	1	0	0
405.497	1	82	n/a	n/a	1	0	0
405.863	1	82	n/a	n/a	1	0	0
407.2786	1	10	n/a	n/a	1	52	1
408.3952	1	10	n/a	n/a	1	52	2
409.4784	1	10	n/a	n/a	1	52	3
410.545	1	10	n/a	n/a	1	52	4
411.795	1	10	n/a	n/a	1	52	5
412.8616	1	10	n/a	n/a	1	52	6
413.9948	1	10	n/a	n/a	1	52	7
415.1282	1	21	n/a	n/a	1	52	0
416.2448	1	10	n/a	n/a	1	52	1
417.328	1	10	n/a	n/a	1	52	2
418.378	1	10	n/a	n/a	1	52	3
419.6778	1	10	n/a	n/a	1	52	4
420.9778	1	10	n/a	n/a	1	52	5
422.2944	1	10	n/a	n/a	1	52	6
423.5776	1	10	n/a	n/a	1	52	7
424.8608	1	21	n/a	n/a	1	52	0
425.9774	1	10	n/a	n/a	1	52	1
427.0608	1	10	n/a	n/a	1	52	2
428.1274	1	10	n/a	n/a	1	52	3
429.1772	1	10	n/a	n/a	1	52	4
430.0778	1	82	n/a	n/a	1	0	0
430.1018	1	82	n/a	n/a	1	0	0
430.3638	1	82	n/a	n/a	1	0	0
430.4978	1	82	n/a	n/a	1	0	0
430.5608	1	82	n/a	n/a	1	0	0
431.0778	1	82	n/a	n/a	1	0	0
431.4118	1	82	n/a	n/a	1	0	0
431.4918	1	82	n/a	n/a	1	0	0
431.5968	1	82	n/a	n/a	1	0	0
431.8948	1	82	n/a	n/a	1	0	0
433.227	1	10	n/a	n/a	1	52	1
434.277	1	10	n/a	n/a	1	52	2
435.3102	1	10	n/a	n/a	1	52	3
436.3436	1	21	n/a	n/a	1	52	0
437.6434	1	10	n/a	n/a	1	52	1
438.96	1	10	n/a	n/a	1	52	2
440.0766	1	10	n/a	n/a	1	52	3
441.21	1	10	n/a	n/a	1	52	4
442.3098	1	10	n/a	n/a	1	52	5
443.4098	1	21	n/a	n/a	1	52	0
444.5598	1	10	n/a	n/a	1	52	1
445.7764	1	10	n/a	n/a	1	52	2
446.9262	1	10	n/a	n/a	1	52	3
448.0762	1	21	n/a	n/a	1	52	0
449.3428	1	10	n/a	n/a	1	52	1
450.576	1	10	n/a	n/a	1	52	2
451.8426	1	10	n/a	n/a	1	52	3
453.0258	1	10	n/a	n/a	1	52	4
454.0924	1	10	n/a	n/a	1	52	5
455.2258	1	10	n/a	n/a	1	52	6
455.9902	1	82	n/a	n/a	1	0	0
456.0632	1	82	n/a	n/a	1	0	0
456.1032	1	82	n/a	n/a	1	0	0
456.3252	1	82	n/a	n/a	1	0	0
456.7582	1	82	n/a	n/a	1	0	0
456.9902	1	82	n/a	n/a	1	0	0
457.0382	1	82	n/a	n/a	1	0	0
457.1902	1	82	n/a	n/a	1	0	0
457.5612	1	82	n/a	n/a	1	0	0
457.8412	1	82	n/a	n/a	1	0	0
459.2088	1	10	n/a	n/a	1	52	1
460.542	1	21	n/a	n/a	1	52	0
461.7754	1	10	n/a	n/a	1	52	1
462.9752	1	10	n/a	n/a	1	52	2
464.1252	1	10	n/a	n/a	1	52	3
465.2752	1	21	n/a	n/a	1	52	0
466.3084	1	10	n/a	n/a	1	52	1
467.3916	1	10	n/a	n/a	1	52	2
468.5582	1	10	n/a	n/a	1	52	3
469.7916	1	10	n/a	n/a	1	52	4
470.9582	1	10	n/a	n/a	1	52	5
472.1414	1	10	n/a	n/a	1	52	6
473.2414	1	10	n/a	n/a	1	52	7
474.3412	1	21	n/a	n/a	1	52	0
475.5746	1	10	n/a	n/a	1	52	1
476.7412	1	10	n/a	n/a	1	52	2
478.041	1	10	n/a	n/a	1	52	3
479.191	1	10	n/a	n/a	1	52	4
480.391	1	10	n/a	n/a	1	52	5
481.5908	1	21	n/a	n/a	1	52	0
482.3364	1	82	n/a	n/a	1	0	0
482.4144	1	82	n/a	n/a	1	0	0
482.5454	1	82	n/a	n/a	1	0	0
482.9264	1	82	n/a	n/a	1	0	0
483.1914	1	82	n/a	n/a	1	0	0
483.3364	1	82	n/a	n/a	1	0	0
483.6344	1	82	n/a	n/a	1	0	0
483.6714	1	82	n/a	n/a	1	0	0
483.9484	1	82	n/a	n/a	1	0	0
484.0654	1	82	n/a	n/a	1	0	0
485.3572	1	10	n/a	n/a	1	52	1
486.5238	1	10	n/a	n/a	1	52	2
487.6238	1	10	n/a	n/a	1	52	3
488.7238	1	21	n/a	n/a	1	52	0
489.9236	1	10	n/a	n/a	1	52	1
491.0902	1	10	n/a	n/a	1	52	2
492.1236	1	10	n/a	n/a	1	52	3
493.3402	1	10	n/a	n/a	1	52	4
494.4734	1	10	n/a	n/a	1	52	5
495.6066	1	21	n/a	n/a	1	52	0
496.8232	1	10	n/a	n/a	1	52	1
497.8898	1	10	n/a	n/a	1	52	2
498.9564	1	10	n/a	n/a	1	52	3
500.023	1	21	n/a	n/a	1	52	0
501.0564	1	10	n/a	n/a	1	52	1
502.2396	1	10	n/a	n/a	1	52	2
503.3228	1	10	n/a	n/a	1	52	3
504.4062	1	21	n/a	n/a	1	52	0
505.556	1	10	n/a	n/a	1	52	1
506.806	1	10	n/a	n/a	1	52	2
507.5228	1	82	n/a	n/a	1	0	0
507.6588	1	82	n/a	n/a	1	0	0
507.8848	1	82	n/a	n/a	1	0	0
508.2018	1	82	n/a	n/a	1	0	0
508.4688	1	82	n/a	n/a	1	0	0
508.5228	1	82	n/a	n/a	1	0	0
508.8498	1	82	n/a	n/a	1	0	0
508.9268	1	82	n/a	n/a	1	0	0
509.0298	1	82	n/a	n/a	1	0	0
509.2928	1	82	n/a	n/a	1	0	0
510.5058	1	10	n/a	n/a	1	52	1
511.6058	1	10	n/a	n/a	1	52	2
512.7724	1	10	n/a	n/a	1	52	3
514.089	1	10	n/a	n/a	1	52	4
515.4056	1	10	n/a	n/a	1	52	5
516.7054	1	10	n/a	n/a	1	52	6
517.8886	1	10	n/a	n/a	1	52	7
519.072	1	21	n/a	n/a	1	52	0
520.2718	1	10	n/a	n/a	1	52	1
521.4884	1	10	n/a	n/a	1	52	2
522.6052	1	10	n/a	n/a	1	52	3
523.7216	1	21	n/a	n/a	1	52	0
525.0382	1	10	n/a	n/a	1	52	1
526.2716	1	10	n/a	n/a	1	52	2
527.4214	1	10	n/a	n/a	1	52	3
528.4714	1	10	n/a	n/a	1	52	4
529.538	1	10	n/a	n/a	1	52	5
530.6046	1	21	n/a	n/a	1	52	0
531.8878	1	10	n/a	n/a	1	52	1
532.9212	1	10	n/a	n/a	1	52	2
754.1658	1	82	n/a	n/a	1	0	0
754.2988	1	82	n/a	n/a	1	0	0
754.5468	1	82	n/a	n/a	1	0	0
754.6298	1	82	n/a	n/a	1	0	0
754.9778	1	82	n/a	n/a	1	0	0
755.1658	1	82	n/a	n/a	1	0	0
755.2248	1	82	n/a	n/a	1	0	0
755.3528	1	82	n/a	n/a	1	0	0
755.3808	1	82	n/a	n/a	1	0	0
755.6988	1	82	n/a	n/a	1	0	0
757.0912	1	10	n/a	n/a	1	52	1
758.2078	1	10	n/a	n/a	1	52	2
759.4076	1	10	n/a	n/a	1	52	3
760.6576	1	10	n/a	n/a	1	52	4
761.8742	1	10	n/a	n/a	1	52	5
763.0908	1	21	n/a	n/a	1	52	0
764.324	1	10	n/a	n/a	1	52	1
765.5574	1	21	n/a	n/a	1	52	0
766.7406	1	10	n/a	n/a	1	52	1
767.9904	1	10	n/a	n/a	1	52	2
769.057	1	10	n/a	n/a	1	52	3
770.2404	1	10	n/a	n/a	1	52	4
771.507	1	10	n/a	n/a	1	52	5
772.8068	1	10	n/a	n/a	1	52	6
773.9902	1	10	n/a	n/a	1	52	7
775.1734	1	21	n/a	n/a	1	52	0
776.4234	1	10	n/a	n/a	1	52	1
777.5232	1	10	n/a	n/a	1	52	2
778.6898	1	10	n/a	n/a	1	52	3
779.8732	1	10	n/a	n/a	1	52	4
780.5906	1	82	n/a	n/a	1	0	0
780.8316	1	82	n/a	n/a	1	0	0
781.0076	1	82	n/a	n/a	1	0	0
781.2256	1	82	n/a	n/a	1	0	0
781.2906	1	82	n/a	n/a	1	0	0
781.5906	1	82	n/a	n/a	1	0	0
781.7626	1	82	n/a	n/a	1	0	0
781.8786	1	82	n/a	n/a	1	0	0
782.3096	1	82	n/a	n/a	1	0	0
782.3616	1	82	n/a	n/a	1	0	0
783.6396	1	10	n/a	n/a	1	52	1
784.7894	1	10	n/a	n/a	1	52	2
785.8394	1	10	n/a	n/a	1	52	3
786.8728	1	10	n/a	n/a	1	52	4
787.956	1	10	n/a	n/a	1	52	5
789.2392	1	10	n/a	n/a	1	52	6
790.3392	1	10	n/a	n/a	1	52	7
791.439	1	21	n/a	n/a	1	52	0
792.7556	1	10	n/a	n/a	1	52	1
794.0722	1	21	n/a	n/a	1	52	0
795.1888	1	10	n/a	n/a	1	52	1
796.4888	1	10	n/a	n/a	1	52	2
797.522	1	10	n/a	n/a	1	52	3
798.5554	1	21	n/a	n/a	1	52	0
799.872	1	10	n/a	n/a	1	52	1
801.0552	1	10	n/a	n/a	1	52	2
802.2884	1	10	n/a	n/a	1	52	3
803.4884	1	10	n/a	n/a	1	52	4
804.7884	1	10	n/a	n/a	1	52	5
805.9716	1	10	n/a	n/a	1	52	6
806.939	1	82	n/a	n/a	1	0	0
807.041	1	82	n/a	n/a	1	0	0
807.063	1	82	n/a	n/a	1	0	0
807.488	1	82	n/a	n/a	1	0	0
807.836	1	82	n/a	n/a	1	0	0
807.939	1	82	n/a	n/a	1	0	0
808.276	1	82	n/a	n/a	1	0	0
808.383	1	82	n/a	n/a	1	0	0
808.522	1	82	n/a	n/a	1	0	0
808.908	1	82	n/a	n/a	1	0	0
810.1214	1	10	n/a	n/a	1	52	1
811.4046	1	10	n/a	n/a	1	52	2
812.7044	1	10	n/a	n/a	1	52	3
814.0044	1	21	n/a	n/a	1	52	0
815.171	1	10	n/a	n/a	1	52	1
816.4376	1	10	n/a	n/a	1	52	2
817.6208	1	10	n/a	n/a	1	52	3
818.9374	1	10	n/a	n/a	1	52	4
820.1874	1	10	n/a	n/a	1	52	5
821.4374	1	21	n/a	n/a	1	52	0
822.7372	1	10	n/a	n/a	1	52	1
823.8706	1	10	n/a	n/a	1	52	2
824.9704	1	10	n/a	n/a	1	52	3
826.1038	1	10	n/a	n/a	1	52	4
827.2536	1	10	n/a	n/a	1	52	5
828.4036	1	21	n/a	n/a	1	52	0
829.4702	1	10	n/a	n/a	1	52	1
830.7868	1	10	n/a	n/a	1	52	2
832.0366	1	10	n/a	n/a	1	52	3
833.27	1	10	n/a	n/a	1	52	4
834.1764	1	82	n/a	n/a	1	0	0
834.2404	1	82	n/a	n/a	1	0	0
834.5444	1	82	n/a	n/a	1	0	0
834.6824	1	82	n/a	n/a	1	0	0
834.9414	1	82	n/a	n/a	1	0	0
835.1764	1	82	n/a	n/a	1	0	0
835.2324	1	82	n/a	n/a	1	0	0
835.2644	1	82	n/a	n/a	1	0	0
835.5124	1	82	n/a	n/a	1	0	0
835.6084	1	82	n/a	n/a	1	0	0
837.253	1	10	n/a	n/a	1	52	1
838.3864	1	10	n/a	n/a	1	52	2
839.5862	1	10	n/a	n/a	1	52	3
840.7862	1	21	n/a	n/a	1	52	0
841.936	1	10	n/a	n/a	1	52	1
843.086	1	21	n/a	n/a	1	52	0
844.136	1	10	n/a	n/a	1	52	1
845.4526	1	10	n/a	n/a	1	52	2
846.5692	1	10	n/a	n/a	1	52	3
847.6358	1	10	n/a	n/a	1	52	4
848.8356	1	10	n/a	n/a	1	52	5
850.0356	1	21	n/a	n/a	1	52	0
851.3356	1	10	n/a	n/a	1	52	1
852.5354	1	10	n/a	n/a	1	52	2
853.852	1	10	n/a	n/a	1	52	3
855.1686	1	21	n/a	n/a	1	52	0
856.2352	1	10	n/a	n/a	1	52	1
857.3018	1	21	n/a	n/a	1	52	0
858.3852	1	10	n/a	n/a	1	52	1
859.485	1	10	n/a	n/a	1	52	2
860.3366	1	82	n/a	n/a	1	0	0
860.4796	1	82	n/a	n/a	1	0	0
860.8546	1	82	n/a	n/a	1	0	0
860.8906	1	82	n/a	n/a	1	0	0
860.9976	1	82	n/a	n/a	1	0	0
861.3366	1	82	n/a	n/a	1	0	0
861.3756	1	82	n/a	n/a	1	0	0
861.4686	1	82	n/a	n/a	1	0	0
861.5856	1	82	n/a	n/a	1	0	0
861.7376	1	82	n/a	n/a	1	0	0
863.4348	1	10	n/a	n/a	1	52	1
864.5514	1	10	n/a	n/a	1	52	2
865.7846	1	10	n/a	n/a	1	52	3
867.018	1	21	n/a	n/a	1	52	0
868.0678	1	10	n/a	n/a	1	52	1
869.3678	1	10	n/a	n/a	1	52	2
870.5844	1	10	n/a	n/a	1	52	3
871.6676	1	10	n/a	n/a	1	52	4
872.8176	1	10	n/a	n/a	1	52	5
873.9676	1	10	n/a	n/a	1	52	6
875.1674	1	10	n/a	n/a	1	52	7
876.3674	1	21	n/a	n/a	1	52	0
877.534	1	10	n/a	n/a	1	52	1
878.7006	1	10	n/a	n/a	1	52	2
879.9506	1	10	n/a	n/a	1	52	3
881.1504	1	10	n/a	n/a	1	52	4
882.3004	1	10	n/a	n/a	1	52	5
883.4502	1	21	n/a	n/a	1	52	0
884.6002	1	10	n/a	n/a	1	52	1
885.8168	1	10	n/a	n/a	1	52	2
904.4128	1	81	n/a	n/a	1	0	0
904.6128	1	81	n/a	n/a	1	0	0
904.8128	1	81	n/a	n/a	1	0	0
905.0128	1	81	n/a	n/a	1	0	0
905.2128	1	81	n/a	n/a	1	0	0
905.4128	1	81	n/a	n/a	1	0	0
905.6128	1	81	n/a	n/a	1	0	0
905.8128	1	81	n/a	n/a	1	0	0
906.0128	1	81	n/a	n/a	1	0	0
906.2128	1	81	n/a	n/a	1	0	0
907.3988	1	10	n/a	n/a	1	50	1
908.5488	1	10	n/a	n/a	1	50	2
909.582	1	10	n/a	n/a	1	50	3
910.6154	1	10	n/a	n/a	1	50	4
911.6486	1	10	n/a	n/a	1	50	5
912.6818	1	21	n/a	n/a	1	50	0
913.7818	1	10	n/a	n/a	1	50	1
915.0152	1	10	n/a	n/a	1	50	2
916.3316	1	10	n/a	n/a	1	50	3
917.6482	1	10	n/a	n/a	1	50	4
918.8648	1	10	n/a	n/a	1	50	5
919.8982	1	10	n/a	n/a	1	50	6
921.098	1	10	n/a	n/a	1	50	7
922.298	1	21	n/a	n/a	1	50	0
923.5312	1	10	n/a	n/a	1	50	1
924.8312	1	10	n/a	n/a	1	50	2
925.9144	1	10	n/a	n/a	1	50	3
926.9644	1	10	n/a	n/a	1	50	4
928.081	1	10	n/a	n/a	1	50	5
929.1976	1	21	n/a	n/a	1	50	0
929.9512	1	81	n/a	n/a	1	0	0
930.1512	1	81	n/a	n/a	1	0	0
930.3512	1	81	n/a	n/a	1	0	0
930.5512	1	81	n/a	n/a	1	0	0
930.7512	1	81	n/a	n/a	1	0	0
930.9512	1	81	n/a	n/a	1	0	0
931.1512	1	81	n/a	n/a	1	0	0
931.3512	1	81	n/a	n/a	1	0	0
931.5512	1	81	n/a	n/a	1	0	0
931.7512	1	81	n/a	n/a	1	0	0
933.0306	1	10	n/a	n/a	1	50	1
934.314	1	10	n/a	n/a	1	50	2
935.4806	1	10	n/a	n/a	1	50	3
936.6972	1	10	n/a	n/a	1	50	4
937.9304	1	10	n/a	n/a	1	50	5
938.997	1	10	n/a	n/a	1	50	6
940.1136	1	10	n/a	n/a	1	50	7
941.2302	1	21	n/a	n/a	1	50	0
942.3134	1	10	n/a	n/a	1	50	1
943.3968	1	21	n/a	n/a	1	50	0
944.48	1	10	n/a	n/a	1	50	1
945.78	1	10	n/a	n/a	1	50	2
947.0298	1	10	n/a	n/a	1	50	3
948.2798	1	21	n/a	n/a	1	50	0
949.313	1	10	n/a	n/a	1	50	1
950.4796	1	10	n/a	n/a	1	50	2
951.6462	1	10	n/a	n/a	1	50	3
952.7296	1	10	n/a	n/a	1	50	4
953.8462	1	10	n/a	n/a	1	50	5
954.9128	1	10	n/a	n/a	1	50	6
955.8022	1	81	n/a	n/a	1	0	0
956.0022	1	81	n/a	n/a	1	0	0
956.2022	1	81	n/a	n/a	1	0	0
956.4022	1	81	n/a	n/a	1	0	0
956.6022	1	81	n/a	n/a	1	0	0
956.8022	1	81	n/a	n/a	1	0	0
957.0022	1	81	n/a	n/a	1	0	0
957.2022	1	81	n/a	n/a	1	0	0
957.4022	1	81	n/a	n/a	1	0	0
957.6022	1	81	n/a	n/a	1	0	0
958.8292	1	10	n/a	n/a	1	50	1
960.0124	1	10	n/a	n/a	1	50	2
961.129	1	10	n/a	n/a	1	50	3
962.4122	1	10	n/a	n/a	1	50	4
963.4456	1	10	n/a	n/a	1	50	5
964.5954	1	10	n/a	n/a	1	50	6
965.6454	1	10	n/a	n/a	1	50	7
966.6954	1	21	n/a	n/a	1	50	0
967.7952	1	10	n/a	n/a	1	50	1
968.8952	1	21	n/a	n/a	1	50	0
970.1618	1	10	n/a	n/a	1	50	1
971.4284	1	21	n/a	n/a	1	50	0
972.6784	1	10	n/a	n/a	1	50	1
973.995	1	10	n/a	n/a	1	50	2
975.1282	1	10	n/a	n/a	1	50	3
976.2614	1	21	n/a	n/a	1	50	0
977.5448	1	10	n/a	n/a	1	50	1
978.8114	1	10	n/a	n/a	1	50	2
980.0112	1	10	n/a	n/a	1	50	3
981.2112	1	10	n/a	n/a	1	50	4
982.3076	1	81	n/a	n/a	1	0	0
982.5076	1	81	n/a	n/a	1	0	0
982.7076	1	81	n/a	n/a	1	0	0
982.9076	1	81	n/a	n/a	1	0	0
983.1076	1	81	n/a	n/a	1	0	0
983.3076	1	81	n/a	n/a	1	0	0
983.5076	1	81	n/a	n/a	1	0	0
983.7076	1	81	n/a	n/a	1	0	0
983.9076	1	81	n/a	n/a	1	0	0
984.1076	1	81	n/a	n/a	1	0	0
985.4276	1	10	n/a	n/a	1	50	1
986.5108	1	10	n/a	n/a	1	50	2
987.7442	1	10	n/a	n/a	1	50	3
988.9774	1	21	n/a	n/a	1	50	0
990.044	1	10	n/a	n/a	1	50	1
991.094	1	10	n/a	n/a	1	50	2
992.1606	1	10	n/a	n/a	1	50	3
993.2938	1	10	n/a	n/a	1	50	4
994.5104	1	10	n/a	n/a	1	50	5
995.727	1	21	n/a	n/a	1	50	0
996.8936	1	10	n/a	n/a	1	50	1
998.0602	1	21	n/a	n/a	1	50	0
999.2268	1	10	n/a	n/a	1	50	1
1000.3934	1	21	n/a	n/a	1	50	0
1001.71	1	10	n/a	n/a	1	50	1
1002.7766	1	10	n/a	n/a	1	50	2
1004.0264	1	10	n/a	n/a	1	50	3
1005.3098	1	10	n/a	n/a	1	50	4
1006.4096	1	10	n/a	n/a	1	50	5
1007.693	1	10	n/a	n/a	1	50	6
1008.6824	1	81	n/a	n/a	1	0	0
1008.8824	1	81	n/a	n/a	1	0	0
1009.0824	1	81	n/a	n/a	1	0	0
1009.2824	1	81	n/a	n/a	1	0	0
1009.4824	1	81	n/a	n/a	1	0	0
1009.6824	1	81	n/a	n/a	1	0	0
1009.8824	1	81	n/a	n/a	1	0	0
1010.0824	1	81	n/a	n/a	1	0	0
1010.2824	1	81	n/a	n/a	1	0	0
1010.4824	1	81	n/a	n/a	1	0	0
1011.726	1	10	n/a	n/a	1	50	1
1013.0092	1	10	n/a	n/a	1	50	2
1014.1426	1	10	n/a	n/a	1	50	3
1015.2092	1	10	n/a	n/a	1	50	4
1016.3924	1	10	n/a	n/a	1	50	5
1017.5756	1	21	n/a	n/a	1	50	0
1018.7756	1	10	n/a	n/a	1	50	1
1019.9756	1	10	n/a	n/a	1	50	2
1021.0922	1	10	n/a	n/a	1	50	3
1022.342	1	10	n/a	n/a	1	50	4
1023.4754	1	10	n/a	n/a	1	50	5
1024.542	1	10	n/a	n/a	1	50	6
1025.8586	1	10	n/a	n/a	1	50	7
1027.175	1	21	n/a	n/a	1	50	0
1028.325	1	10	n/a	n/a	1	50	1
1029.475	1	21	n/a	n/a	1	50	0
1030.6748	1	10	n/a	n/a	1	50	1
1031.8248	1	10	n/a	n/a	1	50	2
1032.958	1	10	n/a	n/a	1	50	3
1034.2414	1	10	n/a	n/a	1	50	4
1064.194	1	81	n/a	n/a	1	0	0
1064.394	1	81	n/a	n/a	1	0	0
1064.594	1	81	n/a	n/a	1	0	0
1064.794	1	81	n/a	n/a	1	0	0
1064.994	1	81	n/a	n/a	1	0	0
1065.194	1	81	n/a	n/a	1	0	0
1065.394	1	81	n/a	n/a	1	0	0
1065.594	1	81	n/a	n/a	1	0	0
1065.794	1	81	n/a	n/a	1	0	0
1065.994	1	81	n/a	n/a	1	0	0
1067.156	1	10	n/a	n/a	1	51	1
1068.206	1	10	n/a	n/a	1	51	2
1069.356	1	10	n/a	n/a	1	51	3
1070.5058	1	21	n/a	n/a	1	51	0
1071.6392	1	10	n/a	n/a	1	51	1
1072.7724	1	10	n/a	n/a	1	51	2
1073.8724	1	10	n/a	n/a	1	51	3
1075.1056	1	10	n/a	n/a	1	51	4
1076.1888	1	10	n/a	n/a	1	51	5
1077.2722	1	21	n/a	n/a	1	51	0
1078.3054	1	10	n/a	n/a	1	51	1
1079.4554	1	10	n/a	n/a	1	51	2
1080.772	1	10	n/a	n/a	1	51	3
1081.9886	1	10	n/a	n/a	1	51	4
1083.2052	1	10	n/a	n/a	1	51	5
1084.2384	1	10	n/a	n/a	1	51	6
1085.5216	1	10	n/a	n/a	1	51	7
1086.8048	1	21	n/a	n/a	1	51	0
1088.0548	1	10	n/a	n/a	1	51	1
1089.1714	1	10	n/a	n/a	1	51	2
1089.9598	1	81	n/a	n/a	1	0	0
1090.1598	1	81	n/a	n/a	1	0	0
1090.3598	1	81	n/a	n/a	1	0	0
1090.5598	1	81	n/a	n/a	1	0	0
1090.7598	1	81	n/a	n/a	1	0	0
1090.9598	1	81	n/a	n/a	1	0	0
1091.1598	1	81	n/a	n/a	1	0	0
1091.3598	1	81	n/a	n/a	1	0	0
1091.5598	1	81	n/a	n/a	1	0	0
1091.7598	1	81	n/a	n/a	1	0	0
1093.0212	1	10	n/a	n/a	1	51	1
1094.1544	1	10	n/a	n/a	1	51	2
1095.3044	1	10	n/a	n/a	1	51	3
1096.4876	1	10	n/a	n/a	1	51	4
1097.721	1	10	n/a	n/a	1	51	5
1098.7876	1	10	n/a	n/a	1	51	6
1099.9874	1	10	n/a	n/a	1	51	7
1101.1874	1	21	n/a	n/a	1	51	0
1102.304	1	10	n/a	n/a	1	51	1
1103.6206	1	10	n/a	n/a	1	51	2
1104.9372	1	10	n/a	n/a	1	51	3
1106.2538	1	10	n/a	n/a	1	51	4
1107.3204	1	10	n/a	n/a	1	51	5
1108.5202	1	10	n/a	n/a	1	51	6
1109.6036	1	10	n/a	n/a	1	51	7
1110.6868	1	21	n/a	n/a	1	51	0
1111.9368	1	10	n/a	n/a	1	51	1
1113.17	1	21	n/a	n/a	1	51	0
1114.3532	1	10	n/a	n/a	1	51	1
1115.5366	1	21	n/a	n/a	1	51	0
1116.5382	1	81	n/a	n/a	1	0	0
1116.7382	1	81	n/a	n/a	1	0	0
1116.9382	1	81	n/a	n/a	1	0	0
1117.1382	1	81	n/a	n/a	1	0	0
1117.3382	1	81	n/a	n/a	1	0	0
1117.5382	1	81	n/a	n/a	1	0	0
1117.7382	1	81	n/a	n/a	1	0	0
1117.9382	1	81	n/a	n/a	1	0	0
1118.1382	1	81	n/a	n/a	1	0	0
1118.3382	1	81	n/a	n/a	1	0	0
1119.6196	1	10	n/a	n/a	1	51	1
1120.7528	1	10	n/a	n/a	1	51	2
1121.9862	1	10	n/a	n/a	1	51	3
1123.2194	1	21	n/a	n/a	1	51	0
1124.3026	1	10	n/a	n/a	1	51	1
1125.386	1	21	n/a	n/a	1	51	0
1126.4858	1	10	n/a	n/a	1	51	1
1127.5858	1	21	n/a	n/a	1	51	0
1128.8358	1	10	n/a	n/a	1	51	1
1129.919	1	10	n/a	n/a	1	51	2
1131.019	1	10	n/a	n/a	1	51	3
1132.1188	1	21	n/a	n/a	1	51	0
1133.3522	1	10	n/a	n/a	1	51	1
1134.5188	1	10	n/a	n/a	1	51	2
1135.6686	1	10	n/a	n/a	1	51	3
1136.7686	1	10	n/a	n/a	1	51	4
1137.9186	1	10	n/a	n/a	1	51	5
1138.9852	1	10	n/a	n/a	1	51	6
1140.2518	1	10	n/a	n/a	1	51	7
1141.5184	1	21	n/a	n/a	1	51	0
1142.57	1	81	n/a	n/a	1	0	0
1142.77	1	81	n/a	n/a	1	0	0
1142.97	1	81	n/a	n/a	1	0	0
1143.17	1	81	n/a	n/a	1	0	0
1143.37	1	81	n/a	n/a	1	0	0
1143.57	1	81	n/a	n/a	1	0	0
1143.77	1	81	n/a	n/a	1	0	0
1143.97	1	81	n/a	n/a	1	0	0
1144.17	1	81	n/a	n/a	1	0	0
1144.37	1	81	n/a	n/a	1	0	0
1145.6848	1	10	n/a	n/a	1	51	1
1146.818	1	10	n/a	n/a	1	51	2
1148.0012	1	10	n/a	n/a	1	51	3
1149.1178	1	10	n/a	n/a	1	51	4
1150.1512	1	10	n/a	n/a	1	51	5
1151.3178	1	10	n/a	n/a	1	51	6
1152.6176	1	10	n/a	n/a	1	51	7
1153.9176	1	21	n/a	n/a	1	51	0
1155.1508	1	10	n/a	n/a	1	51	1
1156.4674	1	10	n/a	n/a	1	51	2
1157.5674	1	10	n/a	n/a	1	51	3
1158.6172	1	10	n/a	n/a	1	51	4
1159.7672	1	10	n/a	n/a	1	51	5
1160.9172	1	21	n/a	n/a	1	51	0
1162.2338	1	10	n/a	n/a	1	51	1
1163.4836	1	10	n/a	n/a	1	51	2
1164.517	1	10	n/a	n/a	1	51	3
1165.7336	1	10	n/a	n/a	1	51	4
1166.9334	1	10	n/a	n/a	1	51	5
1168.25	1	10	n/a	n/a	1	51	6
1169.2868	1	81	n/a	n/a	1	0	0
1169.4868	1	81	n/a	n/a	1	0	0
1169.6868	1	81	n/a	n/a	1	0	0
1169.8868	1	81	n/a	n/a	1	0	0
1170.0868	1	81	n/a	n/a	1	0	0
1170.2868	1	81	n/a	n/a	1	0	0
1170.4868	1	81	n/a	n/a	1	0	0
1170.6868	1	81	n/a	n/a	1	0	0
1170.8868	1	81	n/a	n/a	1	0	0
1171.0868	1	81	n/a	n/a	1	0	0
1172.4498	1	10	n/a	n/a	1	51	1
1173.7164	1	10	n/a	n/a	1	51	2
1174.9996	1	10	n/a	n/a	1	51	3
1176.1996	1	10	n/a	n/a	1	51	4
1177.4828	1	10	n/a	n/a	1	51	5
1178.5328	1	10	n/a	n/a	1	51	6
1179.7994	1	10	n/a	n/a	1	51	7
1181.066	1	21	n/a	n/a	1	51	0
1182.0992	1	10	n/a	n/a	1	51	1
1183.2992	1	10	n/a	n/a	1	51	2
1184.6158	1	10	n/a	n/a	1	51	3
1185.6824	1	10	n/a	n/a	1	51	4
1186.7322	1	10	n/a	n/a	1	51	5
1187.7822	1	21	n/a	n/a	1	51	0
1188.8988	1	10	n/a	n/a	1	51	1
1189.982	1	10	n/a	n/a	1	51	2
1191.0986	1	10	n/a	n/a	1	51	3
1192.3486	1	10	n/a	n/a	1	51	4
1193.4486	1	10	n/a	n/a	1	51	5
1194.5484	1	21	n/a	n/a	1	51	0
1288.4296	1	82	n/a	n/a	1	0	0
1288.7676	1	82	n/a	n/a	1	0	0
1288.8726	1	82	n/a	n/a	1	0	0
1288.9396	1	82	n/a	n/a	1	0	0
1289.1896	1	82	n/a	n/a	1	0	0
1289.4296	1	82	n/a	n/a	1	0	0
1289.6756	1	82	n/a	n/a	1	0	0
1290.0176	1	82	n/a	n/a	1	0	0
1290.1266	1	82	n/a	n/a	1	0	0
1290.2676	1	82	n/a	n/a	1	0	0
1291.5826	1	10	n/a	n/a	1	52	1
1292.6492	1	10	n/a	n/a	1	52	2
1293.6824	1	10	n/a	n/a	1	52	3
1294.7158	1	21	n/a	n/a	1	52	0
1295.899	1	10	n/a	n/a	1	52	1
1297.199	1	10	n/a	n/a	1	52	2
1298.5156	1	10	n/a	n/a	1	52	3
1299.6654	1	10	n/a	n/a	1	52	4
1300.7488	1	10	n/a	n/a	1	52	5
1301.832	1	21	n/a	n/a	1	52	0
1302.882	1	10	n/a	n/a	1	52	1
1303.9318	1	21	n/a	n/a	1	52	0
1305.0652	1	10	n/a	n/a	1	52	1
1306.0984	1	10	n/a	n/a	1	52	2
1307.1816	1	10	n/a	n/a	1	52	3
1308.4316	1	10	n/a	n/a	1	52	4
1309.5982	1	10	n/a	n/a	1	52	5
1310.7982	1	10	n/a	n/a	1	52	6
1312.0814	1	10	n/a	n/a	1	52	7
1313.3646	1	21	n/a	n/a	1	52	0
1314.14	1	82	n/a	n/a	1	0	0
1314.5292	1	82	n/a	n/a	1	0	0
1314.5892	1	82	n/a	n/a	1	0	0
1314.7822	1	82	n/a	n/a	1	0	0
1314.868	1	82	n/a	n/a	1	0	0
1315.1402	1	82	n/a	n/a	1	0	0
1315.1732	1	82	n/a	n/a	1	0	0
1315.2502	1	82	n/a	n/a	1	0	0
1315.4852	1	82	n/a	n/a	1	0	0
1315.7802	1	82	n/a	n/a	1	0	0
1317.2644	1	10	n/a	n/a	1	52	1
1318.331	1	10	n/a	n/a	1	52	2
1319.5642	1	10	n/a	n/a	1	52	3
1320.7976	1	21	n/a	n/a	1	52	0
1322.0808	1	10	n/a	n/a	1	52	1
1323.214	1	10	n/a	n/a	1	52	2
1324.4806	1	10	n/a	n/a	1	52	3
1325.5306	1	10	n/a	n/a	1	52	4
1326.8304	1	10	n/a	n/a	1	52	5
1328.1304	1	21	n/a	n/a	1	52	0
1329.2804	1	10	n/a	n/a	1	52	1
1330.4302	1	21	n/a	n/a	1	52	0
1331.6968	1	10	n/a	n/a	1	52	1
1332.9134	1	10	n/a	n/a	1	52	2
1334.0468	1	10	n/a	n/a	1	52	3
1335.33	1	10	n/a	n/a	1	52	4
1336.48	1	10	n/a	n/a	1	52	5
1337.6298	1	21	n/a	n/a	1	52	0
1338.8298	1	10	n/a	n/a	1	52	1
1339.913	1	10	n/a	n/a	1	52	2
1340.6394	1	82	n/a	n/a	1	0	0
1340.8654	1	82	n/a	n/a	1	0	0
1340.9454	1	82	n/a	n/a	1	0	0
1341.1234	1	82	n/a	n/a	1	0	0
1341.2404	1	82	n/a	n/a	1	0	0
1341.6396	1	82	n/a	n/a	1	0	0
1341.6946	1	82	n/a	n/a	1	0	0
1341.8436	1	82	n/a	n/a	1	0	0
1341.9286	1	82	n/a	n/a	1	0	0
1342.2866	1	82	n/a	n/a	1	0	0
1343.8128	1	10	n/a	n/a	1	52	1
1345.1128	1	10	n/a	n/a	1	52	2
1346.246	1	10	n/a	n/a	1	52	3
1347.3792	1	21	n/a	n/a	1	52	0
1348.6292	1	10	n/a	n/a	1	52	1
1349.7292	1	10	n/a	n/a	1	52	2
1350.8624	1	10	n/a	n/a	1	52	3
1351.9456	1	10	n/a	n/a	1	52	4
1353.0456	1	10	n/a	n/a	1	52	5
1354.1456	1	21	n/a	n/a	1	52	0
1355.3288	1	10	n/a	n/a	1	52	1
1356.512	1	21	n/a	n/a	1	52	0
1357.562	1	10	n/a	n/a	1	52	1
1358.612	1	21	n/a	n/a	1	52	0
1359.6618	1	10	n/a	n/a	1	52	1
1360.9452	1	10	n/a	n/a	1	52	2
1362.1784	1	10	n/a	n/a	1	52	3
1363.4116	1	21	n/a	n/a	1	52	0
1364.7116	1	10	n/a	n/a	1	52	1
1366.0114	1	21	n/a	n/a	1	52	0
1367.0742	1	82	n/a	n/a	1	0	0
1367.4112	1	82	n/a	n/a	1	0	0
1367.7902	1	82	n/a	n/a	1	0	0
1367.9522	1	82	n/a	n/a	1	0	0
1367.9752	1	82	n/a	n/a	1	0	0
1368.0742	1	82	n/a	n/a	1	0	0
1368.3162	1	82	n/a	n/a	1	0	0
1368.4512	1	82	n/a	n/a	1	0	0
1368.6362	1	82	n/a	n/a	1	0	0
1368.9192	1	82	n/a	n/a	1	0	0
1370.078	1	10	n/a	n/a	1	52	1
1371.2778	1	10	n/a	n/a	1	52	2
1372.4278	1	10	n/a	n/a	1	52	3
1373.561	1	10	n/a	n/a	1	52	4
1374.8444	1	10	n/a	n/a	1	52	5
1376.0776	1	10	n/a	n/a	1	52	6
1377.3942	1	10	n/a	n/a	1	52	7
1378.7108	1	21	n/a	n/a	1	52	0
1379.7606	1	10	n/a	n/a	1	52	1
1380.994	1	10	n/a	n/a	1	52	2
1382.1772	1	10	n/a	n/a	1	52	3
1383.3604	1	21	n/a	n/a	1	52	0
1384.4604	1	10	n/a	n/a	1	52	1
1385.677	1	10	n/a	n/a	1	52	2
1386.877	1	10	n/a	n/a	1	52	3
1387.9268	1	10	n/a	n/a	1	52	4
1389.0268	1	10	n/a	n/a	1	52	5
1390.0768	1	10	n/a	n/a	1	52	6
1391.1766	1	10	n/a	n/a	1	52	7
1392.2766	1	21	n/a	n/a	1	52	0
1393.2404	1	82	n/a	n/a	1	0	0
1393.5264	1	82	n/a	n/a	1	0	0
1393.7804	1	82	n/a	n/a	1	0	0
1393.9564	1	82	n/a	n/a	1	0	0
1394.0854	1	82	n/a	n/a	1	0	0
1394.2404	1	82	n/a	n/a	1	0	0
1394.3024	1	82	n/a	n/a	1	0	0
1394.5324	1	82	n/a	n/a	1	0	0
1394.9164	1	82	n/a	n/a	1	0	0
1395.0204	1	82	n/a	n/a	1	0	0
1396.293	1	10	n/a	n/a	1	52	1
1397.4596	1	21	n/a	n/a	1	52	0
1398.6428	1	10	n/a	n/a	1	52	1
1399.8262	1	10	n/a	n/a	1	52	2
1401.026	1	10	n/a	n/a	1	52	3
1402.1926	1	10	n/a	n/a	1	52	4
1403.2926	1	10	n/a	n/a	1	52	5
1404.3926	1	21	n/a	n/a	1	52	0
1405.6258	1	10	n/a	n/a	1	52	1
1406.6758	1	10	n/a	n/a	1	52	2
1407.859	1	10	n/a	n/a	1	52	3
1409.0756	1	10	n/a	n/a	1	52	4
1410.1256	1	10	n/a	n/a	1	52	5
1411.1754	1	21	n/a	n/a	1	52	0
1412.4088	1	10	n/a	n/a	1	52	1
1413.6086	1	10	n/a	n/a	1	52	2
1414.9252	1	10	n/a	n/a	1	52	3
1415.9918	1	10	n/a	n/a	1	52	4
1417.1584	1	10	n/a	n/a	1	52	5
1418.325	1	21	n/a	n/a	1	52	0
1439.8658	1	82	n/a	n/a	1	0	0
1439.9338	1	82	n/a	n/a	1	0	0
1440.223	1	82	n/a	n/a	1	0	0
1440.3988	1	82	n/a	n/a	1	0	0
1440.7568	1	82	n/a	n/a	1	0	0
1440.866	1	82	n/a	n/a	1	0	0
1440.944	1	82	n/a	n/a	1	0	0
1441.183	1	82	n/a	n/a	1	0	0
1441.286	1	82	n/a	n/a	1	0	0
1441.328	1	82	n/a	n/a	1	0	0
1443.057	1	10	n/a	n/a	1	50	1
1444.3568	1	21	n/a	n/a	1	50	0
1445.6734	1	10	n/a	n/a	1	50	1
1446.8566	1	10	n/a	n/a	1	50	2
1448.0066	1	10	n/a	n/a	1	50	3
1449.1566	1	21	n/a	n/a	1	50	0
1450.2732	1	10	n/a	n/a	1	50	1
1451.3898	1	21	n/a	n/a	1	50	0
1452.623	1	10	n/a	n/a	1	50	1
1453.6896	1	10	n/a	n/a	1	50	2
1454.8228	1	10	n/a	n/a	1	50	3
1456.0394	1	10	n/a	n/a	1	50	4
1457.256	1	10	n/a	n/a	1	50	5
1458.4894	1	10	n/a	n/a	1	50	6
1459.6226	1	10	n/a	n/a	1	50	7
1460.7558	1	21	n/a	n/a	1	50	0
1462.0058	1	10	n/a	n/a	1	50	1
1463.2724	1	10	n/a	n/a	1	50	2
1464.589	1	10	n/a	n/a	1	50	3
1465.9056	1	21	n/a	n/a	1	50	0
1466.808	1	82	n/a	n/a	1	0	0
1467.094	1	82	n/a	n/a	1	0	0
1467.213	1	82	n/a	n/a	1	0	0
1467.258	1	82	n/a	n/a	1	0	0
1467.665	1	82	n/a	n/a	1	0	0
1467.808	1	82	n/a	n/a	1	0	0
1467.83	1	82	n/a	n/a	1	0	0
1467.896	1	82	n/a	n/a	1	0	0
1468.041	1	82	n/a	n/a	1	0	0
1468.474	1	82	n/a	n/a	1	0	0
1469.8886	1	10	n/a	n/a	1	50	1
1471.1886	1	10	n/a	n/a	1	50	2
1472.2886	1	10	n/a	n/a	1	50	3
1473.5218	1	10	n/a	n/a	1	50	4
1474.5884	1	10	n/a	n/a	1	50	5
1475.855	1	10	n/a	n/a	1	50	6
1476.8882	1	10	n/a	n/a	1	50	7
1477.9216	1	21	n/a	n/a	1	50	0
1479.0714	1	10	n/a	n/a	1	50	1
1480.1548	1	10	n/a	n/a	1	50	2
1481.3546	1	10	n/a	n/a	1	50	3
1482.4046	1	10	n/a	n/a	1	50	4
1483.6546	1	10	n/a	n/a	1	50	5
1484.9044	1	21	n/a	n/a	1	50	0
1486.221	1	10	n/a	n/a	1	50	1
1487.3376	1	10	n/a	n/a	1	50	2
1488.6042	1	10	n/a	n/a	1	50	3
1489.8208	1	10	n/a	n/a	1	50	4
1491.0374	1	10	n/a	n/a	1	50	5
1492.254	1	21	n/a	n/a	1	50	0
1493.2524	1	82	n/a	n/a	1	0	0
1493.6484	1	82	n/a	n/a	1	0	0
1493.9674	1	82	n/a	n/a	1	0	0
1494.0414	1	82	n/a	n/a	1	0	0
1494.1604	1	82	n/a	n/a	1	0	0
1494.2524	1	82	n/a	n/a	1	0	0
1494.2724	1	82	n/a	n/a	1	0	0
1494.5754	1	82	n/a	n/a	1	0	0
1494.9414	1	82	n/a	n/a	1	0	0
1495.0424	1	82	n/a	n/a	1	0	0
1496.4204	1	10	n/a	n/a	1	50	1
1497.487	1	10	n/a	n/a	1	50	2
1498.787	1	10	n/a	n/a	1	50	3
1499.8868	1	10	n/a	n/a	1	50	4
1501.0702	1	10	n/a	n/a	1	50	5
1502.2534	1	21	n/a	n/a	1	50	0
1503.5366	1	10	n/a	n/a	1	50	1
1504.8032	1	10	n/a	n/a	1	50	2
1506.0366	1	10	n/a	n/a	1	50	3
1507.2698	1	21	n/a	n/a	1	50	0
1508.3864	1	10	n/a	n/a	1	50	1
1509.4196	1	10	n/a	n/a	1	50	2
1510.5862	1	10	n/a	n/a	1	50	3
1511.7528	1	21	n/a	n/a	1	50	0
1513.0694	1	10	n/a	n/a	1	50	1
1514.3694	1	10	n/a	n/a	1	50	2
1515.586	1	10	n/a	n/a	1	50	3
1516.8526	1	10	n/a	n/a	1	50	4
1518.0524	1	10	n/a	n/a	1	50	5
1519.219	1	10	n/a	n/a	1	50	6
1520.2326	1	82	n/a	n/a	1	0	0
1520.5346	1	82	n/a	n/a	1	0	0
1520.5926	1	82	n/a	n/a	1	0	0
1521.0106	1	82	n/a	n/a	1	0	0
1521.1356	1	82	n/a	n/a	1	0	0
1521.2326	1	82	n/a	n/a	1	0	0
1521.3176	1	82	n/a	n/a	1	0	0
1521.3596	1	82	n/a	n/a	1	0	0
1521.7046	1	82	n/a	n/a	1	0	0
1522.1086	1	82	n/a	n/a	1	0	0
1523.2354	1	10	n/a	n/a	1	50	1
1524.3688	1	10	n/a	n/a	1	50	2
1525.6354	1	10	n/a	n/a	1	50	3
1526.8686	1	10	n/a	n/a	1	50	4
1528.0018	1	10	n/a	n/a	1	50	5
1529.1352	1	21	n/a	n/a	1	50	0
1530.335	1	10	n/a	n/a	1	50	1
1531.535	1	21	n/a	n/a	1	50	0
1532.6516	1	10	n/a	n/a	1	50	1
1533.7848	1	10	n/a	n/a	1	50	2
1535.1182	1	10	n/a	n/a	1	50	3
1536.3514	1	10	n/a	n/a	1	50	4
1537.568	1	10	n/a	n/a	1	50	5
1538.7846	1	21	n/a	n/a	1	50	0
1540.0344	1	10	n/a	n/a	1	50	1
1541.301	1	10	n/a	n/a	1	50	2
1542.3676	1	10	n/a	n/a	1	50	3
1543.4342	1	21	n/a	n/a	1	50	0
1544.5008	1	10	n/a	n/a	1	50	1
1545.5508	1	10	n/a	n/a	1	50	2
1546.5014	1	82	n/a	n/a	1	0	0
1546.5314	1	82	n/a	n/a	1	0	0
1546.8404	1	82	n/a	n/a	1	0	0
1546.9984	1	82	n/a	n/a	1	0	0
1547.0704	1	82	n/a	n/a	1	0	0
1547.5014	1	82	n/a	n/a	1	0	0
1547.5734	1	82	n/a	n/a	1	0	0
1547.6134	1	82	n/a	n/a	1	0	0
1547.8574	1	82	n/a	n/a	1	0	0
1548.1884	1	82	n/a	n/a	1	0	0
1549.5506	1	10	n/a	n/a	1	50	1
1550.7838	1	10	n/a	n/a	1	50	2
1551.9338	1	10	n/a	n/a	1	50	3
1553.0504	1	10	n/a	n/a	1	50	4
1554.1836	1	10	n/a	n/a	1	50	5
1555.317	1	21	n/a	n/a	1	50	0
1556.4502	1	10	n/a	n/a	1	50	1
1557.5834	1	21	n/a	n/a	1	50	0
1558.8334	1	10	n/a	n/a	1	50	1
1560.1166	1	10	n/a	n/a	1	50	2
1561.2166	1	10	n/a	n/a	1	50	3
1562.4498	1	10	n/a	n/a	1	50	4
1563.6164	1	10	n/a	n/a	1	50	5
1564.783	1	21	n/a	n/a	1	50	0
1565.8162	1	10	n/a	n/a	1	50	1
1567.0328	1	10	n/a	n/a	1	50	2
1568.1994	1	10	n/a	n/a	1	50	3
1569.2328	1	10	n/a	n/a	1	50	4
1570.316	1	10	n/a	n/a	1	50	5
1571.3826	1	10	n/a	n/a	1	50	6
1603.5572	1	81	n/a	n/a	1	0	0
1603.7572	1	81	n/a	n/a	1	0	0
1603.9572	1	81	n/a	n/a	1	0	0
1604.1572	1	81	n/a	n/a	1	0	0
1604.3572	1	81	n/a	n/a	1	0	0
1604.5572	1	81	n/a	n/a	1	0	0
1604.7572	1	81	n/a	n/a	1	0	0
1604.9572	1	81	n/a	n/a	1	0	0
1605.1572	1	81	n/a	n/a	1	0	0
1605.3572	1	81	n/a	n/a	1	0	0
1606.7138	1	10	n/a	n/a	1	51	1
1607.9804	1	21	n/a	n/a	1	51	0
1609.147	1	10	n/a	n/a	1	51	1
1610.3136	1	10	n/a	n/a	1	51	2
1611.4802	1	10	n/a	n/a	1	51	3
1612.6968	1	10	n/a	n/a	1	51	4
1613.8968	1	10	n/a	n/a	1	51	5
1615.03	1	10	n/a	n/a	1	51	6
1616.23	1	10	n/a	n/a	1	51	7
1617.4298	1	21	n/a	n/a	1	51	0
1618.6464	1	10	n/a	n/a	1	51	1
1619.963	1	10	n/a	n/a	1	51	2
1621.0796	1	10	n/a	n/a	1	51	3
1622.1962	1	21	n/a	n/a	1	51	0
1623.3296	1	10	n/a	n/a	1	51	1
1624.6128	1	10	n/a	n/a	1	51	2
1625.9128	1	10	n/a	n/a	1	51	3
1627.2126	1	21	n/a	n/a	1	51	0
1628.346	1	10	n/a	n/a	1	51	1
1629.4792	1	21	n/a	n/a	1	51	0
1630.2718	1	81	n/a	n/a	1	0	0
1630.4718	1	81	n/a	n/a	1	0	0
1630.6718	1	81	n/a	n/a	1	0	0
1630.8718	1	81	n/a	n/a	1	0	0
1631.0718	1	81	n/a	n/a	1	0	0
1631.2718	1	81	n/a	n/a	1	0	0
1631.4718	1	81	n/a	n/a	1	0	0
1631.6718	1	81	n/a	n/a	1	0	0
1631.8718	1	81	n/a	n/a	1	0	0
1632.0718	1	81	n/a	n/a	1	0	0
1633.3622	1	10	n/a	n/a	1	51	1
1634.3956	1	10	n/a	n/a	1	51	2
1635.4622	1	10	n/a	n/a	1	51	3
1636.7288	1	10	n/a	n/a	1	51	4
1637.9454	1	10	n/a	n/a	1	51	5
1638.9952	1	10	n/a	n/a	1	51	6
1640.1452	1	10	n/a	n/a	1	51	7
1641.2952	1	21	n/a	n/a	1	51	0
1642.4784	1	10	n/a	n/a	1	51	1
1643.6616	1	21	n/a	n/a	1	51	0
1644.845	1	10	n/a	n/a	1	51	1
1645.8948	1	10	n/a	n/a	1	51	2
1647.0448	1	10	n/a	n/a	1	51	3
1648.328	1	10	n/a	n/a	1	51	4
1649.578	1	10	n/a	n/a	1	51	5
1650.828	1	21	n/a	n/a	1	51	0
1652.0278	1	10	n/a	n/a	1	51	1
1653.3444	1	10	n/a	n/a	1	51	2
1654.561	1	10	n/a	n/a	1	51	3
1655.8276	1	10	n/a	n/a	1	51	4
1656.755	1	81	n/a	n/a	1	0	0
1656.955	1	81	n/a	n/a	1	0	0
1657.155	1	81	n/a	n/a	1	0	0
1657.355	1	81	n/a	n/a	1	0	0
1657.555	1	81	n/a	n/a	1	0	0
1657.755	1	81	n/a	n/a	1	0	0
1657.955	1	81	n/a	n/a	1	0	0
1658.155	1	81	n/a	n/a	1	0	0
1658.355	1	81	n/a	n/a	1	0	0
1658.555	1	81	n/a	n/a	1	0	0
1659.8274	1	10	n/a	n/a	1	51	1
1661.1606	1	10	n/a	n/a	1	51	2
1662.4272	1	10	n/a	n/a	1	51	3
1663.5104	1	10	n/a	n/a	1	51	4
1664.8104	1	10	n/a	n/a	1	51	5
1665.8436	1	10	n/a	n/a	1	51	6
1666.9436	1	10	n/a	n/a	1	51	7
1668.0436	1	21	n/a	n/a	1	51	0
1669.2434	1	10	n/a	n/a	1	51	1
1670.51	1	10	n/a	n/a	1	51	2
1671.56	1	10	n/a	n/a	1	51	3
1672.6266	1	10	n/a	n/a	1	51	4
1673.8766	1	10	n/a	n/a	1	51	5
1675.1264	1	21	n/a	n/a	1	51	0
1676.1598	1	10	n/a	n/a	1	51	1
1677.3264	1	10	n/a	n/a	1	51	2
1678.5096	1	10	n/a	n/a	1	51	3
1679.6596	1	21	n/a	n/a	1	51	0
1680.8928	1	10	n/a	n/a	1	51	1
1682.0094	1	10	n/a	n/a	1	51	2
1682.9448	1	81	n/a	n/a	1	0	0
1683.1448	1	81	n/a	n/a	1	0	0
1683.3448	1	81	n/a	n/a	1	0	0
1683.5448	1	81	n/a	n/a	1	0	0
1683.7448	1	81	n/a	n/a	1	0	0
1683.9448	1	81	n/a	n/a	1	0	0
1684.1448	1	81	n/a	n/a	1	0	0
1684.3448	1	81	n/a	n/a	1	0	0
1684.5448	1	81	n/a	n/a	1	0	0
1684.7448	1	81	n/a	n/a	1	0	0
1685.9924	1	10	n/a	n/a	1	51	1
1687.159	1	10	n/a	n/a	1	51	2
1688.209	1	10	n/a	n/a	1	51	3
1689.259	1	21	n/a	n/a	1	51	0
1690.5256	1	10	n/a	n/a	1	51	1
1691.6254	1	10	n/a	n/a	1	51	2
1692.7088	1	10	n/a	n/a	1	51	3
1693.792	1	21	n/a	n/a	1	51	0
1695.1086	1	10	n/a	n/a	1	51	1
1696.2418	1	10	n/a	n/a	1	51	2
1697.4918	1	10	n/a	n/a	1	51	3
1698.7584	1	10	n/a	n/a	1	51	4
1699.9084	1	10	n/a	n/a	1	51	5
1701.0582	1	21	n/a	n/a	1	51	0
1702.2416	1	10	n/a	n/a	1	51	1
1703.4414	1	10	n/a	n/a	1	51	2
1704.6414	1	10	n/a	n/a	1	51	3
1705.8412	1	21	n/a	n/a	1	51	0
1707.0912	1	10	n/a	n/a	1	51	1
1708.3412	1	21	n/a	n/a	1	51	0
1709.0766	1	81	n/a	n/a	1	0	0
1709.2766	1	81	n/a	n/a	1	0	0
1709.4766	1	81	n/a	n/a	1	0	0
1709.6766	1	81	n/a	n/a	1	0	0
1709.8766	1	81	n/a	n/a	1	0	0
1710.0766	1	81	n/a	n/a	1	0	0
1710.2766	1	81	n/a	n/a	1	0	0
1710.4766	1	81	n/a	n/a	1	0	0
1710.6766	1	81	n/a	n/a	1	0	0
1710.8766	1	81	n/a	n/a	1	0	0
1712.0242	1	10	n/a	n/a	1	51	1
1713.1576	1	10	n/a	n/a	1	51	2
1714.2074	1	10	n/a	n/a	1	51	3
1715.2574	1	21	n/a	n/a	1	51	0
1716.3574	1	10	n/a	n/a	1	51	1
1717.6072	1	10	n/a	n/a	1	51	2
1718.8072	1	10	n/a	n/a	1	51	3
1720.0572	1	10	n/a	n/a	1	51	4
1721.2238	1	10	n/a	n/a	1	51	5
1722.2904	1	10	n/a	n/a	1	51	6
1723.3902	1	10	n/a	n/a	1	51	7
1724.4902	1	21	n/a	n/a	1	51	0
1725.5568	1	10	n/a	n/a	1	51	1
1726.8068	1	10	n/a	n/a	1	51	2
1727.8734	1	10	n/a	n/a	1	51	3
1728.94	1	21	n/a	n/a	1	51	0
1730.0398	1	10	n/a	n/a	1	51	1
1731.2064	1	10	n/a	n/a	1	51	2
1732.3898	1	10	n/a	n/a	1	51	3
1733.6396	1	10	n/a	n/a	1	51	4
1970.7736	1	81	n/a	n/a	1	0	0
1970.9736	1	81	n/a	n/a	1	0	0
1971.1736	1	81	n/a	n/a	1	0	0
1971.3736	1	81	n/a	n/a	1	0	0
1971.5736	1	81	n/a	n/a	1	0	0
1971.7736	1	81	n/a	n/a	1	0	0
1971.9736	1	81	n/a	n/a	1	0	0
1972.1736	1	81	n/a	n/a	1	0	0
1972.3736	1	81	n/a	n/a	1	0	0
1972.5736	1	81	n/a	n/a	1	0	0
1973.9586	1	10	n/a	n/a	1	51	1
1975.092	1	10	n/a	n/a	1	51	2
1976.3086	1	10	n/a	n/a	1	51	3
1977.4418	1	10	n/a	n/a	1	51	4
1978.5084	1	10	n/a	n/a	1	51	5
1979.575	1	21	n/a	n/a	1	51	0
1980.6416	1	10	n/a	n/a	1	51	1
1981.8082	1	10	n/a	n/a	1	51	2
1982.9082	1	10	n/a	n/a	1	51	3
1984.008	1	21	n/a	n/a	1	51	0
1985.108	1	10	n/a	n/a	1	51	1
1986.408	1	10	n/a	n/a	1	51	2
1987.5246	1	10	n/a	n/a	1	51	3
1988.5912	1	10	n/a	n/a	1	51	4
1989.7078	1	10	n/a	n/a	1	51	5
1990.791	1	10	n/a	n/a	1	51	6
1991.941	1	10	n/a	n/a	1	51	7
1993.0908	1	21	n/a	n/a	1	51	0
1994.2074	1	10	n/a	n/a	1	51	1
1995.424	1	10	n/a	n/a	1	51	2
1996.3388	1	81	n/a	n/a	1	0	0
1996.5388	1	81	n/a	n/a	1	0	0
1996.7388	1	81	n/a	n/a	1	0	0
1996.9388	1	81	n/a	n/a	1	0	0
1997.1388	1	81	n/a	n/a	1	0	0
1997.3388	1	81	n/a	n/a	1	0	0
1997.5388	1	81	n/a	n/a	1	0	0
1997.7388	1	81	n/a	n/a	1	0	0
1997.9388	1	81	n/a	n/a	1	0	0
1998.1388	1	81	n/a	n/a	1	0	0
1999.4572	1	10	n/a	n/a	1	51	1
2000.6904	1	21	n/a	n/a	1	51	0
2001.8238	1	10	n/a	n/a	1	51	1
2003.107	1	10	n/a	n/a	1	51	2
2004.4236	1	10	n/a	n/a	1	51	3
2005.4734	1	10	n/a	n/a	1	51	4
2006.54	1	10	n/a	n/a	1	51	5
2007.69	1	10	n/a	n/a	1	51	6
2008.9732	1	10	n/a	n/a	1	51	7
2010.2566	1	21	n/a	n/a	1	51	0
2011.4564	1	10	n/a	n/a	1	51	1
2012.523	1	10	n/a	n/a	1	51	2
2013.6064	1	10	n/a	n/a	1	51	3
2014.8896	1	10	n/a	n/a	1	51	4
2015.9562	1	10	n/a	n/a	1	51	5
2017.0228	1	21	n/a	n/a	1	51	0
2018.2728	1	10	n/a	n/a	1	51	1
2019.5226	1	21	n/a	n/a	1	51	0
2020.8392	1	10	n/a	n/a	1	51	1
2022.0392	1	10	n/a	n/a	1	51	2
2023.0196	1	81	n/a	n/a	1	0	0
2023.2196	1	81	n/a	n/a	1	0	0
2023.4196	1	81	n/a	n/a	1	0	0
2023.6196	1	81	n/a	n/a	1	0	0
2023.8196	1	81	n/a	n/a	1	0	0
2024.0196	1	81	n/a	n/a	1	0	0
2024.2196	1	81	n/a	n/a	1	0	0
2024.4196	1	81	n/a	n/a	1	0	0
2024.6196	1	81	n/a	n/a	1	0	0
2024.8196	1	81	n/a	n/a	1	0	0
2025.9722	1	10	n/a	n/a	1	51	1
2027.2222	1	10	n/a	n/a	1	51	2
2028.3888	1	10	n/a	n/a	1	51	3
2029.5388	1	10	n/a	n/a	1	51	4
2030.622	1	10	n/a	n/a	1	51	5
2031.7052	1	21	n/a	n/a	1	51	0
2032.9552	1	10	n/a	n/a	1	51	1
2034.2718	1	10	n/a	n/a	1	51	2
2035.3884	1	10	n/a	n/a	1	51	3
2036.505	1	21	n/a	n/a	1	51	0
2037.6716	1	10	n/a	n/a	1	51	1
2038.7716	1	10	n/a	n/a	1	51	2
2040.0548	1	10	n/a	n/a	1	51	3
2041.338	1	21	n/a	n/a	1	51	0
2042.438	1	10	n/a	n/a	1	51	1
2043.5378	1	21	n/a	n/a	1	51	0
2044.6878	1	10	n/a	n/a	1	51	1
2045.871	1	10	n/a	n/a	1	51	2
2047.1376	1	10	n/a	n/a	1	51	3
2048.4042	1	21	n/a	n/a	1	51	0
2049.2576	1	81	n/a	n/a	1	0	0
2049.4576	1	81	n/a	n/a	1	0	0
2049.6576	1	81	n/a	n/a	1	0	0
2049.8576	1	81	n/a	n/a	1	0	0
2050.0576	1	81	n/a	n/a	1	0	0
2050.2578	1	81	n/a	n/a	1	0	0
2050.4578	1	81	n/a	n/a	1	0	0
2050.6578	1	81	n/a	n/a	1	0	0
2050.8578	1	81	n/a	n/a	1	0	0
2051.0578	1	81	n/a	n/a	1	0	0
2052.254	1	10	n/a	n/a	1	51	1
2053.504	1	10	n/a	n/a	1	51	2
2054.6706	1	10	n/a	n/a	1	51	3
2055.7704	1	10	n/a	n/a	1	51	4
2056.8538	1	10	n/a	n/a	1	51	5
2058.0704	1	10	n/a	n/a	1	51	6
2059.1036	1	10	n/a	n/a	1	51	7
2060.137	1	21	n/a	n/a	1	51	0
2061.1868	1	10	n/a	n/a	1	51	1
2062.2368	1	21	n/a	n/a	1	51	0
2063.2868	1	10	n/a	n/a	1	51	1
2064.5034	1	10	n/a	n/a	1	51	2
2065.7032	1	10	n/a	n/a	1	51	3
2066.8866	1	10	n/a	n/a	1	51	4
2068.0032	1	10	n/a	n/a	1	51	5
2069.2198	1	10	n/a	n/a	1	51	6
2070.353	1	10	n/a	n/a	1	51	7
2071.4862	1	21	n/a	n/a	1	51	0
2072.6028	1	10	n/a	n/a	1	51	1
2073.886	1	10	n/a	n/a	1	51	2
2074.7888	1	81	n/a	n/a	1	0	0
2074.9888	1	81	n/a	n/a	1	0	0
2075.1888	1	81	n/a	n/a	1	0	0
2075.3888	1	81	n/a	n/a	1	0	0
2075.5888	1	81	n/a	n/a	1	0	0
2075.7888	1	81	n/a	n/a	1	0	0
2075.9888	1	81	n/a	n/a	1	0	0
2076.1888	1	81	n/a	n/a	1	0	0
2076.3888	1	81	n/a	n/a	1	0	0
2076.5888	1	81	n/a	n/a	1	0	0
2077.9858	1	10	n/a	n/a	1	51	1
2079.0524	1	10	n/a	n/a	1	51	2
2080.2024	1	10	n/a	n/a	1	51	3
2081.4524	1	10	n/a	n/a	1	51	4
2082.7188	1	10	n/a	n/a	1	51	5
2083.9854	1	21	n/a	n/a	1	51	0
2085.0688	1	10	n/a	n/a	1	51	1
2086.3686	1	10	n/a	n/a	1	51	2
2087.5352	1	10	n/a	n/a	1	51	3
2088.7852	1	10	n/a	n/a	1	51	4
2089.8852	1	10	n/a	n/a	1	51	5
2090.985	1	21	n/a	n/a	1	51	0
2092.1184	1	10	n/a	n/a	1	51	1
2093.2516	1	21	n/a	n/a	1	51	0
2094.3348	1	10	n/a	n/a	1	51	1
2095.5348	1	10	n/a	n/a	1	51	2
2096.6014	1	10	n/a	n/a	1	51	3
2097.6346	1	10	n/a	n/a	1	51	4
2098.8012	1	10	n/a	n/a	1	51	5
2100.0846	1	10	n/a	n/a	1	51	6
2112.5802	1	81	n/a	n/a	1	0	0
2112.7802	1	81	n/a	n/a	1	0	0
2112.9802	1	81	n/a	n/a	1	0	0
2113.1802	1	81	n/a	n/a	1	0	0
2113.3802	1	81	n/a	n/a	1	0	0
2113.5802	1	81	n/a	n/a	1	0	0
2113.7802	1	81	n/a	n/a	1	0	0
2113.9802	1	81	n/a	n/a	1	0	0
2114.1802	1	81	n/a	n/a	1	0	0
2114.3802	1	81	n/a	n/a	1	0	0
2115.7836	1	10	n/a	n/a	1	50	1
2116.8336	1	10	n/a	n/a	1	50	2
2118.0334	1	10	n/a	n/a	1	50	3
2119.2	1	10	n/a	n/a	1	50	4
2120.2334	1	10	n/a	n/a	1	50	5
2121.45	1	10	n/a	n/a	1	50	6
2122.5998	1	10	n/a	n/a	1	50	7
2123.7498	1	21	n/a	n/a	1	50	0
2124.7998	1	10	n/a	n/a	1	50	1
2125.8496	1	10	n/a	n/a	1	50	2
2126.983	1	10	n/a	n/a	1	50	3
2128.1162	1	21	n/a	n/a	1	50	0
2129.4162	1	10	n/a	n/a	1	50	1
2130.5994	1	10	n/a	n/a	1	50	2
2131.666	1	10	n/a	n/a	1	50	3
2132.7326	1	21	n/a	n/a	1	50	0
2133.8492	1	10	n/a	n/a	1	50	1
2134.8824	1	10	n/a	n/a	1	50	2
2135.999	1	10	n/a	n/a	1	50	3
2137.099	1	10	n/a	n/a	1	50	4
2138.2114	1	81	n/a	n/a	1	0	0
2138.4114	1	81	n/a	n/a	1	0	0
2138.6114	1	81	n/a	n/a	1	0	0
2138.8114	1	81	n/a	n/a	1	0	0
2139.0114	1	81	n/a	n/a	1	0	0
2139.2114	1	81	n/a	n/a	1	0	0
2139.4114	1	81	n/a	n/a	1	0	0
2139.6114	1	81	n/a	n/a	1	0	0
2139.8114	1	81	n/a	n/a	1	0	0
2140.0114	1	81	n/a	n/a	1	0	0
2141.2488	1	10	n/a	n/a	1	50	1
2142.4654	1	10	n/a	n/a	1	50	2
2143.6152	1	10	n/a	n/a	1	50	3
2144.7818	1	10	n/a	n/a	1	50	4
2145.9484	1	10	n/a	n/a	1	50	5
2147.1484	1	10	n/a	n/a	1	50	6
2148.365	1	10	n/a	n/a	1	50	7
2149.5816	1	21	n/a	n/a	1	50	0
2150.8148	1	10	n/a	n/a	1	50	1
2151.8814	1	10	n/a	n/a	1	50	2
2153.048	1	10	n/a	n/a	1	50	3
2154.248	1	10	n/a	n/a	1	50	4
2155.3312	1	10	n/a	n/a	1	50	5
2156.4146	1	21	n/a	n/a	1	50	0
2157.4478	1	10	n/a	n/a	1	50	1
2158.6478	1	10	n/a	n/a	1	50	2
2159.8144	1	10	n/a	n/a	1	50	3
2160.9476	1	10	n/a	n/a	1	50	4
2162.2642	1	10	n/a	n/a	1	50	5
2163.514	1	10	n/a	n/a	1	50	6
2164.3888	1	81	n/a	n/a	1	0	0
2164.5888	1	81	n/a	n/a	1	0	0
2164.7888	1	81	n/a	n/a	1	0	0
2164.9888	1	81	n/a	n/a	1	0	0
2165.1888	1	81	n/a	n/a	1	0	0
2165.3888	1	81	n/a	n/a	1	0	0
2165.5888	1	81	n/a	n/a	1	0	0
2165.7888	1	81	n/a	n/a	1	0	0
2165.9888	1	81	n/a	n/a	1	0	0
2166.1888	1	81	n/a	n/a	1	0	0
2167.4972	1	10	n/a	n/a	1	50	1
2168.7138	1	21	n/a	n/a	1	50	0
2169.947	1	10	n/a	n/a	1	50	1
2170.997	1	10	n/a	n/a	1	50	2
2172.247	1	10	n/a	n/a	1	50	3
2173.4302	1	10	n/a	n/a	1	50	4
2174.6134	1	10	n/a	n/a	1	50	5
2175.7634	1	10	n/a	n/a	1	50	6
2176.8466	1	10	n/a	n/a	1	50	7
2177.93	1	21	n/a	n/a	1	50	0
2179.2464	1	10	n/a	n/a	1	50	1
2180.4464	1	10	n/a	n/a	1	50	2
2181.513	1	10	n/a	n/a	1	50	3
2182.5796	1	21	n/a	n/a	1	50	0
2183.6796	1	10	n/a	n/a	1	50	1
2184.8794	1	10	n/a	n/a	1	50	2
2186.0128	1	10	n/a	n/a	1	50	3
2187.196	1	10	n/a	n/a	1	50	4
2188.5126	1	10	n/a	n/a	1	50	5
2189.8292	1	21	n/a	n/a	1	50	0
2190.6648	1	81	n/a	n/a	1	0	0
2190.8648	1	81	n/a	n/a	1	0	0
2191.0648	1	81	n/a	n/a	1	0	0
2191.2648	1	81	n/a	n/a	1	0	0
2191.4648	1	81	n/a	n/a	1	0	0
2191.6648	1	81	n/a	n/a	1	0	0
2191.8648	1	81	n/a	n/a	1	0	0
2192.0648	1	81	n/a	n/a	1	0	0
2192.2648	1	81	n/a	n/a	1	0	0
2192.4648	1	81	n/a	n/a	1	0	0
2193.7456	1	10	n/a	n/a	1	50	1
2195.0788	1	10	n/a	n/a	1	50	2
2196.3954	1	10	n/a	n/a	1	50	3
2197.712	1	21	n/a	n/a	1	50	0
2199.012	1	10	n/a	n/a	1	50	1
2200.1786	1	10	n/a	n/a	1	50	2
2201.4952	1	10	n/a	n/a	1	50	3
2202.7118	1	10	n/a	n/a	1	50	4
2203.895	1	10	n/a	n/a	1	50	5
2205.0782	1	21	n/a	n/a	1	50	0
2206.3282	1	10	n/a	n/a	1	50	1
2207.5114	1	10	n/a	n/a	1	50	2
2208.7948	1	10	n/a	n/a	1	50	3
2210.078	1	21	n/a	n/a	1	50	0
2211.3112	1	10	n/a	n/a	1	50	1
2212.4278	1	10	n/a	n/a	1	50	2
2213.4778	1	10	n/a	n/a	1	50	3
2214.5278	1	21	n/a	n/a	1	50	0
2215.6944	1	10	n/a	n/a	1	50	1
2216.861	1	21	n/a	n/a	1	50	0
2217.7806	1	81	n/a	n/a	1	0	0
2217.9806	1	81	n/a	n/a	1	0	0
2218.1806	1	81	n/a	n/a	1	0	0
2218.3806	1	81	n/a	n/a	1	0	0
2218.5806	1	81	n/a	n/a	1	0	0
2218.7806	1	81	n/a	n/a	1	0	0
2218.9806	1	81	n/a	n/a	1	0	0
2219.1806	1	81	n/a	n/a	1	0	0
2219.3806	1	81	n/a	n/a	1	0	0
2219.5806	1	81	n/a	n/a	1	0	0
2220.744	1	10	n/a	n/a	1	50	1
2221.8606	1	10	n/a	n/a	1	50	2
2223.0772	1	10	n/a	n/a	1	50	3
2224.1772	1	10	n/a	n/a	1	50	4
2225.4104	1	10	n/a	n/a	1	50	5
2226.6436	1	21	n/a	n/a	1	50	0
2227.727	1	10	n/a	n/a	1	50	1
2228.9768	1	10	n/a	n/a	1	50	2
2230.2934	1	10	n/a	n/a	1	50	3
2231.61	1	21	n/a	n/a	1	50	0
2232.91	1	10	n/a	n/a	1	50	1
2234.0766	1	10	n/a	n/a	1	50	2
2235.2764	1	10	n/a	n/a	1	50	3
2236.4764	1	21	n/a	n/a	1	50	0
2237.6764	1	10	n/a	n/a	1	50	1
2238.8762	1	21	n/a	n/a	1	50	0
2240.0262	1	10	n/a	n/a	1	50	1
2241.2762	1	10	n/a	n/a	1	50	2
2242.5594	1	10	n/a	n/a	1	50	3
2243.8426	1	21	n/a	n/a	1	50	0
2275.5258	1	82	n/a	n/a	1	0	0
2275.7928	1	82	n/a	n/a	1	0	0
2275.8858	1	82	n/a	n/a	1	0	0
2276.0448	1	82	n/a	n/a	1	0	0
2276.1628	1	82	n/a	n/a	1	0	0
2276.526	1	82	n/a	n/a	1	0	0
2276.898	1	82	n/a	n/a	1	0	0
2277.046	1	82	n/a	n/a	1	0	0
2277.225	1	82	n/a	n/a	1	0	0
2277.34	1	82	n/a	n/a	1	0	0
2278.474	1	10	n/a	n/a	1	52	1
2279.5238	1	21	n/a	n/a	1	52	0
2280.6404	1	10	n/a	n/a	1	52	1
2281.7238	1	10	n/a	n/a	1	52	2
2282.9236	1	10	n/a	n/a	1	52	3
2284.1236	1	21	n/a	n/a	1	52	0
2285.4236	1	10	n/a	n/a	1	52	1
2286.6568	1	10	n/a	n/a	1	52	2
2287.89	1	10	n/a	n/a	1	52	3
2289.0566	1	10	n/a	n/a	1	52	4
2290.09	1	10	n/a	n/a	1	52	5
2291.1232	1	21	n/a	n/a	1	52	0
2292.2064	1	10	n/a	n/a	1	52	1
2293.2898	1	21	n/a	n/a	1	52	0
2294.4064	1	10	n/a	n/a	1	52	1
2295.523	1	21	n/a	n/a	1	52	0
2296.6396	1	10	n/a	n/a	1	52	1
2297.8728	1	10	n/a	n/a	1	52	2
2299.1228	1	10	n/a	n/a	1	52	3
2300.3726	1	21	n/a	n/a	1	52	0
2301.3532	1	82	n/a	n/a	1	0	0
2301.4162	1	82	n/a	n/a	1	0	0
2301.8522	1	82	n/a	n/a	1	0	0
2302.0372	1	82	n/a	n/a	1	0	0
2302.2942	1	82	n/a	n/a	1	0	0
2302.3532	1	82	n/a	n/a	1	0	0
2302.6572	1	82	n/a	n/a	1	0	0
2302.7402	1	82	n/a	n/a	1	0	0
2303.1142	1	82	n/a	n/a	1	0	0
2303.2202	1	82	n/a	n/a	1	0	0
2304.3724	1	10	n/a	n/a	1	52	1
2305.589	1	10	n/a	n/a	1	52	2
2306.689	1	10	n/a	n/a	1	52	3
2307.8888	1	10	n/a	n/a	1	52	4
2308.9222	1	10	n/a	n/a	1	52	5
2309.9554	1	21	n/a	n/a	1	52	0
2311.2386	1	10	n/a	n/a	1	52	1
2312.4886	1	10	n/a	n/a	1	52	2
2313.6886	1	10	n/a	n/a	1	52	3
2315.005	1	10	n/a	n/a	1	52	4
2316.155	1	10	n/a	n/a	1	52	5
2317.355	1	10	n/a	n/a	1	52	6
2318.5548	1	10	n/a	n/a	1	52	7
2319.7548	1	21	n/a	n/a	1	52	0
2320.8714	1	10	n/a	n/a	1	52	1
2321.988	1	21	n/a	n/a	1	52	0
2323.238	1	10	n/a	n/a	1	52	1
2324.5212	1	10	n/a	n/a	1	52	2
2325.5712	1	10	n/a	n/a	1	52	3
2326.621	1	21	n/a	n/a	1	52	0
2327.5928	1	82	n/a	n/a	1	0	0
2327.6148	1	82	n/a	n/a	1	0	0
2327.8988	1	82	n/a	n/a	1	0	0
2327.9538	1	82	n/a	n/a	1	0	0
2328.3388	1	82	n/a	n/a	1	0	0
2328.5928	1	82	n/a	n/a	1	0	0
2328.6178	1	82	n/a	n/a	1	0	0
2328.9888	1	82	n/a	n/a	1	0	0
2329.1578	1	82	n/a	n/a	1	0	0
2329.2918	1	82	n/a	n/a	1	0	0
2330.6542	1	10	n/a	n/a	1	52	1
2331.804	1	10	n/a	n/a	1	52	2
2332.8874	1	10	n/a	n/a	1	52	3
2333.9872	1	10	n/a	n/a	1	52	4
2335.0538	1	10	n/a	n/a	1	52	5
2336.1204	1	21	n/a	n/a	1	52	0
2337.2204	1	10	n/a	n/a	1	52	1
2338.437	1	10	n/a	n/a	1	52	2
2339.6036	1	10	n/a	n/a	1	52	3
2340.7702	1	21	n/a	n/a	1	52	0
2342.0702	1	10	n/a	n/a	1	52	1
2343.12	1	10	n/a	n/a	1	52	2
2344.2366	1	10	n/a	n/a	1	52	3
2345.52	1	10	n/a	n/a	1	52	4
2346.6532	1	10	n/a	n/a	1	52	5
2347.7864	1	21	n/a	n/a	1	52	0
2348.953	1	10	n/a	n/a	1	52	1
2350.1196	1	21	n/a	n/a	1	52	0
2351.253	1	10	n/a	n/a	1	52	1
2352.3528	1	10	n/a	n/a	1	52	2
2353.3366	1	82	n/a	n/a	1	0	0
2353.6906	1	82	n/a	n/a	1	0	0
2353.7536	1	82	n/a	n/a	1	0	0
2353.8676	1	82	n/a	n/a	1	0	0
2354.1786	1	82	n/a	n/a	1	0	0
2354.3366	1	82	n/a	n/a	1	0	0
2354.7356	1	82	n/a	n/a	1	0	0
2355.0066	1	82	n/a	n/a	1	0	0
2355.1426	1	82	n/a	n/a	1	0	0
2355.2366	1	82	n/a	n/a	1	0	0
2356.4692	1	10	n/a	n/a	1	52	1
2357.5692	1	10	n/a	n/a	1	52	2
2358.7524	1	10	n/a	n/a	1	52	3
2359.9358	1	21	n/a	n/a	1	52	0
2360.9856	1	10	n/a	n/a	1	52	1
2362.0356	1	21	n/a	n/a	1	52	0
2363.0688	1	10	n/a	n/a	1	52	1
2364.2354	1	10	n/a	n/a	1	52	2
2365.5188	1	10	n/a	n/a	1	52	3
2366.6854	1	10	n/a	n/a	1	52	4
2367.9686	1	10	n/a	n/a	1	52	5
2369.2518	1	21	n/a	n/a	1	52	0
2370.5352	1	10	n/a	n/a	1	52	1
2371.685	1	10	n/a	n/a	1	52	2
2372.735	1	10	n/a	n/a	1	52	3
2373.9516	1	10	n/a	n/a	1	52	4
2375.1516	1	10	n/a	n/a	1	52	5
2376.3514	1	21	n/a	n/a	1	52	0
2377.4514	1	10	n/a	n/a	1	52	1
2378.718	1	10	n/a	n/a	1	52	2
2379.4496	1	82	n/a	n/a	1	0	0
2379.7336	1	82	n/a	n/a	1	0	0
2379.9826	1	82	n/a	n/a	1	0	0
2380.0956	1	82	n/a	n/a	1	0	0
2380.1686	1	82	n/a	n/a	1	0	0
2380.4496	1	82	n/a	n/a	1	0	0
2380.4726	1	82	n/a	n/a	1	0	0
2380.5296	1	82	n/a	n/a	1	0	0
2380.7376	1	82	n/a	n/a	1	0	0
2380.9116	1	82	n/a	n/a	1	0	0
2382.451	1	10	n/a	n/a	1	52	1
2383.7176	1	10	n/a	n/a	1	52	2
2384.8842	1	10	n/a	n/a	1	52	3
2386.1342	1	10	n/a	n/a	1	52	4
2387.3008	1	10	n/a	n/a	1	52	5
2388.4674	1	21	n/a	n/a	1	52	0
2389.734	1	10	n/a	n/a	1	52	1
2391.0006	1	10	n/a	n/a	1	52	2
2392.1506	1	10	n/a	n/a	1	52	3
2393.417	1	10	n/a	n/a	1	52	4
2394.617	1	10	n/a	n/a	1	52	5
2395.7002	1	10	n/a	n/a	1	52	6
2396.9668	1	10	n/a	n/a	1	52	7
2398.2334	1	21	n/a	n/a	1	52	0
2399.3168	1	10	n/a	n/a	1	52	1
2400.3834	1	10	n/a	n/a	1	52	2
2401.5166	1	10	n/a	n/a	1	52	3
2402.5998	1	10	n/a	n/a	1	52	4
2403.7998	1	10	n/a	n/a	1	52	5
2404.9998	1	21	n/a	n/a	1	52	0
