onset	duration	value	response	rt	good	TMS	seq
66.2822	1	81	n/a	n/a	1	0	0
66.4822	1	81	n/a	n/a	1	0	0
66.6822	1	81	n/a	n/a	1	0	0
66.8822	1	81	n/a	n/a	1	0	0
67.0822	1	81	n/a	n/a	1	0	0
67.2822	1	81	n/a	n/a	1	0	0
67.4822	1	81	n/a	n/a	1	0	0
67.6822	1	81	n/a	n/a	1	0	0
67.8822	1	81	n/a	n/a	1	0	0
68.0822	1	81	n/a	n/a	1	0	0
69.4086	1	10	n/a	n/a	1	51	1
70.6418	1	21	n/a	n/a	1	51	0
71.7584	1	10	n/a	n/a	1	51	1
72.9916	1	10	n/a	n/a	1	51	2
74.0916	1	10	n/a	n/a	1	51	3
75.2748	1	10	n/a	n/a	1	51	4
76.4414	1	10	n/a	n/a	1	51	5
77.608	1	21	n/a	n/a	1	51	0
78.758	1	10	n/a	n/a	1	51	1
79.9078	1	21	n/a	n/a	1	51	0
81.1912	1	10	n/a	n/a	1	51	1
82.441	1	10	n/a	n/a	1	51	2
83.5576	1	10	n/a	n/a	1	51	3
84.6742	1	21	n/a	n/a	1	51	0
85.9742	1	10	n/a	n/a	1	51	1
87.2742	1	21	n/a	n/a	1	51	0
88.5074	1	10	n/a	n/a	1	51	1
89.5574	1	10	n/a	n/a	1	51	2
90.6572	1	10	n/a	n/a	1	51	3
91.7072	1	10	n/a	n/a	1	51	4
92.5856	1	81	n/a	n/a	1	0	0
92.7856	1	81	n/a	n/a	1	0	0
92.9856	1	81	n/a	n/a	1	0	0
93.1856	1	81	n/a	n/a	1	0	0
93.3856	1	81	n/a	n/a	1	0	0
93.5856	1	81	n/a	n/a	1	0	0
93.7856	1	81	n/a	n/a	1	0	0
93.9856	1	81	n/a	n/a	1	0	0
94.1856	1	81	n/a	n/a	1	0	0
94.3856	1	81	n/a	n/a	1	0	0
95.7736	1	10	n/a	n/a	1	51	1
97.0736	1	21	n/a	n/a	1	51	0
98.1234	1	10	n/a	n/a	1	51	1
99.1734	1	21	n/a	n/a	1	51	0
100.2566	1	10	n/a	n/a	1	51	1
101.4566	1	10	n/a	n/a	1	51	2
102.7232	1	10	n/a	n/a	1	51	3
103.9898	1	21	n/a	n/a	1	51	0
105.1564	1	10	n/a	n/a	1	51	1
106.2896	1	10	n/a	n/a	1	51	2
107.3896	1	10	n/a	n/a	1	51	3
108.6228	1	10	n/a	n/a	1	51	4
109.8562	1	10	n/a	n/a	1	51	5
111.0728	1	10	n/a	n/a	1	51	6
112.106	1	10	n/a	n/a	1	51	7
113.1392	1	21	n/a	n/a	1	51	0
114.2726	1	10	n/a	n/a	1	51	1
115.4224	1	10	n/a	n/a	1	51	2
116.7058	1	10	n/a	n/a	1	51	3
117.9056	1	10	n/a	n/a	1	51	4
118.626	1	81	n/a	n/a	1	0	0
118.826	1	81	n/a	n/a	1	0	0
119.026	1	81	n/a	n/a	1	0	0
119.226	1	81	n/a	n/a	1	0	0
119.426	1	81	n/a	n/a	1	0	0
119.626	1	81	n/a	n/a	1	0	0
119.826	1	81	n/a	n/a	1	0	0
120.026	1	81	n/a	n/a	1	0	0
120.226	1	81	n/a	n/a	1	0	0
120.426	1	81	n/a	n/a	1	0	0
121.822	1	10	n/a	n/a	1	51	1
123.022	1	10	n/a	n/a	1	51	2
124.1052	1	10	n/a	n/a	1	51	3
125.1886	1	21	n/a	n/a	1	51	0
126.4718	1	10	n/a	n/a	1	51	1
127.6218	1	10	n/a	n/a	1	51	2
128.7384	1	10	n/a	n/a	1	51	3
129.9716	1	10	n/a	n/a	1	51	4
131.1882	1	10	n/a	n/a	1	51	5
132.2214	1	10	n/a	n/a	1	51	6
133.3714	1	10	n/a	n/a	1	51	7
134.5214	1	21	n/a	n/a	1	51	0
135.8212	1	10	n/a	n/a	1	51	1
136.8878	1	10	n/a	n/a	1	51	2
138.1712	1	10	n/a	n/a	1	51	3
139.4544	1	21	n/a	n/a	1	51	0
140.6376	1	10	n/a	n/a	1	51	1
141.721	1	10	n/a	n/a	1	51	2
143.0042	1	10	n/a	n/a	1	51	3
144.2874	1	10	n/a	n/a	1	51	4
145.4048	1	81	n/a	n/a	1	0	0
145.6048	1	81	n/a	n/a	1	0	0
145.8048	1	81	n/a	n/a	1	0	0
146.0048	1	81	n/a	n/a	1	0	0
146.2048	1	81	n/a	n/a	1	0	0
146.4048	1	81	n/a	n/a	1	0	0
146.6048	1	81	n/a	n/a	1	0	0
146.8048	1	81	n/a	n/a	1	0	0
147.0048	1	81	n/a	n/a	1	0	0
147.2048	1	81	n/a	n/a	1	0	0
148.4706	1	10	n/a	n/a	1	51	1
149.6372	1	21	n/a	n/a	1	51	0
150.8538	1	10	n/a	n/a	1	51	1
152.1202	1	10	n/a	n/a	1	51	2
153.3202	1	10	n/a	n/a	1	51	3
154.5202	1	21	n/a	n/a	1	51	0
155.8368	1	10	n/a	n/a	1	51	1
156.87	1	10	n/a	n/a	1	51	2
158.12	1	10	n/a	n/a	1	51	3
159.3032	1	10	n/a	n/a	1	51	4
160.3364	1	10	n/a	n/a	1	51	5
161.3698	1	21	n/a	n/a	1	51	0
162.6196	1	10	n/a	n/a	1	51	1
163.8362	1	10	n/a	n/a	1	51	2
165.0196	1	10	n/a	n/a	1	51	3
166.2694	1	10	n/a	n/a	1	51	4
167.3028	1	10	n/a	n/a	1	51	5
168.4026	1	10	n/a	n/a	1	51	6
169.5192	1	10	n/a	n/a	1	51	7
170.6358	1	21	n/a	n/a	1	51	0
171.4746	1	81	n/a	n/a	1	0	0
171.6746	1	81	n/a	n/a	1	0	0
171.8746	1	81	n/a	n/a	1	0	0
172.0746	1	81	n/a	n/a	1	0	0
172.2746	1	81	n/a	n/a	1	0	0
172.4746	1	81	n/a	n/a	1	0	0
172.6746	1	81	n/a	n/a	1	0	0
172.8746	1	81	n/a	n/a	1	0	0
173.0746	1	81	n/a	n/a	1	0	0
173.2746	1	81	n/a	n/a	1	0	0
174.669	1	10	n/a	n/a	1	51	1
175.7688	1	10	n/a	n/a	1	51	2
177.0354	1	10	n/a	n/a	1	51	3
178.2188	1	10	n/a	n/a	1	51	4
179.3686	1	10	n/a	n/a	1	51	5
180.5686	1	10	n/a	n/a	1	51	6
181.7852	1	10	n/a	n/a	1	51	7
183.0018	1	21	n/a	n/a	1	51	0
184.1518	1	10	n/a	n/a	1	51	1
185.4516	1	10	n/a	n/a	1	51	2
186.7682	1	10	n/a	n/a	1	51	3
188.0182	1	10	n/a	n/a	1	51	4
189.2348	1	10	n/a	n/a	1	51	5
190.4514	1	21	n/a	n/a	1	51	0
191.7346	1	10	n/a	n/a	1	51	1
192.9846	1	10	n/a	n/a	1	51	2
194.2512	1	10	n/a	n/a	1	51	3
195.4344	1	10	n/a	n/a	1	51	4
196.5344	1	10	n/a	n/a	1	51	5
197.6342	1	21	n/a	n/a	1	51	0
213.6888	1	82	n/a	n/a	1	0	0
213.8258	1	82	n/a	n/a	1	0	0
213.8508	1	82	n/a	n/a	1	0	0
214.2138	1	82	n/a	n/a	1	0	0
214.2618	1	82	n/a	n/a	1	0	0
214.6888	1	82	n/a	n/a	1	0	0
214.9278	1	82	n/a	n/a	1	0	0
215.0368	1	82	n/a	n/a	1	0	0
215.1908	1	82	n/a	n/a	1	0	0
215.6218	1	82	n/a	n/a	1	0	0
216.8498	1	10	n/a	n/a	1	50	1
218.0664	1	10	n/a	n/a	1	50	2
219.1664	1	10	n/a	n/a	1	50	3
220.2662	1	21	n/a	n/a	1	50	0
221.5496	1	10	n/a	n/a	1	50	1
222.8494	1	10	n/a	n/a	1	50	2
224.066	1	10	n/a	n/a	1	50	3
225.316	1	10	n/a	n/a	1	50	4
226.416	1	10	n/a	n/a	1	50	5
227.5158	1	21	n/a	n/a	1	50	0
228.6492	1	10	n/a	n/a	1	50	1
229.8824	1	10	n/a	n/a	1	50	2
231.099	1	10	n/a	n/a	1	50	3
232.2988	1	10	n/a	n/a	1	50	4
233.4988	1	10	n/a	n/a	1	50	5
234.6988	1	21	n/a	n/a	1	50	0
235.9154	1	10	n/a	n/a	1	50	1
237.2152	1	10	n/a	n/a	1	50	2
238.4986	1	10	n/a	n/a	1	50	3
239.6818	1	10	n/a	n/a	1	50	4
240.4572	1	82	n/a	n/a	1	0	0
240.7792	1	82	n/a	n/a	1	0	0
241.0462	1	82	n/a	n/a	1	0	0
241.1032	1	82	n/a	n/a	1	0	0
241.2542	1	82	n/a	n/a	1	0	0
241.4572	1	82	n/a	n/a	1	0	0
241.6342	1	82	n/a	n/a	1	0	0
241.7882	1	82	n/a	n/a	1	0	0
241.8122	1	82	n/a	n/a	1	0	0
242.0962	1	82	n/a	n/a	1	0	0
243.6482	1	10	n/a	n/a	1	50	1
244.8982	1	10	n/a	n/a	1	50	2
246.198	1	10	n/a	n/a	1	50	3
247.498	1	21	n/a	n/a	1	50	0
248.798	1	10	n/a	n/a	1	50	1
250.0312	1	10	n/a	n/a	1	50	2
251.2144	1	10	n/a	n/a	1	50	3
252.4644	1	10	n/a	n/a	1	50	4
253.5644	1	10	n/a	n/a	1	50	5
254.6642	1	21	n/a	n/a	1	50	0
255.9142	1	10	n/a	n/a	1	50	1
257.2308	1	10	n/a	n/a	1	50	2
258.514	1	10	n/a	n/a	1	50	3
259.714	1	10	n/a	n/a	1	50	4
260.9306	1	10	n/a	n/a	1	50	5
262.1472	1	21	n/a	n/a	1	50	0
263.2638	1	10	n/a	n/a	1	50	1
264.3136	1	10	n/a	n/a	1	50	2
265.347	1	10	n/a	n/a	1	50	3
266.6636	1	10	n/a	n/a	1	50	4
267.736	1	82	n/a	n/a	1	0	0
268.072	1	82	n/a	n/a	1	0	0
268.439	1	82	n/a	n/a	1	0	0
268.477	1	82	n/a	n/a	1	0	0
268.601	1	82	n/a	n/a	1	0	0
268.7362	1	82	n/a	n/a	1	0	0
269.0632	1	82	n/a	n/a	1	0	0
269.4482	1	82	n/a	n/a	1	0	0
269.6542	1	82	n/a	n/a	1	0	0
269.6882	1	82	n/a	n/a	1	0	0
270.68	1	10	n/a	n/a	1	50	1
271.9966	1	10	n/a	n/a	1	50	2
273.2964	1	10	n/a	n/a	1	50	3
274.363	1	10	n/a	n/a	1	50	4
275.413	1	10	n/a	n/a	1	50	5
276.463	1	21	n/a	n/a	1	50	0
277.7296	1	10	n/a	n/a	1	50	1
278.9962	1	21	n/a	n/a	1	50	0
280.1628	1	10	n/a	n/a	1	50	1
281.3294	1	21	n/a	n/a	1	50	0
282.6292	1	10	n/a	n/a	1	50	1
283.7126	1	10	n/a	n/a	1	50	2
284.7458	1	10	n/a	n/a	1	50	3
285.779	1	21	n/a	n/a	1	50	0
287.079	1	10	n/a	n/a	1	50	1
288.379	1	21	n/a	n/a	1	50	0
289.6956	1	10	n/a	n/a	1	50	1
290.7954	1	10	n/a	n/a	1	50	2
291.9454	1	10	n/a	n/a	1	50	3
293.262	1	10	n/a	n/a	1	50	4
294.0194	1	82	n/a	n/a	1	0	0
294.1064	1	82	n/a	n/a	1	0	0
294.5244	1	82	n/a	n/a	1	0	0
294.5854	1	82	n/a	n/a	1	0	0
294.7084	1	82	n/a	n/a	1	0	0
295.0194	1	82	n/a	n/a	1	0	0
295.1954	1	82	n/a	n/a	1	0	0
295.3424	1	82	n/a	n/a	1	0	0
295.4344	1	82	n/a	n/a	1	0	0
295.7404	1	82	n/a	n/a	1	0	0
297.095	1	10	n/a	n/a	1	50	1
298.395	1	10	n/a	n/a	1	50	2
299.5782	1	10	n/a	n/a	1	50	3
300.7616	1	21	n/a	n/a	1	50	0
301.9782	1	10	n/a	n/a	1	50	1
303.1948	1	21	n/a	n/a	1	50	0
304.328	1	10	n/a	n/a	1	50	1
305.6112	1	10	n/a	n/a	1	50	2
306.7444	1	10	n/a	n/a	1	50	3
307.911	1	10	n/a	n/a	1	50	4
309.0276	1	10	n/a	n/a	1	50	5
310.211	1	10	n/a	n/a	1	50	6
311.4608	1	10	n/a	n/a	1	50	7
312.7108	1	21	n/a	n/a	1	50	0
313.944	1	10	n/a	n/a	1	50	1
315.1606	1	10	n/a	n/a	1	50	2
316.444	1	10	n/a	n/a	1	50	3
317.7606	1	10	n/a	n/a	1	50	4
318.9938	1	10	n/a	n/a	1	50	5
320.1938	1	10	n/a	n/a	1	50	6
321.0062	1	82	n/a	n/a	1	0	0
321.3572	1	82	n/a	n/a	1	0	0
321.5982	1	82	n/a	n/a	1	0	0
321.6822	1	82	n/a	n/a	1	0	0
321.7312	1	82	n/a	n/a	1	0	0
322.0062	1	82	n/a	n/a	1	0	0
322.3652	1	82	n/a	n/a	1	0	0
322.6512	1	82	n/a	n/a	1	0	0
322.9162	1	82	n/a	n/a	1	0	0
322.9482	1	82	n/a	n/a	1	0	0
324.0102	1	10	n/a	n/a	1	50	1
325.1434	1	10	n/a	n/a	1	50	2
326.4266	1	10	n/a	n/a	1	50	3
327.6432	1	10	n/a	n/a	1	50	4
328.7598	1	10	n/a	n/a	1	50	5
329.8932	1	10	n/a	n/a	1	50	6
331.0098	1	10	n/a	n/a	1	50	7
332.1264	1	21	n/a	n/a	1	50	0
333.3762	1	10	n/a	n/a	1	50	1
334.5096	1	10	n/a	n/a	1	50	2
335.7594	1	10	n/a	n/a	1	50	3
337.0094	1	21	n/a	n/a	1	50	0
338.126	1	10	n/a	n/a	1	50	1
339.176	1	10	n/a	n/a	1	50	2
340.2926	1	10	n/a	n/a	1	50	3
341.5424	1	10	n/a	n/a	1	50	4
342.6924	1	10	n/a	n/a	1	50	5
343.8256	1	10	n/a	n/a	1	50	6
345.059	1	10	n/a	n/a	1	50	7
346.2922	1	21	n/a	n/a	1	50	0
385.0396	1	82	n/a	n/a	1	0	0
385.4086	1	82	n/a	n/a	1	0	0
385.6546	1	82	n/a	n/a	1	0	0
385.6856	1	82	n/a	n/a	1	0	0
385.8586	1	82	n/a	n/a	1	0	0
386.0396	1	82	n/a	n/a	1	0	0
386.1266	1	82	n/a	n/a	1	0	0
386.2546	1	82	n/a	n/a	1	0	0
386.4746	1	82	n/a	n/a	1	0	0
386.8856	1	82	n/a	n/a	1	0	0
388.223	1	10	n/a	n/a	1	52	1
389.5062	1	21	n/a	n/a	1	52	0
390.7562	1	10	n/a	n/a	1	52	1
391.9562	1	10	n/a	n/a	1	52	2
393.106	1	10	n/a	n/a	1	52	3
394.1726	1	10	n/a	n/a	1	52	4
395.4226	1	10	n/a	n/a	1	52	5
396.6726	1	21	n/a	n/a	1	52	0
397.7058	1	10	n/a	n/a	1	52	1
398.739	1	21	n/a	n/a	1	52	0
399.8056	1	10	n/a	n/a	1	52	1
401.0222	1	10	n/a	n/a	1	52	2
402.2888	1	10	n/a	n/a	1	52	3
403.5554	1	21	n/a	n/a	1	52	0
404.7388	1	10	n/a	n/a	1	52	1
405.922	1	21	n/a	n/a	1	52	0
407.2052	1	10	n/a	n/a	1	52	1
408.2718	1	10	n/a	n/a	1	52	2
409.5884	1	10	n/a	n/a	1	52	3
410.6716	1	10	n/a	n/a	1	52	4
411.6662	1	82	n/a	n/a	1	0	0
411.7952	1	82	n/a	n/a	1	0	0
411.8592	1	82	n/a	n/a	1	0	0
412.0652	1	82	n/a	n/a	1	0	0
412.5052	1	82	n/a	n/a	1	0	0
412.6662	1	82	n/a	n/a	1	0	0
412.6912	1	82	n/a	n/a	1	0	0
412.9332	1	82	n/a	n/a	1	0	0
413.1972	1	82	n/a	n/a	1	0	0
413.3742	1	82	n/a	n/a	1	0	0
414.7048	1	10	n/a	n/a	1	52	1
415.8548	1	21	n/a	n/a	1	52	0
417.088	1	10	n/a	n/a	1	52	1
418.238	1	10	n/a	n/a	1	52	2
419.4378	1	10	n/a	n/a	1	52	3
420.6044	1	10	n/a	n/a	1	52	4
421.921	1	10	n/a	n/a	1	52	5
423.2376	1	21	n/a	n/a	1	52	0
424.4876	1	10	n/a	n/a	1	52	1
425.6874	1	10	n/a	n/a	1	52	2
427.004	1	10	n/a	n/a	1	52	3
428.2374	1	10	n/a	n/a	1	52	4
429.3872	1	10	n/a	n/a	1	52	5
430.5372	1	21	n/a	n/a	1	52	0
431.8038	1	10	n/a	n/a	1	52	1
432.9038	1	10	n/a	n/a	1	52	2
434.1036	1	10	n/a	n/a	1	52	3
435.2702	1	10	n/a	n/a	1	52	4
436.4036	1	10	n/a	n/a	1	52	5
437.5702	1	10	n/a	n/a	1	52	6
438.5416	1	82	n/a	n/a	1	0	0
438.7136	1	82	n/a	n/a	1	0	0
439.1276	1	82	n/a	n/a	1	0	0
439.1916	1	82	n/a	n/a	1	0	0
439.4926	1	82	n/a	n/a	1	0	0
439.5416	1	82	n/a	n/a	1	0	0
439.5696	1	82	n/a	n/a	1	0	0
439.8746	1	82	n/a	n/a	1	0	0
439.9656	1	82	n/a	n/a	1	0	0
440.3276	1	82	n/a	n/a	1	0	0
441.6032	1	10	n/a	n/a	1	52	1
442.6532	1	10	n/a	n/a	1	52	2
443.7198	1	10	n/a	n/a	1	52	3
444.853	1	10	n/a	n/a	1	52	4
446.0362	1	10	n/a	n/a	1	52	5
447.3528	1	10	n/a	n/a	1	52	6
448.4862	1	10	n/a	n/a	1	52	7
449.6194	1	21	n/a	n/a	1	52	0
450.7694	1	10	n/a	n/a	1	52	1
451.836	1	10	n/a	n/a	1	52	2
452.9192	1	10	n/a	n/a	1	52	3
454.1524	1	10	n/a	n/a	1	52	4
455.319	1	10	n/a	n/a	1	52	5
456.469	1	10	n/a	n/a	1	52	6
457.6356	1	10	n/a	n/a	1	52	7
458.8022	1	21	n/a	n/a	1	52	0
459.9188	1	10	n/a	n/a	1	52	1
461.0688	1	10	n/a	n/a	1	52	2
462.302	1	10	n/a	n/a	1	52	3
463.5352	1	21	n/a	n/a	1	52	0
464.585	1	82	n/a	n/a	1	0	0
464.873	1	82	n/a	n/a	1	0	0
465.11	1	82	n/a	n/a	1	0	0
465.373	1	82	n/a	n/a	1	0	0
465.504	1	82	n/a	n/a	1	0	0
465.585	1	82	n/a	n/a	1	0	0
465.683	1	82	n/a	n/a	1	0	0
466.069	1	82	n/a	n/a	1	0	0
466.127	1	82	n/a	n/a	1	0	0
466.544	1	82	n/a	n/a	1	0	0
467.735	1	10	n/a	n/a	1	52	1
468.885	1	10	n/a	n/a	1	52	2
470.0516	1	10	n/a	n/a	1	52	3
471.2182	1	21	n/a	n/a	1	52	0
472.3514	1	10	n/a	n/a	1	52	1
473.4346	1	10	n/a	n/a	1	52	2
474.7512	1	10	n/a	n/a	1	52	3
476.0178	1	10	n/a	n/a	1	52	4
477.1844	1	10	n/a	n/a	1	52	5
478.4844	1	10	n/a	n/a	1	52	6
479.6842	1	10	n/a	n/a	1	52	7
480.8842	1	21	n/a	n/a	1	52	0
481.9674	1	10	n/a	n/a	1	52	1
483.034	1	10	n/a	n/a	1	52	2
484.1506	1	10	n/a	n/a	1	52	3
485.2672	1	21	n/a	n/a	1	52	0
486.4172	1	10	n/a	n/a	1	52	1
487.5338	1	10	n/a	n/a	1	52	2
488.7004	1	10	n/a	n/a	1	52	3
489.9336	1	10	n/a	n/a	1	52	4
490.9742	1	82	n/a	n/a	1	0	0
491.0902	1	82	n/a	n/a	1	0	0
491.4412	1	82	n/a	n/a	1	0	0
491.6762	1	82	n/a	n/a	1	0	0
491.7572	1	82	n/a	n/a	1	0	0
491.9742	1	82	n/a	n/a	1	0	0
492.2112	1	82	n/a	n/a	1	0	0
492.2322	1	82	n/a	n/a	1	0	0
492.6532	1	82	n/a	n/a	1	0	0
492.7822	1	82	n/a	n/a	1	0	0
494.0502	1	10	n/a	n/a	1	52	1
495.2334	1	21	n/a	n/a	1	52	0
496.3	1	10	n/a	n/a	1	52	1
497.5832	1	10	n/a	n/a	1	52	2
498.7332	1	10	n/a	n/a	1	52	3
499.7664	1	10	n/a	n/a	1	52	4
500.9664	1	10	n/a	n/a	1	52	5
502.1662	1	21	n/a	n/a	1	52	0
503.2662	1	10	n/a	n/a	1	52	1
504.3662	1	21	n/a	n/a	1	52	0
505.6328	1	10	n/a	n/a	1	52	1
506.8994	1	21	n/a	n/a	1	52	0
507.9992	1	10	n/a	n/a	1	52	1
509.3326	1	10	n/a	n/a	1	52	2
510.6492	1	10	n/a	n/a	1	52	3
511.7658	1	10	n/a	n/a	1	52	4
512.949	1	10	n/a	n/a	1	52	5
514.1322	1	21	n/a	n/a	1	52	0
515.2988	1	10	n/a	n/a	1	52	1
516.6154	1	10	n/a	n/a	1	52	2
615.4894	1	82	n/a	n/a	1	0	0
615.8954	1	82	n/a	n/a	1	0	0
615.9654	1	82	n/a	n/a	1	0	0
616.1494	1	82	n/a	n/a	1	0	0
616.2894	1	82	n/a	n/a	1	0	0
616.4894	1	82	n/a	n/a	1	0	0
616.8324	1	82	n/a	n/a	1	0	0
617.2634	1	82	n/a	n/a	1	0	0
617.2844	1	82	n/a	n/a	1	0	0
617.4484	1	82	n/a	n/a	1	0	0
618.676	1	10	n/a	n/a	1	52	1
619.8926	1	10	n/a	n/a	1	52	2
621.2092	1	10	n/a	n/a	1	52	3
622.4758	1	10	n/a	n/a	1	52	4
623.5758	1	10	n/a	n/a	1	52	5
624.809	1	10	n/a	n/a	1	52	6
626.109	1	10	n/a	n/a	1	52	7
627.409	1	21	n/a	n/a	1	52	0
628.5922	1	10	n/a	n/a	1	52	1
629.892	1	10	n/a	n/a	1	52	2
631.1754	1	10	n/a	n/a	1	52	3
632.3086	1	10	n/a	n/a	1	52	4
633.3586	1	10	n/a	n/a	1	52	5
634.6418	1	10	n/a	n/a	1	52	6
635.7418	1	10	n/a	n/a	1	52	7
636.8416	1	21	n/a	n/a	1	52	0
637.9416	1	10	n/a	n/a	1	52	1
639.1748	1	10	n/a	n/a	1	52	2
640.2248	1	10	n/a	n/a	1	52	3
641.2748	1	21	n/a	n/a	1	52	0
642.2074	1	82	n/a	n/a	1	0	0
642.3864	1	82	n/a	n/a	1	0	0
642.5194	1	82	n/a	n/a	1	0	0
642.5774	1	82	n/a	n/a	1	0	0
642.9344	1	82	n/a	n/a	1	0	0
643.2076	1	82	n/a	n/a	1	0	0
643.2976	1	82	n/a	n/a	1	0	0
643.6846	1	82	n/a	n/a	1	0	0
643.8016	1	82	n/a	n/a	1	0	0
644.0296	1	82	n/a	n/a	1	0	0
645.3246	1	10	n/a	n/a	1	52	1
646.5412	1	21	n/a	n/a	1	52	0
647.6244	1	10	n/a	n/a	1	52	1
648.891	1	10	n/a	n/a	1	52	2
649.9242	1	10	n/a	n/a	1	52	3
650.9576	1	21	n/a	n/a	1	52	0
652.0074	1	10	n/a	n/a	1	52	1
653.274	1	10	n/a	n/a	1	52	2
654.3574	1	10	n/a	n/a	1	52	3
655.674	1	10	n/a	n/a	1	52	4
656.7738	1	10	n/a	n/a	1	52	5
658.0404	1	10	n/a	n/a	1	52	6
659.3236	1	10	n/a	n/a	1	52	7
660.607	1	21	n/a	n/a	1	52	0
661.9068	1	10	n/a	n/a	1	52	1
663.1234	1	10	n/a	n/a	1	52	2
664.1568	1	10	n/a	n/a	1	52	3
665.19	1	21	n/a	n/a	1	52	0
666.4232	1	10	n/a	n/a	1	52	1
667.6066	1	10	n/a	n/a	1	52	2
668.72	1	82	n/a	n/a	1	0	0
668.977	1	82	n/a	n/a	1	0	0
669.032	1	82	n/a	n/a	1	0	0
669.316	1	82	n/a	n/a	1	0	0
669.545	1	82	n/a	n/a	1	0	0
669.72	1	82	n/a	n/a	1	0	0
669.774	1	82	n/a	n/a	1	0	0
670.106	1	82	n/a	n/a	1	0	0
670.474	1	82	n/a	n/a	1	0	0
670.504	1	82	n/a	n/a	1	0	0
671.823	1	10	n/a	n/a	1	52	1
673.0396	1	21	n/a	n/a	1	52	0
674.0894	1	10	n/a	n/a	1	52	1
675.3894	1	10	n/a	n/a	1	52	2
676.5394	1	10	n/a	n/a	1	52	3
677.6892	1	21	n/a	n/a	1	52	0
678.9558	1	10	n/a	n/a	1	52	1
680.2392	1	10	n/a	n/a	1	52	2
681.4058	1	10	n/a	n/a	1	52	3
682.6224	1	10	n/a	n/a	1	52	4
683.8056	1	10	n/a	n/a	1	52	5
684.9888	1	21	n/a	n/a	1	52	0
686.2888	1	10	n/a	n/a	1	52	1
687.372	1	10	n/a	n/a	1	52	2
688.5886	1	10	n/a	n/a	1	52	3
689.7386	1	10	n/a	n/a	1	52	4
691.0218	1	10	n/a	n/a	1	52	5
692.2384	1	10	n/a	n/a	1	52	6
693.5384	1	10	n/a	n/a	1	52	7
694.8382	1	21	n/a	n/a	1	52	0
695.674	1	82	n/a	n/a	1	0	0
695.746	1	82	n/a	n/a	1	0	0
696.029	1	82	n/a	n/a	1	0	0
696.132	1	82	n/a	n/a	1	0	0
696.557	1	82	n/a	n/a	1	0	0
696.674	1	82	n/a	n/a	1	0	0
697.057	1	82	n/a	n/a	1	0	0
697.337	1	82	n/a	n/a	1	0	0
697.507	1	82	n/a	n/a	1	0	0
697.601	1	82	n/a	n/a	1	0	0
698.738	1	10	n/a	n/a	1	52	1
699.9546	1	10	n/a	n/a	1	52	2
701.2046	1	10	n/a	n/a	1	52	3
702.3212	1	10	n/a	n/a	1	52	4
703.3878	1	10	n/a	n/a	1	52	5
704.4544	1	21	n/a	n/a	1	52	0
705.7542	1	10	n/a	n/a	1	52	1
706.8208	1	10	n/a	n/a	1	52	2
708.1042	1	10	n/a	n/a	1	52	3
709.3874	1	21	n/a	n/a	1	52	0
710.604	1	10	n/a	n/a	1	52	1
711.8206	1	21	n/a	n/a	1	52	0
713.0538	1	10	n/a	n/a	1	52	1
714.1704	1	10	n/a	n/a	1	52	2
715.2038	1	10	n/a	n/a	1	52	3
716.437	1	10	n/a	n/a	1	52	4
717.7202	1	10	n/a	n/a	1	52	5
719.0036	1	21	n/a	n/a	1	52	0
720.3034	1	10	n/a	n/a	1	52	1
721.4034	1	10	n/a	n/a	1	52	2
722.2728	1	82	n/a	n/a	1	0	0
722.6808	1	82	n/a	n/a	1	0	0
722.9738	1	82	n/a	n/a	1	0	0
723.1498	1	82	n/a	n/a	1	0	0
723.1838	1	82	n/a	n/a	1	0	0
723.2728	1	82	n/a	n/a	1	0	0
723.5668	1	82	n/a	n/a	1	0	0
723.7248	1	82	n/a	n/a	1	0	0
724.0868	1	82	n/a	n/a	1	0	0
724.1498	1	82	n/a	n/a	1	0	0
725.2032	1	10	n/a	n/a	1	52	1
726.353	1	10	n/a	n/a	1	52	2
727.5864	1	10	n/a	n/a	1	52	3
728.8196	1	21	n/a	n/a	1	52	0
730.1362	1	10	n/a	n/a	1	52	1
731.2362	1	10	n/a	n/a	1	52	2
732.286	1	10	n/a	n/a	1	52	3
733.336	1	21	n/a	n/a	1	52	0
734.5192	1	10	n/a	n/a	1	52	1
735.8026	1	10	n/a	n/a	1	52	2
737.0524	1	10	n/a	n/a	1	52	3
738.3024	1	21	n/a	n/a	1	52	0
739.3356	1	10	n/a	n/a	1	52	1
740.5022	1	10	n/a	n/a	1	52	2
741.5522	1	10	n/a	n/a	1	52	3
742.8354	1	10	n/a	n/a	1	52	4
743.9186	1	10	n/a	n/a	1	52	5
745.0186	1	10	n/a	n/a	1	52	6
746.2518	1	10	n/a	n/a	1	52	7
747.4852	1	21	n/a	n/a	1	52	0
758.0346	1	81	n/a	n/a	1	0	0
758.2346	1	81	n/a	n/a	1	0	0
758.4346	1	81	n/a	n/a	1	0	0
758.6346	1	81	n/a	n/a	1	0	0
758.8346	1	81	n/a	n/a	1	0	0
759.0346	1	81	n/a	n/a	1	0	0
759.2346	1	81	n/a	n/a	1	0	0
759.4346	1	81	n/a	n/a	1	0	0
759.6346	1	81	n/a	n/a	1	0	0
759.8346	1	81	n/a	n/a	1	0	0
761.051	1	10	n/a	n/a	1	50	1
762.1676	1	10	n/a	n/a	1	50	2
763.4176	1	10	n/a	n/a	1	50	3
764.6674	1	10	n/a	n/a	1	50	4
765.9174	1	10	n/a	n/a	1	50	5
767.1674	1	21	n/a	n/a	1	50	0
768.2172	1	10	n/a	n/a	1	50	1
769.3172	1	10	n/a	n/a	1	50	2
770.3504	1	10	n/a	n/a	1	50	3
771.5838	1	10	n/a	n/a	1	50	4
772.767	1	10	n/a	n/a	1	50	5
773.9836	1	10	n/a	n/a	1	50	6
775.2836	1	10	n/a	n/a	1	50	7
776.5834	1	21	n/a	n/a	1	50	0
777.9	1	10	n/a	n/a	1	50	1
779.05	1	10	n/a	n/a	1	50	2
780.2498	1	10	n/a	n/a	1	50	3
781.4498	1	21	n/a	n/a	1	50	0
782.5998	1	10	n/a	n/a	1	50	1
783.7996	1	10	n/a	n/a	1	50	2
784.6334	1	81	n/a	n/a	1	0	0
784.8334	1	81	n/a	n/a	1	0	0
785.0334	1	81	n/a	n/a	1	0	0
785.2334	1	81	n/a	n/a	1	0	0
785.4334	1	81	n/a	n/a	1	0	0
785.6334	1	81	n/a	n/a	1	0	0
785.8334	1	81	n/a	n/a	1	0	0
786.0334	1	81	n/a	n/a	1	0	0
786.2334	1	81	n/a	n/a	1	0	0
786.4334	1	81	n/a	n/a	1	0	0
787.7162	1	10	n/a	n/a	1	50	1
788.766	1	10	n/a	n/a	1	50	2
790.0326	1	10	n/a	n/a	1	50	3
791.0992	1	10	n/a	n/a	1	50	4
792.1826	1	10	n/a	n/a	1	50	5
793.2658	1	21	n/a	n/a	1	50	0
794.3658	1	10	n/a	n/a	1	50	1
795.6324	1	10	n/a	n/a	1	50	2
796.799	1	10	n/a	n/a	1	50	3
798.0988	1	10	n/a	n/a	1	50	4
799.232	1	10	n/a	n/a	1	50	5
800.3654	1	21	n/a	n/a	1	50	0
801.682	1	10	n/a	n/a	1	50	1
802.7318	1	10	n/a	n/a	1	50	2
803.9318	1	10	n/a	n/a	1	50	3
805.065	1	10	n/a	n/a	1	50	4
806.3816	1	10	n/a	n/a	1	50	5
807.6482	1	10	n/a	n/a	1	50	6
808.8648	1	10	n/a	n/a	1	50	7
810.0814	1	21	n/a	n/a	1	50	0
810.9252	1	81	n/a	n/a	1	0	0
811.1252	1	81	n/a	n/a	1	0	0
811.3252	1	81	n/a	n/a	1	0	0
811.5252	1	81	n/a	n/a	1	0	0
811.7252	1	81	n/a	n/a	1	0	0
811.9252	1	81	n/a	n/a	1	0	0
812.1252	1	81	n/a	n/a	1	0	0
812.3252	1	81	n/a	n/a	1	0	0
812.5252	1	81	n/a	n/a	1	0	0
812.7252	1	81	n/a	n/a	1	0	0
813.8812	1	10	n/a	n/a	1	50	1
814.9478	1	21	n/a	n/a	1	50	0
816.2478	1	10	n/a	n/a	1	50	1
817.5644	1	21	n/a	n/a	1	50	0
818.7976	1	10	n/a	n/a	1	50	1
820.0476	1	10	n/a	n/a	1	50	2
821.3474	1	10	n/a	n/a	1	50	3
822.6474	1	21	n/a	n/a	1	50	0
823.9474	1	10	n/a	n/a	1	50	1
825.0806	1	10	n/a	n/a	1	50	2
826.3138	1	10	n/a	n/a	1	50	3
827.547	1	21	n/a	n/a	1	50	0
828.5804	1	10	n/a	n/a	1	50	1
829.6136	1	21	n/a	n/a	1	50	0
830.7802	1	10	n/a	n/a	1	50	1
831.9802	1	10	n/a	n/a	1	50	2
833.1468	1	10	n/a	n/a	1	50	3
834.3134	1	21	n/a	n/a	1	50	0
835.58	1	10	n/a	n/a	1	50	1
836.6298	1	10	n/a	n/a	1	50	2
837.3832	1	81	n/a	n/a	1	0	0
837.5832	1	81	n/a	n/a	1	0	0
837.7832	1	81	n/a	n/a	1	0	0
837.9832	1	81	n/a	n/a	1	0	0
838.1832	1	81	n/a	n/a	1	0	0
838.3834	1	81	n/a	n/a	1	0	0
838.5834	1	81	n/a	n/a	1	0	0
838.7834	1	81	n/a	n/a	1	0	0
838.9834	1	81	n/a	n/a	1	0	0
839.1834	1	81	n/a	n/a	1	0	0
840.4296	1	10	n/a	n/a	1	50	1
841.5796	1	21	n/a	n/a	1	50	0
842.7796	1	10	n/a	n/a	1	50	1
843.9794	1	21	n/a	n/a	1	50	0
845.196	1	10	n/a	n/a	1	50	1
846.346	1	10	n/a	n/a	1	50	2
847.5626	1	10	n/a	n/a	1	50	3
848.7792	1	21	n/a	n/a	1	50	0
850.0958	1	10	n/a	n/a	1	50	1
851.4124	1	21	n/a	n/a	1	50	0
852.629	1	10	n/a	n/a	1	50	1
853.8456	1	21	n/a	n/a	1	50	0
854.8954	1	10	n/a	n/a	1	50	1
856.1954	1	10	n/a	n/a	1	50	2
857.3286	1	10	n/a	n/a	1	50	3
858.5952	1	10	n/a	n/a	1	50	4
859.8618	1	10	n/a	n/a	1	50	5
861.1284	1	21	n/a	n/a	1	50	0
862.2284	1	10	n/a	n/a	1	50	1
863.295	1	10	n/a	n/a	1	50	2
864.0354	1	81	n/a	n/a	1	0	0
864.2354	1	81	n/a	n/a	1	0	0
864.4354	1	81	n/a	n/a	1	0	0
864.6354	1	81	n/a	n/a	1	0	0
864.8354	1	81	n/a	n/a	1	0	0
865.0354	1	81	n/a	n/a	1	0	0
865.2354	1	81	n/a	n/a	1	0	0
865.4354	1	81	n/a	n/a	1	0	0
865.6354	1	81	n/a	n/a	1	0	0
865.8354	1	81	n/a	n/a	1	0	0
866.9614	1	10	n/a	n/a	1	50	1
868.1446	1	10	n/a	n/a	1	50	2
869.1946	1	10	n/a	n/a	1	50	3
870.3446	1	10	n/a	n/a	1	50	4
871.4778	1	10	n/a	n/a	1	50	5
872.761	1	10	n/a	n/a	1	50	6
873.9776	1	10	n/a	n/a	1	50	7
875.1942	1	21	n/a	n/a	1	50	0
876.4942	1	10	n/a	n/a	1	50	1
877.8108	1	10	n/a	n/a	1	50	2
878.844	1	10	n/a	n/a	1	50	3
880.144	1	10	n/a	n/a	1	50	4
881.3272	1	10	n/a	n/a	1	50	5
882.6606	1	10	n/a	n/a	1	50	6
883.927	1	10	n/a	n/a	1	50	7
885.1936	1	21	n/a	n/a	1	50	0
886.3436	1	10	n/a	n/a	1	50	1
887.4936	1	10	n/a	n/a	1	50	2
888.6602	1	10	n/a	n/a	1	50	3
889.6934	1	10	n/a	n/a	1	50	4
908.6434	1	81	n/a	n/a	1	0	0
908.8434	1	81	n/a	n/a	1	0	0
909.0434	1	81	n/a	n/a	1	0	0
909.2434	1	81	n/a	n/a	1	0	0
909.4434	1	81	n/a	n/a	1	0	0
909.6434	1	81	n/a	n/a	1	0	0
909.8434	1	81	n/a	n/a	1	0	0
910.0434	1	81	n/a	n/a	1	0	0
910.2434	1	81	n/a	n/a	1	0	0
910.4434	1	81	n/a	n/a	1	0	0
911.7754	1	10	n/a	n/a	1	51	1
913.0254	1	21	n/a	n/a	1	51	0
914.0754	1	10	n/a	n/a	1	51	1
915.3086	1	10	n/a	n/a	1	51	2
916.4752	1	10	n/a	n/a	1	51	3
917.5418	1	10	n/a	n/a	1	51	4
918.8584	1	10	n/a	n/a	1	51	5
920.175	1	21	n/a	n/a	1	51	0
921.2416	1	10	n/a	n/a	1	51	1
922.4748	1	10	n/a	n/a	1	51	2
923.5248	1	10	n/a	n/a	1	51	3
924.7246	1	10	n/a	n/a	1	51	4
925.858	1	10	n/a	n/a	1	51	5
927.1078	1	10	n/a	n/a	1	51	6
928.1912	1	10	n/a	n/a	1	51	7
929.2744	1	21	n/a	n/a	1	51	0
930.591	1	10	n/a	n/a	1	51	1
931.641	1	10	n/a	n/a	1	51	2
932.8076	1	10	n/a	n/a	1	51	3
934.0242	1	10	n/a	n/a	1	51	4
934.8486	1	81	n/a	n/a	1	0	0
935.0486	1	81	n/a	n/a	1	0	0
935.2486	1	81	n/a	n/a	1	0	0
935.4486	1	81	n/a	n/a	1	0	0
935.6486	1	81	n/a	n/a	1	0	0
935.8486	1	81	n/a	n/a	1	0	0
936.0486	1	81	n/a	n/a	1	0	0
936.2486	1	81	n/a	n/a	1	0	0
936.4486	1	81	n/a	n/a	1	0	0
936.6486	1	81	n/a	n/a	1	0	0
937.9072	1	10	n/a	n/a	1	51	1
939.0738	1	21	n/a	n/a	1	51	0
940.307	1	10	n/a	n/a	1	51	1
941.557	1	10	n/a	n/a	1	51	2
942.7236	1	10	n/a	n/a	1	51	3
943.7902	1	10	n/a	n/a	1	51	4
945.0234	1	10	n/a	n/a	1	51	5
946.2568	1	21	n/a	n/a	1	51	0
947.39	1	10	n/a	n/a	1	51	1
948.5566	1	10	n/a	n/a	1	51	2
949.6898	1	10	n/a	n/a	1	51	3
950.8564	1	10	n/a	n/a	1	51	4
952.023	1	10	n/a	n/a	1	51	5
953.1896	1	21	n/a	n/a	1	51	0
954.3898	1	10	n/a	n/a	1	51	1
955.7062	1	10	n/a	n/a	1	51	2
956.8894	1	10	n/a	n/a	1	51	3
958.006	1	10	n/a	n/a	1	51	4
959.156	1	10	n/a	n/a	1	51	5
960.1892	1	10	n/a	n/a	1	51	6
961.1016	1	81	n/a	n/a	1	0	0
961.3016	1	81	n/a	n/a	1	0	0
961.5016	1	81	n/a	n/a	1	0	0
961.7016	1	81	n/a	n/a	1	0	0
961.9016	1	81	n/a	n/a	1	0	0
962.1018	1	81	n/a	n/a	1	0	0
962.3018	1	81	n/a	n/a	1	0	0
962.5018	1	81	n/a	n/a	1	0	0
962.7018	1	81	n/a	n/a	1	0	0
962.9018	1	81	n/a	n/a	1	0	0
964.0224	1	10	n/a	n/a	1	51	1
965.089	1	10	n/a	n/a	1	51	2
966.2556	1	10	n/a	n/a	1	51	3
967.4222	1	21	n/a	n/a	1	51	0
968.5388	1	10	n/a	n/a	1	51	1
969.7386	1	10	n/a	n/a	1	51	2
970.8886	1	10	n/a	n/a	1	51	3
971.9218	1	10	n/a	n/a	1	51	4
973.1052	1	10	n/a	n/a	1	51	5
974.2884	1	21	n/a	n/a	1	51	0
975.505	1	10	n/a	n/a	1	51	1
976.5716	1	10	n/a	n/a	1	51	2
977.7048	1	10	n/a	n/a	1	51	3
978.8382	1	21	n/a	n/a	1	51	0
980.088	1	10	n/a	n/a	1	51	1
981.238	1	10	n/a	n/a	1	51	2
982.538	1	10	n/a	n/a	1	51	3
983.7378	1	10	n/a	n/a	1	51	4
984.9212	1	10	n/a	n/a	1	51	5
986.1044	1	21	n/a	n/a	1	51	0
986.863	1	81	n/a	n/a	1	0	0
987.063	1	81	n/a	n/a	1	0	0
987.263	1	81	n/a	n/a	1	0	0
987.463	1	81	n/a	n/a	1	0	0
987.663	1	81	n/a	n/a	1	0	0
987.863	1	81	n/a	n/a	1	0	0
988.063	1	81	n/a	n/a	1	0	0
988.263	1	81	n/a	n/a	1	0	0
988.463	1	81	n/a	n/a	1	0	0
988.663	1	81	n/a	n/a	1	0	0
990.0542	1	10	n/a	n/a	1	51	1
991.354	1	10	n/a	n/a	1	51	2
992.6206	1	10	n/a	n/a	1	51	3
993.904	1	10	n/a	n/a	1	51	4
995.1706	1	10	n/a	n/a	1	51	5
996.3872	1	10	n/a	n/a	1	51	6
997.4704	1	10	n/a	n/a	1	51	7
998.5536	1	21	n/a	n/a	1	51	0
999.8536	1	10	n/a	n/a	1	51	1
1001.1202	1	10	n/a	n/a	1	51	2
1002.3702	1	10	n/a	n/a	1	51	3
1003.62	1	21	n/a	n/a	1	51	0
1004.7866	1	10	n/a	n/a	1	51	1
1005.9198	1	10	n/a	n/a	1	51	2
1007.1198	1	10	n/a	n/a	1	51	3
1008.4198	1	10	n/a	n/a	1	51	4
1009.4864	1	10	n/a	n/a	1	51	5
1010.6196	1	10	n/a	n/a	1	51	6
1011.9028	1	10	n/a	n/a	1	51	7
1013.1862	1	21	n/a	n/a	1	51	0
1014.1498	1	81	n/a	n/a	1	0	0
1014.3498	1	81	n/a	n/a	1	0	0
1014.5498	1	81	n/a	n/a	1	0	0
1014.7498	1	81	n/a	n/a	1	0	0
1014.9498	1	81	n/a	n/a	1	0	0
1015.1498	1	81	n/a	n/a	1	0	0
1015.3498	1	81	n/a	n/a	1	0	0
1015.5498	1	81	n/a	n/a	1	0	0
1015.7498	1	81	n/a	n/a	1	0	0
1015.9498	1	81	n/a	n/a	1	0	0
1017.2026	1	10	n/a	n/a	1	51	1
1018.2692	1	10	n/a	n/a	1	51	2
1019.5358	1	10	n/a	n/a	1	51	3
1020.7856	1	10	n/a	n/a	1	51	4
1022.069	1	10	n/a	n/a	1	51	5
1023.3522	1	21	n/a	n/a	1	51	0
1024.5522	1	10	n/a	n/a	1	51	1
1025.7688	1	21	n/a	n/a	1	51	0
1027.0686	1	10	n/a	n/a	1	51	1
1028.1852	1	10	n/a	n/a	1	51	2
1029.2186	1	10	n/a	n/a	1	51	3
1030.3518	1	10	n/a	n/a	1	51	4
1031.6684	1	10	n/a	n/a	1	51	5
1032.8184	1	10	n/a	n/a	1	51	6
1033.9182	1	10	n/a	n/a	1	51	7
1035.0182	1	21	n/a	n/a	1	51	0
1036.3348	1	10	n/a	n/a	1	51	1
1037.6346	1	10	n/a	n/a	1	51	2
1038.7012	1	10	n/a	n/a	1	51	3
1039.9346	1	10	n/a	n/a	1	51	4
1102.7426	1	81	n/a	n/a	1	0	0
1102.9426	1	81	n/a	n/a	1	0	0
1103.1426	1	81	n/a	n/a	1	0	0
1103.3426	1	81	n/a	n/a	1	0	0
1103.5426	1	81	n/a	n/a	1	0	0
1103.7426	1	81	n/a	n/a	1	0	0
1103.9426	1	81	n/a	n/a	1	0	0
1104.1426	1	81	n/a	n/a	1	0	0
1104.3426	1	81	n/a	n/a	1	0	0
1104.5426	1	81	n/a	n/a	1	0	0
1105.8286	1	10	n/a	n/a	1	51	1
1106.912	1	10	n/a	n/a	1	51	2
1108.1452	1	10	n/a	n/a	1	51	3
1109.3784	1	21	n/a	n/a	1	51	0
1110.6118	1	10	n/a	n/a	1	51	1
1111.845	1	21	n/a	n/a	1	51	0
1112.9782	1	10	n/a	n/a	1	51	1
1114.1448	1	10	n/a	n/a	1	51	2
1115.2448	1	10	n/a	n/a	1	51	3
1116.3448	1	21	n/a	n/a	1	51	0
1117.5946	1	10	n/a	n/a	1	51	1
1118.8446	1	10	n/a	n/a	1	51	2
1119.9112	1	10	n/a	n/a	1	51	3
1121.1944	1	10	n/a	n/a	1	51	4
1122.311	1	10	n/a	n/a	1	51	5
1123.4276	1	21	n/a	n/a	1	51	0
1124.6442	1	10	n/a	n/a	1	51	1
1125.7776	1	10	n/a	n/a	1	51	2
1127.0108	1	10	n/a	n/a	1	51	3
1128.2274	1	10	n/a	n/a	1	51	4
1129.2878	1	81	n/a	n/a	1	0	0
1129.4878	1	81	n/a	n/a	1	0	0
1129.6878	1	81	n/a	n/a	1	0	0
1129.8878	1	81	n/a	n/a	1	0	0
1130.0878	1	81	n/a	n/a	1	0	0
1130.2878	1	81	n/a	n/a	1	0	0
1130.4878	1	81	n/a	n/a	1	0	0
1130.6878	1	81	n/a	n/a	1	0	0
1130.8878	1	81	n/a	n/a	1	0	0
1131.0878	1	81	n/a	n/a	1	0	0
1132.4604	1	10	n/a	n/a	1	51	1
1133.7438	1	21	n/a	n/a	1	51	0
1134.977	1	10	n/a	n/a	1	51	1
1136.2102	1	21	n/a	n/a	1	51	0
1137.4768	1	10	n/a	n/a	1	51	1
1138.6268	1	10	n/a	n/a	1	51	2
1139.66	1	10	n/a	n/a	1	51	3
1140.9266	1	10	n/a	n/a	1	51	4
1142.1766	1	10	n/a	n/a	1	51	5
1143.4264	1	21	n/a	n/a	1	51	0
1144.4764	1	10	n/a	n/a	1	51	1
1145.593	1	10	n/a	n/a	1	51	2
1146.6762	1	10	n/a	n/a	1	51	3
1147.9262	1	10	n/a	n/a	1	51	4
1149.1762	1	10	n/a	n/a	1	51	5
1150.426	1	21	n/a	n/a	1	51	0
1151.4926	1	10	n/a	n/a	1	51	1
1152.626	1	10	n/a	n/a	1	51	2
1153.8092	1	10	n/a	n/a	1	51	3
1155.0258	1	10	n/a	n/a	1	51	4
1155.8442	1	81	n/a	n/a	1	0	0
1156.0442	1	81	n/a	n/a	1	0	0
1156.2442	1	81	n/a	n/a	1	0	0
1156.4442	1	81	n/a	n/a	1	0	0
1156.6442	1	81	n/a	n/a	1	0	0
1156.8442	1	81	n/a	n/a	1	0	0
1157.0442	1	81	n/a	n/a	1	0	0
1157.2442	1	81	n/a	n/a	1	0	0
1157.4442	1	81	n/a	n/a	1	0	0
1157.6442	1	81	n/a	n/a	1	0	0
1158.8922	1	10	n/a	n/a	1	51	1
1160.1422	1	10	n/a	n/a	1	51	2
1161.3088	1	10	n/a	n/a	1	51	3
1162.5254	1	10	n/a	n/a	1	51	4
1163.5752	1	10	n/a	n/a	1	51	5
1164.6252	1	21	n/a	n/a	1	51	0
1165.9418	1	10	n/a	n/a	1	51	1
1167.175	1	10	n/a	n/a	1	51	2
1168.475	1	10	n/a	n/a	1	51	3
1169.775	1	21	n/a	n/a	1	51	0
1170.9916	1	10	n/a	n/a	1	51	1
1172.0582	1	10	n/a	n/a	1	51	2
1173.0914	1	10	n/a	n/a	1	51	3
1174.1914	1	10	n/a	n/a	1	51	4
1175.408	1	10	n/a	n/a	1	51	5
1176.4912	1	10	n/a	n/a	1	51	6
1177.7578	1	10	n/a	n/a	1	51	7
1179.0244	1	21	n/a	n/a	1	51	0
1180.291	1	10	n/a	n/a	1	51	1
1181.5576	1	21	n/a	n/a	1	51	0
1182.4602	1	81	n/a	n/a	1	0	0
1182.6602	1	81	n/a	n/a	1	0	0
1182.8602	1	81	n/a	n/a	1	0	0
1183.0602	1	81	n/a	n/a	1	0	0
1183.2602	1	81	n/a	n/a	1	0	0
1183.4602	1	81	n/a	n/a	1	0	0
1183.6602	1	81	n/a	n/a	1	0	0
1183.8602	1	81	n/a	n/a	1	0	0
1184.0602	1	81	n/a	n/a	1	0	0
1184.2602	1	81	n/a	n/a	1	0	0
1185.5406	1	10	n/a	n/a	1	51	1
1186.6072	1	10	n/a	n/a	1	51	2
1187.6572	1	10	n/a	n/a	1	51	3
1188.8904	1	10	n/a	n/a	1	51	4
1190.207	1	10	n/a	n/a	1	51	5
1191.4904	1	10	n/a	n/a	1	51	6
1192.707	1	10	n/a	n/a	1	51	7
1193.9236	1	21	n/a	n/a	1	51	0
1195.1068	1	10	n/a	n/a	1	51	1
1196.3566	1	10	n/a	n/a	1	51	2
1197.4066	1	10	n/a	n/a	1	51	3
1198.6398	1	10	n/a	n/a	1	51	4
1199.9564	1	10	n/a	n/a	1	51	5
1201.273	1	21	n/a	n/a	1	51	0
1202.4396	1	10	n/a	n/a	1	51	1
1203.7062	1	10	n/a	n/a	1	51	2
1204.7896	1	10	n/a	n/a	1	51	3
1205.9894	1	10	n/a	n/a	1	51	4
1207.2728	1	10	n/a	n/a	1	51	5
1208.556	1	21	n/a	n/a	1	51	0
1209.4986	1	81	n/a	n/a	1	0	0
1209.6986	1	81	n/a	n/a	1	0	0
1209.8986	1	81	n/a	n/a	1	0	0
1210.0986	1	81	n/a	n/a	1	0	0
1210.2986	1	81	n/a	n/a	1	0	0
1210.4986	1	81	n/a	n/a	1	0	0
1210.6986	1	81	n/a	n/a	1	0	0
1210.8986	1	81	n/a	n/a	1	0	0
1211.0986	1	81	n/a	n/a	1	0	0
1211.2986	1	81	n/a	n/a	1	0	0
1212.5558	1	10	n/a	n/a	1	51	1
1213.6056	1	10	n/a	n/a	1	51	2
1214.8222	1	10	n/a	n/a	1	51	3
1216.1056	1	10	n/a	n/a	1	51	4
1217.3554	1	10	n/a	n/a	1	51	5
1218.6054	1	21	n/a	n/a	1	51	0
1219.6554	1	10	n/a	n/a	1	51	1
1220.9386	1	10	n/a	n/a	1	51	2
1222.1052	1	10	n/a	n/a	1	51	3
1223.2718	1	21	n/a	n/a	1	51	0
1224.4218	1	10	n/a	n/a	1	51	1
1225.6216	1	10	n/a	n/a	1	51	2
1226.6882	1	10	n/a	n/a	1	51	3
1227.7548	1	21	n/a	n/a	1	51	0
1228.8882	1	10	n/a	n/a	1	51	1
1230.0214	1	10	n/a	n/a	1	51	2
1231.1546	1	10	n/a	n/a	1	51	3
1232.2212	1	10	n/a	n/a	1	51	4
1233.3212	1	10	n/a	n/a	1	51	5
1234.6044	1	10	n/a	n/a	1	51	6
1243.0608	1	82	n/a	n/a	1	0	0
1243.4788	1	82	n/a	n/a	1	0	0
1243.5828	1	82	n/a	n/a	1	0	0
1243.8408	1	82	n/a	n/a	1	0	0
1243.8978	1	82	n/a	n/a	1	0	0
1244.0608	1	82	n/a	n/a	1	0	0
1244.0918	1	82	n/a	n/a	1	0	0
1244.3958	1	82	n/a	n/a	1	0	0
1244.4878	1	82	n/a	n/a	1	0	0
1244.7558	1	82	n/a	n/a	1	0	0
1246.0704	1	10	n/a	n/a	1	50	1
1247.3536	1	10	n/a	n/a	1	50	2
1248.6702	1	10	n/a	n/a	1	50	3
1249.9868	1	21	n/a	n/a	1	50	0
1251.0868	1	10	n/a	n/a	1	50	1
1252.17	1	10	n/a	n/a	1	50	2
1253.22	1	10	n/a	n/a	1	50	3
1254.47	1	10	n/a	n/a	1	50	4
1255.5366	1	10	n/a	n/a	1	50	5
1256.8198	1	10	n/a	n/a	1	50	6
1257.9198	1	10	n/a	n/a	1	50	7
1259.0196	1	21	n/a	n/a	1	50	0
1260.1696	1	10	n/a	n/a	1	50	1
1261.4028	1	10	n/a	n/a	1	50	2
1262.7194	1	10	n/a	n/a	1	50	3
1263.986	1	10	n/a	n/a	1	50	4
1265.1526	1	10	n/a	n/a	1	50	5
1266.4192	1	10	n/a	n/a	1	50	6
1267.6858	1	10	n/a	n/a	1	50	7
1268.9524	1	21	n/a	n/a	1	50	0
1269.7082	1	82	n/a	n/a	1	0	0
1270.0132	1	82	n/a	n/a	1	0	0
1270.1802	1	82	n/a	n/a	1	0	0
1270.3142	1	82	n/a	n/a	1	0	0
1270.3952	1	82	n/a	n/a	1	0	0
1270.7082	1	82	n/a	n/a	1	0	0
1270.8332	1	82	n/a	n/a	1	0	0
1271.1282	1	82	n/a	n/a	1	0	0
1271.2192	1	82	n/a	n/a	1	0	0
1271.4662	1	82	n/a	n/a	1	0	0
1272.8688	1	10	n/a	n/a	1	50	1
1274.1522	1	10	n/a	n/a	1	50	2
1275.252	1	10	n/a	n/a	1	50	3
1276.5186	1	10	n/a	n/a	1	50	4
1277.6852	1	10	n/a	n/a	1	50	5
1278.8684	1	10	n/a	n/a	1	50	6
1280.035	1	10	n/a	n/a	1	50	7
1281.2016	1	21	n/a	n/a	1	50	0
1282.435	1	10	n/a	n/a	1	50	1
1283.5848	1	10	n/a	n/a	1	50	2
1284.6182	1	10	n/a	n/a	1	50	3
1285.7348	1	10	n/a	n/a	1	50	4
1286.9346	1	10	n/a	n/a	1	50	5
1288.0346	1	10	n/a	n/a	1	50	6
1289.0846	1	10	n/a	n/a	1	50	7
1290.1344	1	21	n/a	n/a	1	50	0
1291.4678	1	10	n/a	n/a	1	50	1
1292.6676	1	10	n/a	n/a	1	50	2
1293.8342	1	10	n/a	n/a	1	50	3
1294.8842	1	10	n/a	n/a	1	50	4
1295.8156	1	82	n/a	n/a	1	0	0
1296.2396	1	82	n/a	n/a	1	0	0
1296.3056	1	82	n/a	n/a	1	0	0
1296.6396	1	82	n/a	n/a	1	0	0
1296.7716	1	82	n/a	n/a	1	0	0
1296.8158	1	82	n/a	n/a	1	0	0
1297.0638	1	82	n/a	n/a	1	0	0
1297.4838	1	82	n/a	n/a	1	0	0
1297.5138	1	82	n/a	n/a	1	0	0
1297.6878	1	82	n/a	n/a	1	0	0
1299.0174	1	10	n/a	n/a	1	50	1
1300.3338	1	10	n/a	n/a	1	50	2
1301.5672	1	10	n/a	n/a	1	50	3
1302.8838	1	10	n/a	n/a	1	50	4
1303.9336	1	10	n/a	n/a	1	50	5
1304.9836	1	21	n/a	n/a	1	50	0
1306.0668	1	10	n/a	n/a	1	50	1
1307.1502	1	21	n/a	n/a	1	50	0
1308.45	1	10	n/a	n/a	1	50	1
1309.5	1	10	n/a	n/a	1	50	2
1310.8	1	10	n/a	n/a	1	50	3
1311.9332	1	10	n/a	n/a	1	50	4
1313.0664	1	10	n/a	n/a	1	50	5
1314.1998	1	21	n/a	n/a	1	50	0
1315.4164	1	10	n/a	n/a	1	50	1
1316.6662	1	10	n/a	n/a	1	50	2
1317.8328	1	10	n/a	n/a	1	50	3
1318.9994	1	21	n/a	n/a	1	50	0
1320.0828	1	10	n/a	n/a	1	50	1
1321.3494	1	10	n/a	n/a	1	50	2
1322.3678	1	82	n/a	n/a	1	0	0
1322.6698	1	82	n/a	n/a	1	0	0
1322.8288	1	82	n/a	n/a	1	0	0
1323.1588	1	82	n/a	n/a	1	0	0
1323.2638	1	82	n/a	n/a	1	0	0
1323.3678	1	82	n/a	n/a	1	0	0
1323.5988	1	82	n/a	n/a	1	0	0
1323.6828	1	82	n/a	n/a	1	0	0
1323.9858	1	82	n/a	n/a	1	0	0
1324.1058	1	82	n/a	n/a	1	0	0
1325.3658	1	10	n/a	n/a	1	50	1
1326.5324	1	10	n/a	n/a	1	50	2
1327.8656	1	10	n/a	n/a	1	50	3
1329.1988	1	21	n/a	n/a	1	50	0
1330.4654	1	10	n/a	n/a	1	50	1
1331.732	1	21	n/a	n/a	1	50	0
1333.0652	1	10	n/a	n/a	1	50	1
1334.3986	1	21	n/a	n/a	1	50	0
1335.5984	1	10	n/a	n/a	1	50	1
1336.715	1	10	n/a	n/a	1	50	2
1337.865	1	10	n/a	n/a	1	50	3
1339.015	1	21	n/a	n/a	1	50	0
1340.3316	1	10	n/a	n/a	1	50	1
1341.3648	1	10	n/a	n/a	1	50	2
1342.4314	1	10	n/a	n/a	1	50	3
1343.498	1	21	n/a	n/a	1	50	0
1344.6312	1	10	n/a	n/a	1	50	1
1345.7978	1	10	n/a	n/a	1	50	2
1347.0144	1	10	n/a	n/a	1	50	3
1348.1144	1	10	n/a	n/a	1	50	4
1348.877	1	82	n/a	n/a	1	0	0
1349.124	1	82	n/a	n/a	1	0	0
1349.279	1	82	n/a	n/a	1	0	0
1349.4	1	82	n/a	n/a	1	0	0
1349.83	1	82	n/a	n/a	1	0	0
1349.877	1	82	n/a	n/a	1	0	0
1350.135	1	82	n/a	n/a	1	0	0
1350.214	1	82	n/a	n/a	1	0	0
1350.647	1	82	n/a	n/a	1	0	0
1350.69	1	82	n/a	n/a	1	0	0
1351.8476	1	10	n/a	n/a	1	50	1
1353.0142	1	10	n/a	n/a	1	50	2
1354.164	1	10	n/a	n/a	1	50	3
1355.4474	1	10	n/a	n/a	1	50	4
1356.5972	1	10	n/a	n/a	1	50	5
1357.7306	1	10	n/a	n/a	1	50	6
1358.847	1	10	n/a	n/a	1	50	7
1359.9638	1	21	n/a	n/a	1	50	0
1361.1636	1	10	n/a	n/a	1	50	1
1362.4302	1	10	n/a	n/a	1	50	2
1363.5302	1	10	n/a	n/a	1	50	3
1364.7134	1	10	n/a	n/a	1	50	4
1365.8466	1	10	n/a	n/a	1	50	5
1366.98	1	21	n/a	n/a	1	50	0
1368.1798	1	10	n/a	n/a	1	50	1
1369.3798	1	21	n/a	n/a	1	50	0
1370.4298	1	10	n/a	n/a	1	50	1
1371.7296	1	10	n/a	n/a	1	50	2
1372.8462	1	10	n/a	n/a	1	50	3
1373.9628	1	21	n/a	n/a	1	50	0
1393.5514	1	82	n/a	n/a	1	0	0
1393.6124	1	82	n/a	n/a	1	0	0
1393.8854	1	82	n/a	n/a	1	0	0
1394.0204	1	82	n/a	n/a	1	0	0
1394.1054	1	82	n/a	n/a	1	0	0
1394.5516	1	82	n/a	n/a	1	0	0
1394.9046	1	82	n/a	n/a	1	0	0
1395.0656	1	82	n/a	n/a	1	0	0
1395.3626	1	82	n/a	n/a	1	0	0
1395.4046	1	82	n/a	n/a	1	0	0
1396.4782	1	10	n/a	n/a	1	52	1
1397.5948	1	10	n/a	n/a	1	52	2
1398.7614	1	10	n/a	n/a	1	52	3
1399.8614	1	10	n/a	n/a	1	52	4
1400.8946	1	10	n/a	n/a	1	52	5
1401.9278	1	21	n/a	n/a	1	52	0
1402.9944	1	10	n/a	n/a	1	52	1
1404.0612	1	21	n/a	n/a	1	52	0
1405.1944	1	10	n/a	n/a	1	52	1
1406.3942	1	10	n/a	n/a	1	52	2
1407.5608	1	10	n/a	n/a	1	52	3
1408.8442	1	10	n/a	n/a	1	52	4
1409.9108	1	10	n/a	n/a	1	52	5
1410.9774	1	21	n/a	n/a	1	52	0
1412.2106	1	10	n/a	n/a	1	52	1
1413.3772	1	10	n/a	n/a	1	52	2
1414.5604	1	10	n/a	n/a	1	52	3
1415.7604	1	10	n/a	n/a	1	52	4
1416.927	1	10	n/a	n/a	1	52	5
1418.1436	1	10	n/a	n/a	1	52	6
1419.196	1	82	n/a	n/a	1	0	0
1419.24	1	82	n/a	n/a	1	0	0
1419.612	1	82	n/a	n/a	1	0	0
1419.69	1	82	n/a	n/a	1	0	0
1419.826	1	82	n/a	n/a	1	0	0
1420.196	1	82	n/a	n/a	1	0	0
1420.252	1	82	n/a	n/a	1	0	0
1420.571	1	82	n/a	n/a	1	0	0
1420.698	1	82	n/a	n/a	1	0	0
1420.992	1	82	n/a	n/a	1	0	0
1422.26	1	10	n/a	n/a	1	52	1
1423.56	1	10	n/a	n/a	1	52	2
1424.6432	1	10	n/a	n/a	1	52	3
1425.7264	1	10	n/a	n/a	1	52	4
1426.9598	1	10	n/a	n/a	1	52	5
1428.193	1	21	n/a	n/a	1	52	0
1429.2762	1	10	n/a	n/a	1	52	1
1430.3596	1	21	n/a	n/a	1	52	0
1431.5762	1	10	n/a	n/a	1	52	1
1432.626	1	10	n/a	n/a	1	52	2
1433.6926	1	10	n/a	n/a	1	52	3
1434.826	1	10	n/a	n/a	1	52	4
1435.9092	1	10	n/a	n/a	1	52	5
1436.9924	1	21	n/a	n/a	1	52	0
1438.0924	1	10	n/a	n/a	1	52	1
1439.1424	1	10	n/a	n/a	1	52	2
1440.409	1	10	n/a	n/a	1	52	3
1441.5088	1	10	n/a	n/a	1	52	4
1442.7588	1	10	n/a	n/a	1	52	5
1444.0088	1	21	n/a	n/a	1	52	0
1444.9514	1	82	n/a	n/a	1	0	0
1445.1924	1	82	n/a	n/a	1	0	0
1445.6004	1	82	n/a	n/a	1	0	0
1445.6384	1	82	n/a	n/a	1	0	0
1445.7364	1	82	n/a	n/a	1	0	0
1445.9514	1	82	n/a	n/a	1	0	0
1446.0374	1	82	n/a	n/a	1	0	0
1446.0714	1	82	n/a	n/a	1	0	0
1446.4894	1	82	n/a	n/a	1	0	0
1446.6044	1	82	n/a	n/a	1	0	0
1448.0418	1	10	n/a	n/a	1	52	1
1449.3084	1	10	n/a	n/a	1	52	2
1450.4916	1	10	n/a	n/a	1	52	3
1451.5582	1	10	n/a	n/a	1	52	4
1452.7582	1	10	n/a	n/a	1	52	5
1453.9248	1	10	n/a	n/a	1	52	6
1455.1248	1	10	n/a	n/a	1	52	7
1456.3246	1	21	n/a	n/a	1	52	0
1457.4912	1	10	n/a	n/a	1	52	1
1458.6246	1	10	n/a	n/a	1	52	2
1459.7578	1	10	n/a	n/a	1	52	3
1460.991	1	10	n/a	n/a	1	52	4
1462.1576	1	10	n/a	n/a	1	52	5
1463.3242	1	21	n/a	n/a	1	52	0
1464.4076	1	10	n/a	n/a	1	52	1
1465.4908	1	21	n/a	n/a	1	52	0
1466.6074	1	10	n/a	n/a	1	52	1
1467.6574	1	10	n/a	n/a	1	52	2
1468.824	1	10	n/a	n/a	1	52	3
1470.1072	1	10	n/a	n/a	1	52	4
1471.0408	1	82	n/a	n/a	1	0	0
1471.2908	1	82	n/a	n/a	1	0	0
1471.3258	1	82	n/a	n/a	1	0	0
1471.5438	1	82	n/a	n/a	1	0	0
1471.6368	1	82	n/a	n/a	1	0	0
1472.0408	1	82	n/a	n/a	1	0	0
1472.0638	1	82	n/a	n/a	1	0	0
1472.2938	1	82	n/a	n/a	1	0	0
1472.709	1	82	n/a	n/a	1	0	0
1472.8588	1	82	n/a	n/a	1	0	0
1474.007	1	10	n/a	n/a	1	52	1
1475.1402	1	10	n/a	n/a	1	52	2
1476.4402	1	10	n/a	n/a	1	52	3
1477.74	1	21	n/a	n/a	1	52	0
1478.8066	1	10	n/a	n/a	1	52	1
1479.8566	1	10	n/a	n/a	1	52	2
1480.8898	1	10	n/a	n/a	1	52	3
1482.1564	1	10	n/a	n/a	1	52	4
1483.4898	1	10	n/a	n/a	1	52	5
1484.773	1	10	n/a	n/a	1	52	6
1485.8896	1	10	n/a	n/a	1	52	7
1487.0062	1	21	n/a	n/a	1	52	0
1488.0394	1	10	n/a	n/a	1	52	1
1489.2894	1	10	n/a	n/a	1	52	2
1490.4226	1	10	n/a	n/a	1	52	3
1491.456	1	10	n/a	n/a	1	52	4
1492.6726	1	10	n/a	n/a	1	52	5
1493.7392	1	10	n/a	n/a	1	52	6
1494.8724	1	10	n/a	n/a	1	52	7
1496.0056	1	21	n/a	n/a	1	52	0
1497.0464	1	82	n/a	n/a	1	0	0
1497.0814	1	82	n/a	n/a	1	0	0
1497.3034	1	82	n/a	n/a	1	0	0
1497.7254	1	82	n/a	n/a	1	0	0
1497.9984	1	82	n/a	n/a	1	0	0
1498.0464	1	82	n/a	n/a	1	0	0
1498.1564	1	82	n/a	n/a	1	0	0
1498.4704	1	82	n/a	n/a	1	0	0
1498.6374	1	82	n/a	n/a	1	0	0
1498.9244	1	82	n/a	n/a	1	0	0
1500.1054	1	10	n/a	n/a	1	52	1
1501.222	1	10	n/a	n/a	1	52	2
1502.4386	1	10	n/a	n/a	1	52	3
1503.6552	1	21	n/a	n/a	1	52	0
1504.9218	1	10	n/a	n/a	1	52	1
1506.005	1	10	n/a	n/a	1	52	2
1507.3216	1	10	n/a	n/a	1	52	3
1508.4382	1	10	n/a	n/a	1	52	4
1509.5882	1	10	n/a	n/a	1	52	5
1510.7382	1	21	n/a	n/a	1	52	0
1512.0214	1	10	n/a	n/a	1	52	1
1513.1714	1	10	n/a	n/a	1	52	2
1514.4212	1	10	n/a	n/a	1	52	3
1515.5046	1	10	n/a	n/a	1	52	4
1516.7212	1	10	n/a	n/a	1	52	5
1517.9378	1	21	n/a	n/a	1	52	0
1518.971	1	10	n/a	n/a	1	52	1
1520.0042	1	21	n/a	n/a	1	52	0
1521.1208	1	10	n/a	n/a	1	52	1
1522.2208	1	10	n/a	n/a	1	52	2
1582.6946	1	81	n/a	n/a	1	0	0
1582.8946	1	81	n/a	n/a	1	0	0
1583.0946	1	81	n/a	n/a	1	0	0
1583.2946	1	81	n/a	n/a	1	0	0
1583.4946	1	81	n/a	n/a	1	0	0
1583.6946	1	81	n/a	n/a	1	0	0
1583.8946	1	81	n/a	n/a	1	0	0
1584.0946	1	81	n/a	n/a	1	0	0
1584.2946	1	81	n/a	n/a	1	0	0
1584.4946	1	81	n/a	n/a	1	0	0
1585.6584	1	10	n/a	n/a	1	51	1
1586.8584	1	10	n/a	n/a	1	51	2
1587.9082	1	10	n/a	n/a	1	51	3
1589.0582	1	10	n/a	n/a	1	51	4
1590.1248	1	10	n/a	n/a	1	51	5
1591.2248	1	10	n/a	n/a	1	51	6
1592.3746	1	10	n/a	n/a	1	51	7
1593.5246	1	21	n/a	n/a	1	51	0
1594.6246	1	10	n/a	n/a	1	51	1
1595.6578	1	10	n/a	n/a	1	51	2
1596.7078	1	10	n/a	n/a	1	51	3
1597.8576	1	10	n/a	n/a	1	51	4
1599.0076	1	10	n/a	n/a	1	51	5
1600.1242	1	10	n/a	n/a	1	51	6
1601.3742	1	10	n/a	n/a	1	51	7
1602.624	1	21	n/a	n/a	1	51	0
1603.8906	1	10	n/a	n/a	1	51	1
1605.1906	1	10	n/a	n/a	1	51	2
1606.3238	1	10	n/a	n/a	1	51	3
1607.457	1	21	n/a	n/a	1	51	0
1608.2658	1	81	n/a	n/a	1	0	0
1608.4658	1	81	n/a	n/a	1	0	0
1608.6658	1	81	n/a	n/a	1	0	0
1608.8658	1	81	n/a	n/a	1	0	0
1609.0658	1	81	n/a	n/a	1	0	0
1609.2658	1	81	n/a	n/a	1	0	0
1609.4658	1	81	n/a	n/a	1	0	0
1609.6658	1	81	n/a	n/a	1	0	0
1609.8658	1	81	n/a	n/a	1	0	0
1610.0658	1	81	n/a	n/a	1	0	0
1611.3736	1	10	n/a	n/a	1	51	1
1612.5902	1	21	n/a	n/a	1	51	0
1613.8068	1	10	n/a	n/a	1	51	1
1615.09	1	10	n/a	n/a	1	51	2
1616.19	1	10	n/a	n/a	1	51	3
1617.2898	1	21	n/a	n/a	1	51	0
1618.4898	1	10	n/a	n/a	1	51	1
1619.6564	1	10	n/a	n/a	1	51	2
1620.973	1	10	n/a	n/a	1	51	3
1622.2896	1	21	n/a	n/a	1	51	0
1623.4062	1	10	n/a	n/a	1	51	1
1624.5228	1	21	n/a	n/a	1	51	0
1625.7394	1	10	n/a	n/a	1	51	1
1627.056	1	10	n/a	n/a	1	51	2
1628.3392	1	10	n/a	n/a	1	51	3
1629.3724	1	10	n/a	n/a	1	51	4
1630.4558	1	10	n/a	n/a	1	51	5
1631.6056	1	10	n/a	n/a	1	51	6
1632.7056	1	10	n/a	n/a	1	51	7
1633.8056	1	21	n/a	n/a	1	51	0
1634.9182	1	81	n/a	n/a	1	0	0
1635.1182	1	81	n/a	n/a	1	0	0
1635.3182	1	81	n/a	n/a	1	0	0
1635.5182	1	81	n/a	n/a	1	0	0
1635.7182	1	81	n/a	n/a	1	0	0
1635.9182	1	81	n/a	n/a	1	0	0
1636.1182	1	81	n/a	n/a	1	0	0
1636.3182	1	81	n/a	n/a	1	0	0
1636.5182	1	81	n/a	n/a	1	0	0
1636.7182	1	81	n/a	n/a	1	0	0
1637.872	1	10	n/a	n/a	1	51	1
1639.0386	1	10	n/a	n/a	1	51	2
1640.0718	1	10	n/a	n/a	1	51	3
1641.2218	1	10	n/a	n/a	1	51	4
1642.2884	1	10	n/a	n/a	1	51	5
1643.5384	1	10	n/a	n/a	1	51	6
1644.8382	1	10	n/a	n/a	1	51	7
1646.1382	1	21	n/a	n/a	1	51	0
1647.4548	1	10	n/a	n/a	1	51	1
1648.7714	1	21	n/a	n/a	1	51	0
1649.8712	1	10	n/a	n/a	1	51	1
1650.9712	1	21	n/a	n/a	1	51	0
1652.1712	1	10	n/a	n/a	1	51	1
1653.4544	1	10	n/a	n/a	1	51	2
1654.6544	1	10	n/a	n/a	1	51	3
1655.921	1	10	n/a	n/a	1	51	4
1657.0208	1	10	n/a	n/a	1	51	5
1658.2708	1	10	n/a	n/a	1	51	6
1659.5874	1	10	n/a	n/a	1	51	7
1660.904	1	21	n/a	n/a	1	51	0
1661.6716	1	81	n/a	n/a	1	0	0
1661.8716	1	81	n/a	n/a	1	0	0
1662.0716	1	81	n/a	n/a	1	0	0
1662.2716	1	81	n/a	n/a	1	0	0
1662.4716	1	81	n/a	n/a	1	0	0
1662.6716	1	81	n/a	n/a	1	0	0
1662.8716	1	81	n/a	n/a	1	0	0
1663.0716	1	81	n/a	n/a	1	0	0
1663.2716	1	81	n/a	n/a	1	0	0
1663.4716	1	81	n/a	n/a	1	0	0
1664.737	1	10	n/a	n/a	1	51	1
1665.987	1	10	n/a	n/a	1	51	2
1667.1536	1	10	n/a	n/a	1	51	3
1668.3536	1	10	n/a	n/a	1	51	4
1669.5534	1	10	n/a	n/a	1	51	5
1670.62	1	10	n/a	n/a	1	51	6
1671.8034	1	10	n/a	n/a	1	51	7
1672.9866	1	21	n/a	n/a	1	51	0
1674.1532	1	10	n/a	n/a	1	51	1
1675.2032	1	10	n/a	n/a	1	51	2
1676.303	1	10	n/a	n/a	1	51	3
1677.403	1	21	n/a	n/a	1	51	0
1678.553	1	10	n/a	n/a	1	51	1
1679.7694	1	10	n/a	n/a	1	51	2
1680.986	1	10	n/a	n/a	1	51	3
1682.136	1	10	n/a	n/a	1	51	4
1683.2692	1	10	n/a	n/a	1	51	5
1684.4026	1	21	n/a	n/a	1	51	0
1685.6358	1	10	n/a	n/a	1	51	1
1686.9024	1	10	n/a	n/a	1	51	2
1687.8498	1	81	n/a	n/a	1	0	0
1688.0498	1	81	n/a	n/a	1	0	0
1688.2498	1	81	n/a	n/a	1	0	0
1688.4498	1	81	n/a	n/a	1	0	0
1688.6498	1	81	n/a	n/a	1	0	0
1688.8498	1	81	n/a	n/a	1	0	0
1689.0498	1	81	n/a	n/a	1	0	0
1689.2498	1	81	n/a	n/a	1	0	0
1689.4498	1	81	n/a	n/a	1	0	0
1689.6498	1	81	n/a	n/a	1	0	0
1690.7856	1	10	n/a	n/a	1	51	1
1691.8188	1	10	n/a	n/a	1	51	2
1693.0354	1	10	n/a	n/a	1	51	3
1694.152	1	10	n/a	n/a	1	51	4
1695.2852	1	10	n/a	n/a	1	51	5
1696.5518	1	10	n/a	n/a	1	51	6
1697.6018	1	10	n/a	n/a	1	51	7
1698.6518	1	21	n/a	n/a	1	51	0
1699.7184	1	10	n/a	n/a	1	51	1
1700.785	1	21	n/a	n/a	1	51	0
1701.8516	1	10	n/a	n/a	1	51	1
1703.0348	1	10	n/a	n/a	1	51	2
1704.168	1	10	n/a	n/a	1	51	3
1705.3014	1	21	n/a	n/a	1	51	0
1706.3346	1	10	n/a	n/a	1	51	1
1707.5346	1	10	n/a	n/a	1	51	2
1708.7344	1	10	n/a	n/a	1	51	3
1709.8678	1	10	n/a	n/a	1	51	4
1710.951	1	10	n/a	n/a	1	51	5
1712.0342	1	21	n/a	n/a	1	51	0
1724.1546	1	81	n/a	n/a	1	0	0
1724.3546	1	81	n/a	n/a	1	0	0
1724.5546	1	81	n/a	n/a	1	0	0
1724.7546	1	81	n/a	n/a	1	0	0
1724.9546	1	81	n/a	n/a	1	0	0
1725.1546	1	81	n/a	n/a	1	0	0
1725.3546	1	81	n/a	n/a	1	0	0
1725.5546	1	81	n/a	n/a	1	0	0
1725.7546	1	81	n/a	n/a	1	0	0
1725.9546	1	81	n/a	n/a	1	0	0
1727.0834	1	10	n/a	n/a	1	50	1
1728.1166	1	21	n/a	n/a	1	50	0
1729.4166	1	10	n/a	n/a	1	50	1
1730.6664	1	10	n/a	n/a	1	50	2
1731.833	1	10	n/a	n/a	1	50	3
1732.9996	1	21	n/a	n/a	1	50	0
1734.0996	1	10	n/a	n/a	1	50	1
1735.3162	1	10	n/a	n/a	1	50	2
1736.5662	1	10	n/a	n/a	1	50	3
1737.8828	1	10	n/a	n/a	1	50	4
1739.116	1	10	n/a	n/a	1	50	5
1740.3492	1	21	n/a	n/a	1	50	0
1741.5658	1	10	n/a	n/a	1	50	1
1742.7324	1	10	n/a	n/a	1	50	2
1743.9658	1	10	n/a	n/a	1	50	3
1745.199	1	21	n/a	n/a	1	50	0
1746.249	1	10	n/a	n/a	1	50	1
1747.4822	1	10	n/a	n/a	1	50	2
1748.7488	1	10	n/a	n/a	1	50	3
1750.0154	1	21	n/a	n/a	1	50	0
1750.902	1	81	n/a	n/a	1	0	0
1751.102	1	81	n/a	n/a	1	0	0
1751.302	1	81	n/a	n/a	1	0	0
1751.502	1	81	n/a	n/a	1	0	0
1751.702	1	81	n/a	n/a	1	0	0
1751.902	1	81	n/a	n/a	1	0	0
1752.102	1	81	n/a	n/a	1	0	0
1752.302	1	81	n/a	n/a	1	0	0
1752.502	1	81	n/a	n/a	1	0	0
1752.702	1	81	n/a	n/a	1	0	0
1754.1152	1	10	n/a	n/a	1	50	1
1755.4316	1	21	n/a	n/a	1	50	0
1756.565	1	10	n/a	n/a	1	50	1
1757.6982	1	10	n/a	n/a	1	50	2
1758.9482	1	10	n/a	n/a	1	50	3
1759.9982	1	10	n/a	n/a	1	50	4
1761.0314	1	10	n/a	n/a	1	50	5
1762.0646	1	10	n/a	n/a	1	50	6
1763.198	1	10	n/a	n/a	1	50	7
1764.3312	1	21	n/a	n/a	1	50	0
1765.4812	1	10	n/a	n/a	1	50	1
1766.631	1	10	n/a	n/a	1	50	2
1767.6644	1	10	n/a	n/a	1	50	3
1768.6976	1	21	n/a	n/a	1	50	0
1769.7808	1	10	n/a	n/a	1	50	1
1771.0642	1	10	n/a	n/a	1	50	2
1772.114	1	10	n/a	n/a	1	50	3
1773.164	1	21	n/a	n/a	1	50	0
1774.4306	1	10	n/a	n/a	1	50	1
1775.7138	1	10	n/a	n/a	1	50	2
1776.6832	1	81	n/a	n/a	1	0	0
1776.8832	1	81	n/a	n/a	1	0	0
1777.0832	1	81	n/a	n/a	1	0	0
1777.2832	1	81	n/a	n/a	1	0	0
1777.4832	1	81	n/a	n/a	1	0	0
1777.6832	1	81	n/a	n/a	1	0	0
1777.8832	1	81	n/a	n/a	1	0	0
1778.0832	1	81	n/a	n/a	1	0	0
1778.2832	1	81	n/a	n/a	1	0	0
1778.4832	1	81	n/a	n/a	1	0	0
1779.8802	1	10	n/a	n/a	1	50	1
1780.9136	1	10	n/a	n/a	1	50	2
1781.9634	1	10	n/a	n/a	1	50	3
1783.0134	1	10	n/a	n/a	1	50	4
1784.1466	1	10	n/a	n/a	1	50	5
1785.28	1	21	n/a	n/a	1	50	0
1786.4632	1	10	n/a	n/a	1	50	1
1787.7298	1	10	n/a	n/a	1	50	2
1788.8298	1	10	n/a	n/a	1	50	3
1789.9296	1	10	n/a	n/a	1	50	4
1791.163	1	10	n/a	n/a	1	50	5
1792.2962	1	10	n/a	n/a	1	50	6
1793.4294	1	10	n/a	n/a	1	50	7
1794.5628	1	21	n/a	n/a	1	50	0
1795.6626	1	10	n/a	n/a	1	50	1
1796.7626	1	10	n/a	n/a	1	50	2
1797.9626	1	10	n/a	n/a	1	50	3
1799.1624	1	21	n/a	n/a	1	50	0
1800.3458	1	10	n/a	n/a	1	50	1
1801.529	1	21	n/a	n/a	1	50	0
1802.3876	1	81	n/a	n/a	1	0	0
1802.5876	1	81	n/a	n/a	1	0	0
1802.7876	1	81	n/a	n/a	1	0	0
1802.9876	1	81	n/a	n/a	1	0	0
1803.1876	1	81	n/a	n/a	1	0	0
1803.3876	1	81	n/a	n/a	1	0	0
1803.5876	1	81	n/a	n/a	1	0	0
1803.7876	1	81	n/a	n/a	1	0	0
1803.9876	1	81	n/a	n/a	1	0	0
1804.1876	1	81	n/a	n/a	1	0	0
1805.5954	1	10	n/a	n/a	1	50	1
1806.7954	1	10	n/a	n/a	1	50	2
1807.9286	1	10	n/a	n/a	1	50	3
1809.1952	1	10	n/a	n/a	1	50	4
1810.3118	1	10	n/a	n/a	1	50	5
1811.3618	1	10	n/a	n/a	1	50	6
1812.4284	1	10	n/a	n/a	1	50	7
1813.495	1	21	n/a	n/a	1	50	0
1814.5782	1	10	n/a	n/a	1	50	1
1815.8282	1	10	n/a	n/a	1	50	2
1816.878	1	10	n/a	n/a	1	50	3
1817.978	1	10	n/a	n/a	1	50	4
1819.178	1	10	n/a	n/a	1	50	5
1820.4946	1	10	n/a	n/a	1	50	6
1821.5944	1	10	n/a	n/a	1	50	7
1822.6944	1	21	n/a	n/a	1	50	0
1823.7776	1	10	n/a	n/a	1	50	1
1824.9442	1	10	n/a	n/a	1	50	2
1826.1276	1	10	n/a	n/a	1	50	3
1827.3108	1	21	n/a	n/a	1	50	0
1828.4084	1	81	n/a	n/a	1	0	0
1828.6084	1	81	n/a	n/a	1	0	0
1828.8084	1	81	n/a	n/a	1	0	0
1829.0084	1	81	n/a	n/a	1	0	0
1829.2084	1	81	n/a	n/a	1	0	0
1829.4084	1	81	n/a	n/a	1	0	0
1829.6084	1	81	n/a	n/a	1	0	0
1829.8084	1	81	n/a	n/a	1	0	0
1830.0084	1	81	n/a	n/a	1	0	0
1830.2084	1	81	n/a	n/a	1	0	0
1831.3272	1	10	n/a	n/a	1	50	1
1832.3938	1	10	n/a	n/a	1	50	2
1833.427	1	10	n/a	n/a	1	50	3
1834.4938	1	10	n/a	n/a	1	50	4
1835.8102	1	10	n/a	n/a	1	50	5
1837.1268	1	21	n/a	n/a	1	50	0
1838.2602	1	10	n/a	n/a	1	50	1
1839.31	1	10	n/a	n/a	1	50	2
1840.4266	1	10	n/a	n/a	1	50	3
1841.56	1	10	n/a	n/a	1	50	4
1842.8766	1	10	n/a	n/a	1	50	5
1844.1932	1	21	n/a	n/a	1	50	0
1845.343	1	10	n/a	n/a	1	50	1
1846.4264	1	10	n/a	n/a	1	50	2
1847.543	1	10	n/a	n/a	1	50	3
1848.6596	1	21	n/a	n/a	1	50	0
1849.7762	1	10	n/a	n/a	1	50	1
1850.9594	1	10	n/a	n/a	1	50	2
1852.0594	1	10	n/a	n/a	1	50	3
1853.2092	1	10	n/a	n/a	1	50	4
1867.9306	1	82	n/a	n/a	1	0	0
1867.9976	1	82	n/a	n/a	1	0	0
1868.2306	1	82	n/a	n/a	1	0	0
1868.5246	1	82	n/a	n/a	1	0	0
1868.7946	1	82	n/a	n/a	1	0	0
1868.9306	1	82	n/a	n/a	1	0	0
1869.2876	1	82	n/a	n/a	1	0	0
1869.5696	1	82	n/a	n/a	1	0	0
1869.7116	1	82	n/a	n/a	1	0	0
1869.7676	1	82	n/a	n/a	1	0	0
1870.9582	1	10	n/a	n/a	1	52	1
1872.0082	1	10	n/a	n/a	1	52	2
1873.308	1	10	n/a	n/a	1	52	3
1874.4914	1	10	n/a	n/a	1	52	4
1875.7246	1	10	n/a	n/a	1	52	5
1876.9578	1	21	n/a	n/a	1	52	0
1878.1578	1	10	n/a	n/a	1	52	1
1879.4578	1	10	n/a	n/a	1	52	2
1880.691	1	10	n/a	n/a	1	52	3
1881.9742	1	10	n/a	n/a	1	52	4
1883.1742	1	10	n/a	n/a	1	52	5
1884.2408	1	10	n/a	n/a	1	52	6
1885.3406	1	10	n/a	n/a	1	52	7
1886.4406	1	21	n/a	n/a	1	52	0
1887.4906	1	10	n/a	n/a	1	52	1
1888.6572	1	10	n/a	n/a	1	52	2
1889.8572	1	10	n/a	n/a	1	52	3
1891.057	1	21	n/a	n/a	1	52	0
1892.257	1	10	n/a	n/a	1	52	1
1893.3568	1	10	n/a	n/a	1	52	2
1894.1684	1	82	n/a	n/a	1	0	0
1894.5614	1	82	n/a	n/a	1	0	0
1894.8414	1	82	n/a	n/a	1	0	0
1894.8864	1	82	n/a	n/a	1	0	0
1894.9704	1	82	n/a	n/a	1	0	0
1895.1684	1	82	n/a	n/a	1	0	0
1895.3314	1	82	n/a	n/a	1	0	0
1895.4484	1	82	n/a	n/a	1	0	0
1895.5164	1	82	n/a	n/a	1	0	0
1895.7884	1	82	n/a	n/a	1	0	0
1897.19	1	10	n/a	n/a	1	52	1
1898.3232	1	10	n/a	n/a	1	52	2
1899.3566	1	10	n/a	n/a	1	52	3
1900.5064	1	10	n/a	n/a	1	52	4
1901.5564	1	10	n/a	n/a	1	52	5
1902.623	1	10	n/a	n/a	1	52	6
1903.823	1	10	n/a	n/a	1	52	7
1905.0228	1	21	n/a	n/a	1	52	0
1906.1728	1	10	n/a	n/a	1	52	1
1907.3228	1	21	n/a	n/a	1	52	0
1908.456	1	10	n/a	n/a	1	52	1
1909.5226	1	10	n/a	n/a	1	52	2
1910.8226	1	10	n/a	n/a	1	52	3
1912.1058	1	10	n/a	n/a	1	52	4
1913.2224	1	10	n/a	n/a	1	52	5
1914.339	1	21	n/a	n/a	1	52	0
1915.439	1	10	n/a	n/a	1	52	1
1916.5388	1	21	n/a	n/a	1	52	0
1917.7388	1	10	n/a	n/a	1	52	1
1918.9388	1	21	n/a	n/a	1	52	0
1919.9724	1	82	n/a	n/a	1	0	0
1920.1934	1	82	n/a	n/a	1	0	0
1920.4984	1	82	n/a	n/a	1	0	0
1920.6754	1	82	n/a	n/a	1	0	0
1920.7324	1	82	n/a	n/a	1	0	0
1920.9724	1	82	n/a	n/a	1	0	0
1921.2534	1	82	n/a	n/a	1	0	0
1921.6754	1	82	n/a	n/a	1	0	0
1921.7164	1	82	n/a	n/a	1	0	0
1921.8394	1	82	n/a	n/a	1	0	0
1922.9052	1	10	n/a	n/a	1	52	1
1924.155	1	10	n/a	n/a	1	52	2
1925.255	1	10	n/a	n/a	1	52	3
1926.355	1	21	n/a	n/a	1	52	0
1927.5216	1	10	n/a	n/a	1	52	1
1928.8382	1	10	n/a	n/a	1	52	2
1930.0548	1	10	n/a	n/a	1	52	3
1931.1046	1	10	n/a	n/a	1	52	4
1932.3712	1	10	n/a	n/a	1	52	5
1933.5378	1	10	n/a	n/a	1	52	6
1934.7378	1	10	n/a	n/a	1	52	7
1935.9378	1	21	n/a	n/a	1	52	0
1936.9876	1	10	n/a	n/a	1	52	1
1938.071	1	10	n/a	n/a	1	52	2
1939.2208	1	10	n/a	n/a	1	52	3
1940.3874	1	10	n/a	n/a	1	52	4
1941.5208	1	10	n/a	n/a	1	52	5
1942.654	1	21	n/a	n/a	1	52	0
1943.904	1	10	n/a	n/a	1	52	1
1945.2204	1	10	n/a	n/a	1	52	2
1946.313	1	82	n/a	n/a	1	0	0
1946.454	1	82	n/a	n/a	1	0	0
1946.891	1	82	n/a	n/a	1	0	0
1946.988	1	82	n/a	n/a	1	0	0
1947.016	1	82	n/a	n/a	1	0	0
1947.313	1	82	n/a	n/a	1	0	0
1947.434	1	82	n/a	n/a	1	0	0
1947.487	1	82	n/a	n/a	1	0	0
1947.634	1	82	n/a	n/a	1	0	0
1947.972	1	82	n/a	n/a	1	0	0
1949.3036	1	10	n/a	n/a	1	52	1
1950.4036	1	21	n/a	n/a	1	52	0
1951.7034	1	10	n/a	n/a	1	52	1
1952.8034	1	10	n/a	n/a	1	52	2
1954.0534	1	10	n/a	n/a	1	52	3
1955.3032	1	21	n/a	n/a	1	52	0
1956.3366	1	10	n/a	n/a	1	52	1
1957.5532	1	10	n/a	n/a	1	52	2
1958.7364	1	10	n/a	n/a	1	52	3
1959.9196	1	21	n/a	n/a	1	52	0
1960.9696	1	10	n/a	n/a	1	52	1
1962.0696	1	10	n/a	n/a	1	52	2
1963.3694	1	10	n/a	n/a	1	52	3
1964.6694	1	21	n/a	n/a	1	52	0
1965.836	1	10	n/a	n/a	1	52	1
1967.0026	1	10	n/a	n/a	1	52	2
1968.2524	1	10	n/a	n/a	1	52	3
1969.3358	1	10	n/a	n/a	1	52	4
1970.3856	1	10	n/a	n/a	1	52	5
1971.5856	1	10	n/a	n/a	1	52	6
1972.5352	1	82	n/a	n/a	1	0	0
1972.6772	1	82	n/a	n/a	1	0	0
1972.7702	1	82	n/a	n/a	1	0	0
1973.0322	1	82	n/a	n/a	1	0	0
1973.0782	1	82	n/a	n/a	1	0	0
1973.5352	1	82	n/a	n/a	1	0	0
1973.5572	1	82	n/a	n/a	1	0	0
1973.8992	1	82	n/a	n/a	1	0	0
1974.1142	1	82	n/a	n/a	1	0	0
1974.2282	1	82	n/a	n/a	1	0	0
1975.6854	1	10	n/a	n/a	1	52	1
1976.9352	1	21	n/a	n/a	1	52	0
1977.9852	1	10	n/a	n/a	1	52	1
1979.0352	1	21	n/a	n/a	1	52	0
1980.2518	1	10	n/a	n/a	1	52	1
1981.4684	1	21	n/a	n/a	1	52	0
1982.6182	1	10	n/a	n/a	1	52	1
1983.7682	1	21	n/a	n/a	1	52	0
1984.9848	1	10	n/a	n/a	1	52	1
1986.118	1	10	n/a	n/a	1	52	2
1987.2846	1	10	n/a	n/a	1	52	3
1988.4346	1	10	n/a	n/a	1	52	4
1989.6346	1	10	n/a	n/a	1	52	5
1990.7178	1	10	n/a	n/a	1	52	6
1991.8844	1	10	n/a	n/a	1	52	7
1993.051	1	21	n/a	n/a	1	52	0
1994.0842	1	10	n/a	n/a	1	52	1
1995.3508	1	10	n/a	n/a	1	52	2
1996.5342	1	10	n/a	n/a	1	52	3
1997.7174	1	21	n/a	n/a	1	52	0
