onset	duration	value	response	rt	good	TMS	seq
169.4188	1	82	n/a	n/a	1	0	0
169.6448	1	82	n/a	n/a	1	0	0
169.7578	1	82	n/a	n/a	1	0	0
169.8268	1	82	n/a	n/a	1	0	0
170.2248	1	82	n/a	n/a	1	0	0
170.4188	1	82	n/a	n/a	1	0	0
170.5788	1	82	n/a	n/a	1	0	0
170.8888	1	82	n/a	n/a	1	0	0
170.9598	1	82	n/a	n/a	1	0	0
171.2998	1	82	n/a	n/a	1	0	0
172.6026	1	10	n/a	n/a	1	52	1
173.8692	1	10	n/a	n/a	1	52	2
175.0192	1	10	n/a	n/a	1	52	3
176.1692	1	21	n/a	n/a	1	52	0
177.419	1	10	n/a	n/a	1	52	1
178.4524	1	10	n/a	n/a	1	52	2
179.569	1	10	n/a	n/a	1	52	3
180.7856	1	10	n/a	n/a	1	52	4
181.8188	1	10	n/a	n/a	1	52	5
182.952	1	10	n/a	n/a	1	52	6
184.0186	1	10	n/a	n/a	1	52	7
185.0852	1	21	n/a	n/a	1	52	0
186.1686	1	10	n/a	n/a	1	52	1
187.2518	1	21	n/a	n/a	1	52	0
188.5684	1	10	n/a	n/a	1	52	1
189.8516	1	10	n/a	n/a	1	52	2
190.9516	1	10	n/a	n/a	1	52	3
192.1516	1	10	n/a	n/a	1	52	4
193.4514	1	10	n/a	n/a	1	52	5
194.7514	1	21	n/a	n/a	1	52	0
195.618	1	82	n/a	n/a	1	0	0
195.75	1	82	n/a	n/a	1	0	0
196.19	1	82	n/a	n/a	1	0	0
196.449	1	82	n/a	n/a	1	0	0
196.496	1	82	n/a	n/a	1	0	0
196.618	1	82	n/a	n/a	1	0	0
196.666	1	82	n/a	n/a	1	0	0
197.026	1	82	n/a	n/a	1	0	0
197.199	1	82	n/a	n/a	1	0	0
197.316	1	82	n/a	n/a	1	0	0
198.7678	1	10	n/a	n/a	1	52	1
199.901	1	10	n/a	n/a	1	52	2
201.2176	1	10	n/a	n/a	1	52	3
202.251	1	10	n/a	n/a	1	52	4
203.5176	1	10	n/a	n/a	1	52	5
204.784	1	21	n/a	n/a	1	52	0
206.084	1	10	n/a	n/a	1	52	1
207.334	1	10	n/a	n/a	1	52	2
208.4506	1	10	n/a	n/a	1	52	3
209.5672	1	21	n/a	n/a	1	52	0
210.6504	1	10	n/a	n/a	1	52	1
211.8504	1	10	n/a	n/a	1	52	2
212.8836	1	10	n/a	n/a	1	52	3
214.1668	1	10	n/a	n/a	1	52	4
215.4334	1	10	n/a	n/a	1	52	5
216.5168	1	10	n/a	n/a	1	52	6
217.7666	1	10	n/a	n/a	1	52	7
219.0166	1	21	n/a	n/a	1	52	0
220.3166	1	10	n/a	n/a	1	52	1
221.6164	1	10	n/a	n/a	1	52	2
222.7188	1	82	n/a	n/a	1	0	0
223.0618	1	82	n/a	n/a	1	0	0
223.1838	1	82	n/a	n/a	1	0	0
223.2648	1	82	n/a	n/a	1	0	0
223.4408	1	82	n/a	n/a	1	0	0
223.719	1	82	n/a	n/a	1	0	0
223.783	1	82	n/a	n/a	1	0	0
223.868	1	82	n/a	n/a	1	0	0
224.081	1	82	n/a	n/a	1	0	0
224.105	1	82	n/a	n/a	1	0	0
225.8328	1	10	n/a	n/a	1	52	1
227.0328	1	10	n/a	n/a	1	52	2
228.066	1	10	n/a	n/a	1	52	3
229.1994	1	10	n/a	n/a	1	52	4
230.366	1	10	n/a	n/a	1	52	5
231.5992	1	10	n/a	n/a	1	52	6
232.7158	1	10	n/a	n/a	1	52	7
233.8324	1	21	n/a	n/a	1	52	0
235.1156	1	10	n/a	n/a	1	52	1
236.2656	1	10	n/a	n/a	1	52	2
237.5154	1	10	n/a	n/a	1	52	3
238.5654	1	10	n/a	n/a	1	52	4
239.6486	1	10	n/a	n/a	1	52	5
240.882	1	10	n/a	n/a	1	52	6
242.1652	1	10	n/a	n/a	1	52	7
243.4484	1	21	n/a	n/a	1	52	0
244.715	1	10	n/a	n/a	1	52	1
245.8984	1	10	n/a	n/a	1	52	2
247.165	1	10	n/a	n/a	1	52	3
248.4982	1	10	n/a	n/a	1	52	4
249.4926	1	82	n/a	n/a	1	0	0
249.8416	1	82	n/a	n/a	1	0	0
249.9066	1	82	n/a	n/a	1	0	0
250.3256	1	82	n/a	n/a	1	0	0
250.4466	1	82	n/a	n/a	1	0	0
250.4926	1	82	n/a	n/a	1	0	0
250.8566	1	82	n/a	n/a	1	0	0
250.9096	1	82	n/a	n/a	1	0	0
251.1856	1	82	n/a	n/a	1	0	0
251.4066	1	82	n/a	n/a	1	0	0
252.4146	1	10	n/a	n/a	1	52	1
253.4478	1	21	n/a	n/a	1	52	0
254.5812	1	10	n/a	n/a	1	52	1
255.7144	1	21	n/a	n/a	1	52	0
256.7644	1	10	n/a	n/a	1	52	1
257.8142	1	21	n/a	n/a	1	52	0
258.8642	1	10	n/a	n/a	1	52	1
259.8974	1	10	n/a	n/a	1	52	2
261.0474	1	10	n/a	n/a	1	52	3
262.264	1	10	n/a	n/a	1	52	4
263.414	1	10	n/a	n/a	1	52	5
264.6306	1	10	n/a	n/a	1	52	6
265.8972	1	10	n/a	n/a	1	52	7
267.1638	1	21	n/a	n/a	1	52	0
268.197	1	10	n/a	n/a	1	52	1
269.2302	1	21	n/a	n/a	1	52	0
270.4636	1	10	n/a	n/a	1	52	1
271.5302	1	10	n/a	n/a	1	52	2
272.73	1	10	n/a	n/a	1	52	3
273.93	1	21	n/a	n/a	1	52	0
274.7046	1	82	n/a	n/a	1	0	0
274.9396	1	82	n/a	n/a	1	0	0
275.1076	1	82	n/a	n/a	1	0	0
275.1736	1	82	n/a	n/a	1	0	0
275.5186	1	82	n/a	n/a	1	0	0
275.7048	1	82	n/a	n/a	1	0	0
275.9858	1	82	n/a	n/a	1	0	0
276.2198	1	82	n/a	n/a	1	0	0
276.3048	1	82	n/a	n/a	1	0	0
276.3528	1	82	n/a	n/a	1	0	0
277.6798	1	10	n/a	n/a	1	52	1
278.763	1	21	n/a	n/a	1	52	0
279.913	1	10	n/a	n/a	1	52	1
281.1296	1	10	n/a	n/a	1	52	2
282.1794	1	10	n/a	n/a	1	52	3
283.396	1	10	n/a	n/a	1	52	4
284.4794	1	10	n/a	n/a	1	52	5
285.5626	1	10	n/a	n/a	1	52	6
286.6126	1	10	n/a	n/a	1	52	7
287.6624	1	21	n/a	n/a	1	52	0
288.7292	1	10	n/a	n/a	1	52	1
289.9956	1	10	n/a	n/a	1	52	2
291.0956	1	10	n/a	n/a	1	52	3
292.2622	1	10	n/a	n/a	1	52	4
293.3954	1	10	n/a	n/a	1	52	5
294.462	1	10	n/a	n/a	1	52	6
295.762	1	10	n/a	n/a	1	52	7
297.062	1	21	n/a	n/a	1	52	0
298.1786	1	10	n/a	n/a	1	52	1
299.2618	1	10	n/a	n/a	1	52	2
316.2536	1	82	n/a	n/a	1	0	0
316.2986	1	82	n/a	n/a	1	0	0
316.5536	1	82	n/a	n/a	1	0	0
316.7256	1	82	n/a	n/a	1	0	0
317.1046	1	82	n/a	n/a	1	0	0
317.2536	1	82	n/a	n/a	1	0	0
317.4136	1	82	n/a	n/a	1	0	0
317.7496	1	82	n/a	n/a	1	0	0
317.7796	1	82	n/a	n/a	1	0	0
317.8426	1	82	n/a	n/a	1	0	0
319.244	1	10	n/a	n/a	1	50	1
320.4106	1	10	n/a	n/a	1	50	2
321.6938	1	10	n/a	n/a	1	50	3
322.8938	1	10	n/a	n/a	1	50	4
324.1104	1	10	n/a	n/a	1	50	5
325.327	1	21	n/a	n/a	1	50	0
326.4268	1	10	n/a	n/a	1	50	1
327.6434	1	10	n/a	n/a	1	50	2
328.9268	1	10	n/a	n/a	1	50	3
330.0266	1	10	n/a	n/a	1	50	4
331.16	1	10	n/a	n/a	1	50	5
332.2932	1	21	n/a	n/a	1	50	0
333.5932	1	10	n/a	n/a	1	50	1
334.6764	1	10	n/a	n/a	1	50	2
335.8096	1	10	n/a	n/a	1	50	3
336.9428	1	21	n/a	n/a	1	50	0
338.0096	1	10	n/a	n/a	1	50	1
339.0762	1	10	n/a	n/a	1	50	2
340.376	1	10	n/a	n/a	1	50	3
341.676	1	10	n/a	n/a	1	50	4
342.4904	1	82	n/a	n/a	1	0	0
342.5604	1	82	n/a	n/a	1	0	0
342.7204	1	82	n/a	n/a	1	0	0
343.1074	1	82	n/a	n/a	1	0	0
343.3374	1	82	n/a	n/a	1	0	0
343.4904	1	82	n/a	n/a	1	0	0
343.5104	1	82	n/a	n/a	1	0	0
343.7794	1	82	n/a	n/a	1	0	0
343.9484	1	82	n/a	n/a	1	0	0
344.0714	1	82	n/a	n/a	1	0	0
345.609	1	10	n/a	n/a	1	50	1
346.8924	1	10	n/a	n/a	1	50	2
348.0756	1	10	n/a	n/a	1	50	3
349.2754	1	10	n/a	n/a	1	50	4
350.3088	1	10	n/a	n/a	1	50	5
351.342	1	21	n/a	n/a	1	50	0
352.6086	1	10	n/a	n/a	1	50	1
353.9086	1	10	n/a	n/a	1	50	2
354.9752	1	10	n/a	n/a	1	50	3
356.0918	1	10	n/a	n/a	1	50	4
357.2916	1	10	n/a	n/a	1	50	5
358.4916	1	21	n/a	n/a	1	50	0
359.5748	1	10	n/a	n/a	1	50	1
360.8748	1	10	n/a	n/a	1	50	2
361.908	1	10	n/a	n/a	1	50	3
363.0746	1	10	n/a	n/a	1	50	4
364.2412	1	10	n/a	n/a	1	50	5
365.5412	1	10	n/a	n/a	1	50	6
366.7412	1	10	n/a	n/a	1	50	7
367.941	1	21	n/a	n/a	1	50	0
368.8196	1	82	n/a	n/a	1	0	0
369.2066	1	82	n/a	n/a	1	0	0
369.2586	1	82	n/a	n/a	1	0	0
369.4676	1	82	n/a	n/a	1	0	0
369.5646	1	82	n/a	n/a	1	0	0
369.8196	1	82	n/a	n/a	1	0	0
369.9616	1	82	n/a	n/a	1	0	0
370.1376	1	82	n/a	n/a	1	0	0
370.4066	1	82	n/a	n/a	1	0	0
370.5186	1	82	n/a	n/a	1	0	0
371.9908	1	10	n/a	n/a	1	50	1
373.274	1	21	n/a	n/a	1	50	0
374.374	1	10	n/a	n/a	1	50	1
375.624	1	10	n/a	n/a	1	50	2
376.7406	1	10	n/a	n/a	1	50	3
378.0238	1	10	n/a	n/a	1	50	4
379.0738	1	10	n/a	n/a	1	50	5
380.1236	1	21	n/a	n/a	1	50	0
381.207	1	10	n/a	n/a	1	50	1
382.2736	1	10	n/a	n/a	1	50	2
383.4068	1	10	n/a	n/a	1	50	3
384.7068	1	10	n/a	n/a	1	50	4
385.7734	1	10	n/a	n/a	1	50	5
386.94	1	10	n/a	n/a	1	50	6
388.0566	1	10	n/a	n/a	1	50	7
389.1732	1	21	n/a	n/a	1	50	0
390.473	1	10	n/a	n/a	1	50	1
391.7064	1	10	n/a	n/a	1	50	2
392.9396	1	10	n/a	n/a	1	50	3
394.1728	1	21	n/a	n/a	1	50	0
395.2106	1	82	n/a	n/a	1	0	0
395.2366	1	82	n/a	n/a	1	0	0
395.5566	1	82	n/a	n/a	1	0	0
395.9916	1	82	n/a	n/a	1	0	0
396.1606	1	82	n/a	n/a	1	0	0
396.2106	1	82	n/a	n/a	1	0	0
396.4676	1	82	n/a	n/a	1	0	0
396.5136	1	82	n/a	n/a	1	0	0
396.6506	1	82	n/a	n/a	1	0	0
397.0736	1	82	n/a	n/a	1	0	0
398.4392	1	10	n/a	n/a	1	50	1
399.7726	1	21	n/a	n/a	1	50	0
400.8058	1	10	n/a	n/a	1	50	1
402.089	1	10	n/a	n/a	1	50	2
403.4056	1	10	n/a	n/a	1	50	3
404.5222	1	10	n/a	n/a	1	50	4
405.5554	1	10	n/a	n/a	1	50	5
406.5888	1	21	n/a	n/a	1	50	0
407.6888	1	10	n/a	n/a	1	50	1
408.9052	1	10	n/a	n/a	1	50	2
410.1552	1	10	n/a	n/a	1	50	3
411.4052	1	10	n/a	n/a	1	50	4
412.455	1	10	n/a	n/a	1	50	5
413.6884	1	10	n/a	n/a	1	50	6
415.005	1	10	n/a	n/a	1	50	7
416.3216	1	21	n/a	n/a	1	50	0
417.5214	1	10	n/a	n/a	1	50	1
418.6214	1	10	n/a	n/a	1	50	2
419.6714	1	10	n/a	n/a	1	50	3
420.938	1	10	n/a	n/a	1	50	4
421.6814	1	82	n/a	n/a	1	0	0
421.9574	1	82	n/a	n/a	1	0	0
422.2974	1	82	n/a	n/a	1	0	0
422.4334	1	82	n/a	n/a	1	0	0
422.6004	1	82	n/a	n/a	1	0	0
422.6814	1	82	n/a	n/a	1	0	0
422.8534	1	82	n/a	n/a	1	0	0
423.1444	1	82	n/a	n/a	1	0	0
423.5044	1	82	n/a	n/a	1	0	0
423.5734	1	82	n/a	n/a	1	0	0
424.6376	1	10	n/a	n/a	1	50	1
425.6876	1	10	n/a	n/a	1	50	2
426.9876	1	10	n/a	n/a	1	50	3
428.2208	1	10	n/a	n/a	1	50	4
429.5374	1	10	n/a	n/a	1	50	5
430.8374	1	10	n/a	n/a	1	50	6
432.054	1	10	n/a	n/a	1	50	7
433.2706	1	21	n/a	n/a	1	50	0
434.4704	1	10	n/a	n/a	1	50	1
435.6538	1	10	n/a	n/a	1	50	2
436.7204	1	10	n/a	n/a	1	50	3
437.987	1	10	n/a	n/a	1	50	4
439.1536	1	10	n/a	n/a	1	50	5
440.1868	1	10	n/a	n/a	1	50	6
441.3534	1	10	n/a	n/a	1	50	7
442.52	1	21	n/a	n/a	1	50	0
443.7698	1	10	n/a	n/a	1	50	1
444.8864	1	10	n/a	n/a	1	50	2
446.0032	1	10	n/a	n/a	1	50	3
447.053	1	10	n/a	n/a	1	50	4
470.0288	1	81	n/a	n/a	1	0	0
470.2288	1	81	n/a	n/a	1	0	0
470.4288	1	81	n/a	n/a	1	0	0
470.6288	1	81	n/a	n/a	1	0	0
470.8288	1	81	n/a	n/a	1	0	0
471.0288	1	81	n/a	n/a	1	0	0
471.2288	1	81	n/a	n/a	1	0	0
471.4288	1	81	n/a	n/a	1	0	0
471.6288	1	81	n/a	n/a	1	0	0
471.8288	1	81	n/a	n/a	1	0	0
473.0182	1	10	n/a	n/a	1	51	1
474.1348	1	10	n/a	n/a	1	51	2
475.2846	1	10	n/a	n/a	1	51	3
476.468	1	10	n/a	n/a	1	51	4
477.7512	1	10	n/a	n/a	1	51	5
478.7844	1	10	n/a	n/a	1	51	6
479.8844	1	10	n/a	n/a	1	51	7
480.9844	1	21	n/a	n/a	1	51	0
482.251	1	10	n/a	n/a	1	51	1
483.5508	1	10	n/a	n/a	1	51	2
484.8342	1	10	n/a	n/a	1	51	3
485.8674	1	10	n/a	n/a	1	51	4
486.9674	1	10	n/a	n/a	1	51	5
488.0672	1	21	n/a	n/a	1	51	0
489.3172	1	10	n/a	n/a	1	51	1
490.5338	1	10	n/a	n/a	1	51	2
491.617	1	10	n/a	n/a	1	51	3
492.7836	1	10	n/a	n/a	1	51	4
493.8502	1	10	n/a	n/a	1	51	5
494.9168	1	21	n/a	n/a	1	51	0
495.9454	1	81	n/a	n/a	1	0	0
496.1454	1	81	n/a	n/a	1	0	0
496.3454	1	81	n/a	n/a	1	0	0
496.5454	1	81	n/a	n/a	1	0	0
496.7454	1	81	n/a	n/a	1	0	0
496.9454	1	81	n/a	n/a	1	0	0
497.1454	1	81	n/a	n/a	1	0	0
497.3454	1	81	n/a	n/a	1	0	0
497.5454	1	81	n/a	n/a	1	0	0
497.7454	1	81	n/a	n/a	1	0	0
499.0334	1	10	n/a	n/a	1	51	1
500.2332	1	10	n/a	n/a	1	51	2
501.4498	1	10	n/a	n/a	1	51	3
502.6664	1	21	n/a	n/a	1	51	0
503.8164	1	10	n/a	n/a	1	51	1
504.9662	1	21	n/a	n/a	1	51	0
506.2328	1	10	n/a	n/a	1	51	1
507.5162	1	10	n/a	n/a	1	51	2
508.7328	1	10	n/a	n/a	1	51	3
509.9826	1	10	n/a	n/a	1	51	4
511.116	1	10	n/a	n/a	1	51	5
512.2492	1	10	n/a	n/a	1	51	6
513.5158	1	10	n/a	n/a	1	51	7
514.7824	1	21	n/a	n/a	1	51	0
515.8156	1	10	n/a	n/a	1	51	1
516.8822	1	10	n/a	n/a	1	51	2
517.9988	1	10	n/a	n/a	1	51	3
519.0822	1	10	n/a	n/a	1	51	4
520.382	1	10	n/a	n/a	1	51	5
521.682	1	21	n/a	n/a	1	51	0
522.7746	1	81	n/a	n/a	1	0	0
522.9746	1	81	n/a	n/a	1	0	0
523.1746	1	81	n/a	n/a	1	0	0
523.3746	1	81	n/a	n/a	1	0	0
523.5746	1	81	n/a	n/a	1	0	0
523.7754	1	81	n/a	n/a	1	0	0
523.9754	1	81	n/a	n/a	1	0	0
524.1754	1	81	n/a	n/a	1	0	0
524.3754	1	81	n/a	n/a	1	0	0
524.5754	1	81	n/a	n/a	1	0	0
525.915	1	10	n/a	n/a	1	51	1
527.165	1	21	n/a	n/a	1	51	0
528.4148	1	10	n/a	n/a	1	51	1
529.7482	1	10	n/a	n/a	1	51	2
530.848	1	10	n/a	n/a	1	51	3
531.9814	1	10	n/a	n/a	1	51	4
533.2146	1	10	n/a	n/a	1	51	5
534.4478	1	21	n/a	n/a	1	51	0
535.6644	1	10	n/a	n/a	1	51	1
536.881	1	21	n/a	n/a	1	51	0
538.1144	1	10	n/a	n/a	1	51	1
539.1976	1	10	n/a	n/a	1	51	2
540.3308	1	10	n/a	n/a	1	51	3
541.6308	1	10	n/a	n/a	1	51	4
542.914	1	10	n/a	n/a	1	51	5
544.1972	1	21	n/a	n/a	1	51	0
545.2972	1	10	n/a	n/a	1	51	1
546.3972	1	10	n/a	n/a	1	51	2
547.4804	1	10	n/a	n/a	1	51	3
548.5804	1	10	n/a	n/a	1	51	4
549.3798	1	81	n/a	n/a	1	0	0
549.5798	1	81	n/a	n/a	1	0	0
549.7798	1	81	n/a	n/a	1	0	0
549.9798	1	81	n/a	n/a	1	0	0
550.1798	1	81	n/a	n/a	1	0	0
550.3798	1	81	n/a	n/a	1	0	0
550.5798	1	81	n/a	n/a	1	0	0
550.7798	1	81	n/a	n/a	1	0	0
550.9798	1	81	n/a	n/a	1	0	0
551.1798	1	81	n/a	n/a	1	0	0
552.3468	1	10	n/a	n/a	1	51	1
553.5134	1	10	n/a	n/a	1	51	2
554.7134	1	10	n/a	n/a	1	51	3
556.0132	1	10	n/a	n/a	1	51	4
557.0966	1	10	n/a	n/a	1	51	5
558.1464	1	10	n/a	n/a	1	51	6
559.3798	1	10	n/a	n/a	1	51	7
560.613	1	21	n/a	n/a	1	51	0
561.863	1	10	n/a	n/a	1	51	1
563.1128	1	21	n/a	n/a	1	51	0
564.3794	1	10	n/a	n/a	1	51	1
565.4626	1	10	n/a	n/a	1	51	2
566.796	1	10	n/a	n/a	1	51	3
567.9458	1	10	n/a	n/a	1	51	4
569.0624	1	10	n/a	n/a	1	51	5
570.179	1	21	n/a	n/a	1	51	0
571.379	1	10	n/a	n/a	1	51	1
572.579	1	21	n/a	n/a	1	51	0
573.7622	1	10	n/a	n/a	1	51	1
575.0288	1	10	n/a	n/a	1	51	2
575.7592	1	81	n/a	n/a	1	0	0
575.9592	1	81	n/a	n/a	1	0	0
576.1592	1	81	n/a	n/a	1	0	0
576.3592	1	81	n/a	n/a	1	0	0
576.5592	1	81	n/a	n/a	1	0	0
576.7592	1	81	n/a	n/a	1	0	0
576.9592	1	81	n/a	n/a	1	0	0
577.1592	1	81	n/a	n/a	1	0	0
577.3592	1	81	n/a	n/a	1	0	0
577.5592	1	81	n/a	n/a	1	0	0
578.7952	1	10	n/a	n/a	1	51	1
579.8286	1	10	n/a	n/a	1	51	2
580.8952	1	10	n/a	n/a	1	51	3
581.945	1	10	n/a	n/a	1	51	4
583.1284	1	10	n/a	n/a	1	51	5
584.3116	1	21	n/a	n/a	1	51	0
585.4448	1	10	n/a	n/a	1	51	1
586.5782	1	21	n/a	n/a	1	51	0
587.6448	1	10	n/a	n/a	1	51	1
588.6946	1	10	n/a	n/a	1	51	2
590.0112	1	10	n/a	n/a	1	51	3
591.3278	1	21	n/a	n/a	1	51	0
592.4278	1	10	n/a	n/a	1	51	1
593.5278	1	21	n/a	n/a	1	51	0
594.6276	1	10	n/a	n/a	1	51	1
595.7276	1	21	n/a	n/a	1	51	0
596.8608	1	10	n/a	n/a	1	51	1
598.1774	1	10	n/a	n/a	1	51	2
599.2774	1	10	n/a	n/a	1	51	3
600.3774	1	21	n/a	n/a	1	51	0
703.1996	1	82	n/a	n/a	1	0	0
703.2516	1	82	n/a	n/a	1	0	0
703.5876	1	82	n/a	n/a	1	0	0
704.0146	1	82	n/a	n/a	1	0	0
704.1136	1	82	n/a	n/a	1	0	0
704.1996	1	82	n/a	n/a	1	0	0
704.4306	1	82	n/a	n/a	1	0	0
704.6906	1	82	n/a	n/a	1	0	0
704.8286	1	82	n/a	n/a	1	0	0
704.8656	1	82	n/a	n/a	1	0	0
706.2044	1	10	n/a	n/a	1	52	1
707.321	1	21	n/a	n/a	1	52	0
708.5876	1	10	n/a	n/a	1	52	1
709.8708	1	10	n/a	n/a	1	52	2
711.1874	1	10	n/a	n/a	1	52	3
712.3874	1	10	n/a	n/a	1	52	4
713.5372	1	10	n/a	n/a	1	52	5
714.6872	1	21	n/a	n/a	1	52	0
715.7872	1	10	n/a	n/a	1	52	1
717.0538	1	10	n/a	n/a	1	52	2
718.3036	1	10	n/a	n/a	1	52	3
719.487	1	10	n/a	n/a	1	52	4
720.6536	1	10	n/a	n/a	1	52	5
721.9034	1	10	n/a	n/a	1	52	6
723.0868	1	10	n/a	n/a	1	52	7
724.27	1	21	n/a	n/a	1	52	0
725.5032	1	10	n/a	n/a	1	52	1
726.7366	1	21	n/a	n/a	1	52	0
727.9198	1	10	n/a	n/a	1	52	1
729.0864	1	10	n/a	n/a	1	52	2
730.0718	1	82	n/a	n/a	1	0	0
730.2388	1	82	n/a	n/a	1	0	0
730.3218	1	82	n/a	n/a	1	0	0
730.6218	1	82	n/a	n/a	1	0	0
730.8698	1	82	n/a	n/a	1	0	0
731.0718	1	82	n/a	n/a	1	0	0
731.3108	1	82	n/a	n/a	1	0	0
731.3848	1	82	n/a	n/a	1	0	0
731.7888	1	82	n/a	n/a	1	0	0
731.8928	1	82	n/a	n/a	1	0	0
733.0194	1	10	n/a	n/a	1	52	1
734.2694	1	10	n/a	n/a	1	52	2
735.3026	1	10	n/a	n/a	1	52	3
736.6192	1	10	n/a	n/a	1	52	4
737.9026	1	10	n/a	n/a	1	52	5
739.1858	1	21	n/a	n/a	1	52	0
740.3356	1	10	n/a	n/a	1	52	1
741.369	1	10	n/a	n/a	1	52	2
742.619	1	10	n/a	n/a	1	52	3
743.6856	1	10	n/a	n/a	1	52	4
744.8188	1	10	n/a	n/a	1	52	5
745.952	1	21	n/a	n/a	1	52	0
747.202	1	10	n/a	n/a	1	52	1
748.3352	1	10	n/a	n/a	1	52	2
749.5518	1	10	n/a	n/a	1	52	3
750.7684	1	21	n/a	n/a	1	52	0
751.885	1	10	n/a	n/a	1	52	1
753.0682	1	10	n/a	n/a	1	52	2
754.1016	1	10	n/a	n/a	1	52	3
755.1348	1	21	n/a	n/a	1	52	0
756.0706	1	82	n/a	n/a	1	0	0
756.4876	1	82	n/a	n/a	1	0	0
756.5086	1	82	n/a	n/a	1	0	0
756.7206	1	82	n/a	n/a	1	0	0
756.8836	1	82	n/a	n/a	1	0	0
757.0706	1	82	n/a	n/a	1	0	0
757.1716	1	82	n/a	n/a	1	0	0
757.2336	1	82	n/a	n/a	1	0	0
757.5436	1	82	n/a	n/a	1	0	0
757.5726	1	82	n/a	n/a	1	0	0
759.1846	1	10	n/a	n/a	1	52	1
760.3678	1	10	n/a	n/a	1	52	2
761.6178	1	10	n/a	n/a	1	52	3
762.6678	1	10	n/a	n/a	1	52	4
763.9676	1	10	n/a	n/a	1	52	5
765.1342	1	10	n/a	n/a	1	52	6
766.3674	1	10	n/a	n/a	1	52	7
767.6008	1	21	n/a	n/a	1	52	0
768.634	1	10	n/a	n/a	1	52	1
769.7506	1	10	n/a	n/a	1	52	2
770.7838	1	10	n/a	n/a	1	52	3
771.8172	1	10	n/a	n/a	1	52	4
773.0838	1	10	n/a	n/a	1	52	5
774.3004	1	10	n/a	n/a	1	52	6
775.4504	1	10	n/a	n/a	1	52	7
776.6002	1	21	n/a	n/a	1	52	0
777.9168	1	10	n/a	n/a	1	52	1
779.0834	1	10	n/a	n/a	1	52	2
780.2834	1	10	n/a	n/a	1	52	3
781.4	1	10	n/a	n/a	1	52	4
782.3744	1	82	n/a	n/a	1	0	0
782.4494	1	82	n/a	n/a	1	0	0
782.5864	1	82	n/a	n/a	1	0	0
783.0104	1	82	n/a	n/a	1	0	0
783.2984	1	82	n/a	n/a	1	0	0
783.3744	1	82	n/a	n/a	1	0	0
783.4704	1	82	n/a	n/a	1	0	0
783.7994	1	82	n/a	n/a	1	0	0
784.0794	1	82	n/a	n/a	1	0	0
784.2154	1	82	n/a	n/a	1	0	0
785.4664	1	10	n/a	n/a	1	52	1
786.6164	1	10	n/a	n/a	1	52	2
787.8662	1	10	n/a	n/a	1	52	3
789.0994	1	10	n/a	n/a	1	52	4
790.366	1	10	n/a	n/a	1	52	5
791.3994	1	10	n/a	n/a	1	52	6
792.4492	1	10	n/a	n/a	1	52	7
793.4992	1	21	n/a	n/a	1	52	0
794.5824	1	10	n/a	n/a	1	52	1
795.8158	1	10	n/a	n/a	1	52	2
797.1156	1	10	n/a	n/a	1	52	3
798.249	1	10	n/a	n/a	1	52	4
799.2988	1	10	n/a	n/a	1	52	5
800.3488	1	21	n/a	n/a	1	52	0
801.582	1	10	n/a	n/a	1	52	1
802.8154	1	21	n/a	n/a	1	52	0
803.882	1	10	n/a	n/a	1	52	1
804.9652	1	10	n/a	n/a	1	52	2
806.1652	1	10	n/a	n/a	1	52	3
807.365	1	21	n/a	n/a	1	52	0
808.2388	1	82	n/a	n/a	1	0	0
808.3158	1	82	n/a	n/a	1	0	0
808.4558	1	82	n/a	n/a	1	0	0
808.7968	1	82	n/a	n/a	1	0	0
808.9618	1	82	n/a	n/a	1	0	0
809.2388	1	82	n/a	n/a	1	0	0
809.4628	1	82	n/a	n/a	1	0	0
809.7118	1	82	n/a	n/a	1	0	0
809.7478	1	82	n/a	n/a	1	0	0
810.0638	1	82	n/a	n/a	1	0	0
811.1816	1	10	n/a	n/a	1	52	1
812.3648	1	10	n/a	n/a	1	52	2
813.5148	1	10	n/a	n/a	1	52	3
814.6646	1	21	n/a	n/a	1	52	0
815.798	1	10	n/a	n/a	1	52	1
817.0478	1	10	n/a	n/a	1	52	2
818.1978	1	10	n/a	n/a	1	52	3
819.3478	1	21	n/a	n/a	1	52	0
820.581	1	10	n/a	n/a	1	52	1
821.8142	1	21	n/a	n/a	1	52	0
823.0474	1	10	n/a	n/a	1	52	1
824.2808	1	21	n/a	n/a	1	52	0
825.564	1	10	n/a	n/a	1	52	1
826.6472	1	10	n/a	n/a	1	52	2
827.8138	1	10	n/a	n/a	1	52	3
829.0972	1	10	n/a	n/a	1	52	4
830.3638	1	10	n/a	n/a	1	52	5
831.6304	1	21	n/a	n/a	1	52	0
832.7136	1	10	n/a	n/a	1	52	1
833.9802	1	10	n/a	n/a	1	52	2
843.137	1	81	n/a	n/a	1	0	0
843.337	1	81	n/a	n/a	1	0	0
843.537	1	81	n/a	n/a	1	0	0
843.737	1	81	n/a	n/a	1	0	0
843.937	1	81	n/a	n/a	1	0	0
844.137	1	81	n/a	n/a	1	0	0
844.337	1	81	n/a	n/a	1	0	0
844.537	1	81	n/a	n/a	1	0	0
844.737	1	81	n/a	n/a	1	0	0
844.937	1	81	n/a	n/a	1	0	0
846.1128	1	10	n/a	n/a	1	50	1
847.3794	1	10	n/a	n/a	1	50	2
848.5294	1	10	n/a	n/a	1	50	3
849.8126	1	10	n/a	n/a	1	50	4
850.9292	1	10	n/a	n/a	1	50	5
851.9624	1	10	n/a	n/a	1	50	6
853.179	1	10	n/a	n/a	1	50	7
854.3956	1	21	n/a	n/a	1	50	0
855.6788	1	10	n/a	n/a	1	50	1
856.9954	1	10	n/a	n/a	1	50	2
858.062	1	10	n/a	n/a	1	50	3
859.1786	1	10	n/a	n/a	1	50	4
860.2786	1	10	n/a	n/a	1	50	5
861.3786	1	21	n/a	n/a	1	50	0
862.6618	1	10	n/a	n/a	1	50	1
863.945	1	21	n/a	n/a	1	50	0
864.9784	1	10	n/a	n/a	1	50	1
866.2282	1	10	n/a	n/a	1	50	2
867.4448	1	10	n/a	n/a	1	50	3
868.6114	1	10	n/a	n/a	1	50	4
869.3438	1	81	n/a	n/a	1	0	0
869.5438	1	81	n/a	n/a	1	0	0
869.7438	1	81	n/a	n/a	1	0	0
869.9438	1	81	n/a	n/a	1	0	0
870.1438	1	81	n/a	n/a	1	0	0
870.3438	1	81	n/a	n/a	1	0	0
870.5438	1	81	n/a	n/a	1	0	0
870.7438	1	81	n/a	n/a	1	0	0
870.9438	1	81	n/a	n/a	1	0	0
871.1438	1	81	n/a	n/a	1	0	0
872.328	1	10	n/a	n/a	1	50	1
873.4112	1	10	n/a	n/a	1	50	2
874.4778	1	10	n/a	n/a	1	50	3
875.5444	1	21	n/a	n/a	1	50	0
876.861	1	10	n/a	n/a	1	50	1
877.8942	1	10	n/a	n/a	1	50	2
879.0442	1	10	n/a	n/a	1	50	3
880.1608	1	10	n/a	n/a	1	50	4
881.3108	1	10	n/a	n/a	1	50	5
882.4606	1	21	n/a	n/a	1	50	0
883.594	1	10	n/a	n/a	1	50	1
884.7106	1	10	n/a	n/a	1	50	2
885.8438	1	10	n/a	n/a	1	50	3
886.9604	1	10	n/a	n/a	1	50	4
888.177	1	10	n/a	n/a	1	50	5
889.2936	1	10	n/a	n/a	1	50	6
890.5768	1	10	n/a	n/a	1	50	7
891.86	1	21	n/a	n/a	1	50	0
893.1266	1	10	n/a	n/a	1	50	1
894.41	1	10	n/a	n/a	1	50	2
895.3634	1	81	n/a	n/a	1	0	0
895.5634	1	81	n/a	n/a	1	0	0
895.7634	1	81	n/a	n/a	1	0	0
895.9634	1	81	n/a	n/a	1	0	0
896.1634	1	81	n/a	n/a	1	0	0
896.3634	1	81	n/a	n/a	1	0	0
896.5634	1	81	n/a	n/a	1	0	0
896.7634	1	81	n/a	n/a	1	0	0
896.9634	1	81	n/a	n/a	1	0	0
897.1634	1	81	n/a	n/a	1	0	0
898.4098	1	10	n/a	n/a	1	50	1
899.693	1	10	n/a	n/a	1	50	2
900.8762	1	10	n/a	n/a	1	50	3
901.9596	1	10	n/a	n/a	1	50	4
903.0594	1	10	n/a	n/a	1	50	5
904.1594	1	21	n/a	n/a	1	50	0
905.3926	1	10	n/a	n/a	1	50	1
906.4592	1	10	n/a	n/a	1	50	2
907.6258	1	10	n/a	n/a	1	50	3
908.9258	1	10	n/a	n/a	1	50	4
910.1924	1	10	n/a	n/a	1	50	5
911.459	1	21	n/a	n/a	1	50	0
912.4922	1	10	n/a	n/a	1	50	1
913.6588	1	10	n/a	n/a	1	50	2
914.9088	1	10	n/a	n/a	1	50	3
915.942	1	10	n/a	n/a	1	50	4
916.9752	1	10	n/a	n/a	1	50	5
918.0418	1	10	n/a	n/a	1	50	6
919.3418	1	10	n/a	n/a	1	50	7
920.6418	1	21	n/a	n/a	1	50	0
921.6074	1	81	n/a	n/a	1	0	0
921.8074	1	81	n/a	n/a	1	0	0
922.0074	1	81	n/a	n/a	1	0	0
922.2074	1	81	n/a	n/a	1	0	0
922.4074	1	81	n/a	n/a	1	0	0
922.6074	1	81	n/a	n/a	1	0	0
922.8074	1	81	n/a	n/a	1	0	0
923.0074	1	81	n/a	n/a	1	0	0
923.2074	1	81	n/a	n/a	1	0	0
923.4074	1	81	n/a	n/a	1	0	0
924.7582	1	10	n/a	n/a	1	50	1
926.0748	1	10	n/a	n/a	1	50	2
927.3746	1	10	n/a	n/a	1	50	3
928.6746	1	21	n/a	n/a	1	50	0
929.9078	1	10	n/a	n/a	1	50	1
931.1578	1	10	n/a	n/a	1	50	2
932.191	1	10	n/a	n/a	1	50	3
933.2744	1	10	n/a	n/a	1	50	4
934.4242	1	10	n/a	n/a	1	50	5
935.5742	1	21	n/a	n/a	1	50	0
936.8908	1	10	n/a	n/a	1	50	1
938.0408	1	10	n/a	n/a	1	50	2
939.1406	1	10	n/a	n/a	1	50	3
940.374	1	10	n/a	n/a	1	50	4
941.4072	1	10	n/a	n/a	1	50	5
942.4404	1	21	n/a	n/a	1	50	0
943.6904	1	10	n/a	n/a	1	50	1
944.9404	1	21	n/a	n/a	1	50	0
946.0736	1	10	n/a	n/a	1	50	1
947.3402	1	10	n/a	n/a	1	50	2
948.0796	1	81	n/a	n/a	1	0	0
948.2796	1	81	n/a	n/a	1	0	0
948.4796	1	81	n/a	n/a	1	0	0
948.6796	1	81	n/a	n/a	1	0	0
948.8796	1	81	n/a	n/a	1	0	0
949.0796	1	81	n/a	n/a	1	0	0
949.2796	1	81	n/a	n/a	1	0	0
949.4796	1	81	n/a	n/a	1	0	0
949.6796	1	81	n/a	n/a	1	0	0
949.8796	1	81	n/a	n/a	1	0	0
951.0232	1	10	n/a	n/a	1	50	1
952.2066	1	10	n/a	n/a	1	50	2
953.5398	1	10	n/a	n/a	1	50	3
954.873	1	21	n/a	n/a	1	50	0
955.9064	1	10	n/a	n/a	1	50	1
957.223	1	10	n/a	n/a	1	50	2
958.4228	1	10	n/a	n/a	1	50	3
959.4728	1	10	n/a	n/a	1	50	4
960.5228	1	10	n/a	n/a	1	50	5
961.5894	1	10	n/a	n/a	1	50	6
962.8726	1	10	n/a	n/a	1	50	7
964.1558	1	21	n/a	n/a	1	50	0
965.4392	1	10	n/a	n/a	1	50	1
966.6056	1	10	n/a	n/a	1	50	2
967.889	1	10	n/a	n/a	1	50	3
969.0556	1	10	n/a	n/a	1	50	4
970.2888	1	10	n/a	n/a	1	50	5
971.3554	1	10	n/a	n/a	1	50	6
972.5886	1	10	n/a	n/a	1	50	7
973.822	1	21	n/a	n/a	1	50	0
1001.93	1	81	n/a	n/a	1	0	0
1002.13	1	81	n/a	n/a	1	0	0
1002.33	1	81	n/a	n/a	1	0	0
1002.53	1	81	n/a	n/a	1	0	0
1002.73	1	81	n/a	n/a	1	0	0
1002.93	1	81	n/a	n/a	1	0	0
1003.13	1	81	n/a	n/a	1	0	0
1003.33	1	81	n/a	n/a	1	0	0
1003.53	1	81	n/a	n/a	1	0	0
1003.73	1	81	n/a	n/a	1	0	0
1005.0034	1	10	n/a	n/a	1	51	1
1006.1868	1	21	n/a	n/a	1	51	0
1007.3866	1	10	n/a	n/a	1	51	1
1008.6532	1	10	n/a	n/a	1	51	2
1009.7032	1	10	n/a	n/a	1	51	3
1010.9364	1	10	n/a	n/a	1	51	4
1012.2364	1	10	n/a	n/a	1	51	5
1013.453	1	10	n/a	n/a	1	51	6
1014.7196	1	10	n/a	n/a	1	51	7
1015.9862	1	21	n/a	n/a	1	51	0
1017.2528	1	10	n/a	n/a	1	51	1
1018.3526	1	10	n/a	n/a	1	51	2
1019.636	1	10	n/a	n/a	1	51	3
1020.9026	1	10	n/a	n/a	1	51	4
1022.169	1	10	n/a	n/a	1	51	5
1023.4356	1	21	n/a	n/a	1	51	0
1024.6356	1	10	n/a	n/a	1	51	1
1025.7522	1	10	n/a	n/a	1	51	2
1026.8688	1	10	n/a	n/a	1	51	3
1028.002	1	10	n/a	n/a	1	51	4
1028.7216	1	81	n/a	n/a	1	0	0
1028.9216	1	81	n/a	n/a	1	0	0
1029.1216	1	81	n/a	n/a	1	0	0
1029.3216	1	81	n/a	n/a	1	0	0
1029.5216	1	81	n/a	n/a	1	0	0
1029.7216	1	81	n/a	n/a	1	0	0
1029.9216	1	81	n/a	n/a	1	0	0
1030.1216	1	81	n/a	n/a	1	0	0
1030.3216	1	81	n/a	n/a	1	0	0
1030.5216	1	81	n/a	n/a	1	0	0
1031.8686	1	10	n/a	n/a	1	51	1
1033.1518	1	10	n/a	n/a	1	51	2
1034.185	1	10	n/a	n/a	1	51	3
1035.235	1	10	n/a	n/a	1	51	4
1036.435	1	10	n/a	n/a	1	51	5
1037.6016	1	10	n/a	n/a	1	51	6
1038.8182	1	10	n/a	n/a	1	51	7
1040.0348	1	21	n/a	n/a	1	51	0
1041.1014	1	10	n/a	n/a	1	51	1
1042.2346	1	10	n/a	n/a	1	51	2
1043.4346	1	10	n/a	n/a	1	51	3
1044.6678	1	10	n/a	n/a	1	51	4
1045.9178	1	10	n/a	n/a	1	51	5
1047.2176	1	10	n/a	n/a	1	51	6
1048.5342	1	10	n/a	n/a	1	51	7
1049.8508	1	21	n/a	n/a	1	51	0
1050.9674	1	10	n/a	n/a	1	51	1
1052.2174	1	10	n/a	n/a	1	51	2
1053.334	1	10	n/a	n/a	1	51	3
1054.5838	1	10	n/a	n/a	1	51	4
1055.5454	1	81	n/a	n/a	1	0	0
1055.7454	1	81	n/a	n/a	1	0	0
1055.9454	1	81	n/a	n/a	1	0	0
1056.1454	1	81	n/a	n/a	1	0	0
1056.3454	1	81	n/a	n/a	1	0	0
1056.5454	1	81	n/a	n/a	1	0	0
1056.7454	1	81	n/a	n/a	1	0	0
1056.9454	1	81	n/a	n/a	1	0	0
1057.1454	1	81	n/a	n/a	1	0	0
1057.3454	1	81	n/a	n/a	1	0	0
1058.7002	1	10	n/a	n/a	1	51	1
1059.9668	1	21	n/a	n/a	1	51	0
1061.0834	1	10	n/a	n/a	1	51	1
1062.35	1	10	n/a	n/a	1	51	2
1063.5834	1	10	n/a	n/a	1	51	3
1064.8166	1	21	n/a	n/a	1	51	0
1066.0498	1	10	n/a	n/a	1	51	1
1067.3664	1	10	n/a	n/a	1	51	2
1068.483	1	10	n/a	n/a	1	51	3
1069.5996	1	21	n/a	n/a	1	51	0
1070.7162	1	10	n/a	n/a	1	51	1
1071.9828	1	10	n/a	n/a	1	51	2
1073.0828	1	10	n/a	n/a	1	51	3
1074.1328	1	10	n/a	n/a	1	51	4
1075.366	1	10	n/a	n/a	1	51	5
1076.5492	1	10	n/a	n/a	1	51	6
1077.6658	1	10	n/a	n/a	1	51	7
1078.7824	1	21	n/a	n/a	1	51	0
1080.0824	1	10	n/a	n/a	1	51	1
1081.199	1	10	n/a	n/a	1	51	2
1082.2244	1	81	n/a	n/a	1	0	0
1082.4244	1	81	n/a	n/a	1	0	0
1082.6244	1	81	n/a	n/a	1	0	0
1082.8244	1	81	n/a	n/a	1	0	0
1083.0244	1	81	n/a	n/a	1	0	0
1083.2244	1	81	n/a	n/a	1	0	0
1083.4244	1	81	n/a	n/a	1	0	0
1083.6244	1	81	n/a	n/a	1	0	0
1083.8244	1	81	n/a	n/a	1	0	0
1084.0244	1	81	n/a	n/a	1	0	0
1085.2654	1	10	n/a	n/a	1	51	1
1086.4654	1	10	n/a	n/a	1	51	2
1087.732	1	10	n/a	n/a	1	51	3
1089.0318	1	10	n/a	n/a	1	51	4
1090.2318	1	10	n/a	n/a	1	51	5
1091.4316	1	10	n/a	n/a	1	51	6
1092.7482	1	10	n/a	n/a	1	51	7
1094.0648	1	21	n/a	n/a	1	51	0
1095.1648	1	10	n/a	n/a	1	51	1
1096.2648	1	21	n/a	n/a	1	51	0
1097.4814	1	10	n/a	n/a	1	51	1
1098.698	1	21	n/a	n/a	1	51	0
1099.8812	1	10	n/a	n/a	1	51	1
1100.9144	1	10	n/a	n/a	1	51	2
1102.231	1	10	n/a	n/a	1	51	3
1103.4144	1	10	n/a	n/a	1	51	4
1104.531	1	10	n/a	n/a	1	51	5
1105.7476	1	10	n/a	n/a	1	51	6
1106.7808	1	10	n/a	n/a	1	51	7
1107.814	1	21	n/a	n/a	1	51	0
1108.8248	1	81	n/a	n/a	1	0	0
1109.0248	1	81	n/a	n/a	1	0	0
1109.2248	1	81	n/a	n/a	1	0	0
1109.4248	1	81	n/a	n/a	1	0	0
1109.6248	1	81	n/a	n/a	1	0	0
1109.8248	1	81	n/a	n/a	1	0	0
1110.0248	1	81	n/a	n/a	1	0	0
1110.2248	1	81	n/a	n/a	1	0	0
1110.4248	1	81	n/a	n/a	1	0	0
1110.6248	1	81	n/a	n/a	1	0	0
1111.7638	1	10	n/a	n/a	1	51	1
1112.8138	1	21	n/a	n/a	1	51	0
1113.847	1	10	n/a	n/a	1	51	1
1114.8804	1	21	n/a	n/a	1	51	0
1115.9136	1	10	n/a	n/a	1	51	1
1116.9968	1	10	n/a	n/a	1	51	2
1118.1802	1	10	n/a	n/a	1	51	3
1119.43	1	10	n/a	n/a	1	51	4
1120.4966	1	10	n/a	n/a	1	51	5
1121.5632	1	21	n/a	n/a	1	51	0
1122.6632	1	10	n/a	n/a	1	51	1
1123.7298	1	10	n/a	n/a	1	51	2
1124.9464	1	10	n/a	n/a	1	51	3
1126.1796	1	21	n/a	n/a	1	51	0
1127.463	1	10	n/a	n/a	1	51	1
1128.7462	1	10	n/a	n/a	1	51	2
1129.7962	1	10	n/a	n/a	1	51	3
1130.8794	1	10	n/a	n/a	1	51	4
1132.1126	1	10	n/a	n/a	1	51	5
1133.1626	1	10	n/a	n/a	1	51	6
1188.5024	1	81	n/a	n/a	1	0	0
1188.7024	1	81	n/a	n/a	1	0	0
1188.9024	1	81	n/a	n/a	1	0	0
1189.1024	1	81	n/a	n/a	1	0	0
1189.3024	1	81	n/a	n/a	1	0	0
1189.5024	1	81	n/a	n/a	1	0	0
1189.7024	1	81	n/a	n/a	1	0	0
1189.9024	1	81	n/a	n/a	1	0	0
1190.1024	1	81	n/a	n/a	1	0	0
1190.3024	1	81	n/a	n/a	1	0	0
1191.5924	1	10	n/a	n/a	1	51	1
1192.759	1	10	n/a	n/a	1	51	2
1193.9256	1	10	n/a	n/a	1	51	3
1195.1422	1	10	n/a	n/a	1	51	4
1196.2588	1	10	n/a	n/a	1	51	5
1197.4922	1	10	n/a	n/a	1	51	6
1198.742	1	10	n/a	n/a	1	51	7
1199.992	1	21	n/a	n/a	1	51	0
1201.042	1	10	n/a	n/a	1	51	1
1202.0918	1	21	n/a	n/a	1	51	0
1203.1584	1	10	n/a	n/a	1	51	1
1204.3084	1	10	n/a	n/a	1	51	2
1205.5084	1	10	n/a	n/a	1	51	3
1206.7082	1	21	n/a	n/a	1	51	0
1207.7416	1	10	n/a	n/a	1	51	1
1209.0414	1	10	n/a	n/a	1	51	2
1210.258	1	10	n/a	n/a	1	51	3
1211.4746	1	21	n/a	n/a	1	51	0
1212.6578	1	10	n/a	n/a	1	51	1
1213.9244	1	10	n/a	n/a	1	51	2
1214.9588	1	81	n/a	n/a	1	0	0
1215.1588	1	81	n/a	n/a	1	0	0
1215.3588	1	81	n/a	n/a	1	0	0
1215.5588	1	81	n/a	n/a	1	0	0
1215.7588	1	81	n/a	n/a	1	0	0
1215.959	1	81	n/a	n/a	1	0	0
1216.159	1	81	n/a	n/a	1	0	0
1216.359	1	81	n/a	n/a	1	0	0
1216.559	1	81	n/a	n/a	1	0	0
1216.759	1	81	n/a	n/a	1	0	0
1217.941	1	10	n/a	n/a	1	51	1
1219.0742	1	10	n/a	n/a	1	51	2
1220.3408	1	10	n/a	n/a	1	51	3
1221.5908	1	10	n/a	n/a	1	51	4
1222.6406	1	10	n/a	n/a	1	51	5
1223.924	1	10	n/a	n/a	1	51	6
1225.0072	1	10	n/a	n/a	1	51	7
1226.0904	1	21	n/a	n/a	1	51	0
1227.2738	1	10	n/a	n/a	1	51	1
1228.4736	1	10	n/a	n/a	1	51	2
1229.5402	1	10	n/a	n/a	1	51	3
1230.7568	1	10	n/a	n/a	1	51	4
1231.9734	1	10	n/a	n/a	1	51	5
1233.19	1	21	n/a	n/a	1	51	0
1234.39	1	10	n/a	n/a	1	51	1
1235.4232	1	10	n/a	n/a	1	51	2
1236.6898	1	10	n/a	n/a	1	51	3
1237.9564	1	21	n/a	n/a	1	51	0
1239.123	1	10	n/a	n/a	1	51	1
1240.2896	1	21	n/a	n/a	1	51	0
1241.1582	1	81	n/a	n/a	1	0	0
1241.3582	1	81	n/a	n/a	1	0	0
1241.5582	1	81	n/a	n/a	1	0	0
1241.7582	1	81	n/a	n/a	1	0	0
1241.9582	1	81	n/a	n/a	1	0	0
1242.1582	1	81	n/a	n/a	1	0	0
1242.3582	1	81	n/a	n/a	1	0	0
1242.5582	1	81	n/a	n/a	1	0	0
1242.7582	1	81	n/a	n/a	1	0	0
1242.9582	1	81	n/a	n/a	1	0	0
1244.2228	1	10	n/a	n/a	1	51	1
1245.2726	1	10	n/a	n/a	1	51	2
1246.4392	1	10	n/a	n/a	1	51	3
1247.5226	1	10	n/a	n/a	1	51	4
1248.6058	1	10	n/a	n/a	1	51	5
1249.689	1	21	n/a	n/a	1	51	0
1250.7224	1	10	n/a	n/a	1	51	1
1251.9722	1	10	n/a	n/a	1	51	2
1253.0056	1	10	n/a	n/a	1	51	3
1254.0554	1	10	n/a	n/a	1	51	4
1255.172	1	10	n/a	n/a	1	51	5
1256.3054	1	10	n/a	n/a	1	51	6
1257.5886	1	10	n/a	n/a	1	51	7
1258.8718	1	21	n/a	n/a	1	51	0
1260.0884	1	10	n/a	n/a	1	51	1
1261.2884	1	10	n/a	n/a	1	51	2
1262.405	1	10	n/a	n/a	1	51	3
1263.5216	1	21	n/a	n/a	1	51	0
1264.6048	1	10	n/a	n/a	1	51	1
1265.8548	1	10	n/a	n/a	1	51	2
1266.6012	1	81	n/a	n/a	1	0	0
1266.8012	1	81	n/a	n/a	1	0	0
1267.0012	1	81	n/a	n/a	1	0	0
1267.2012	1	81	n/a	n/a	1	0	0
1267.4012	1	81	n/a	n/a	1	0	0
1267.6012	1	81	n/a	n/a	1	0	0
1267.8012	1	81	n/a	n/a	1	0	0
1268.0012	1	81	n/a	n/a	1	0	0
1268.2012	1	81	n/a	n/a	1	0	0
1268.4012	1	81	n/a	n/a	1	0	0
1269.5712	1	10	n/a	n/a	1	51	1
1270.8378	1	10	n/a	n/a	1	51	2
1271.8878	1	10	n/a	n/a	1	51	3
1272.9544	1	10	n/a	n/a	1	51	4
1274.1542	1	10	n/a	n/a	1	51	5
1275.3542	1	21	n/a	n/a	1	51	0
1276.6042	1	10	n/a	n/a	1	51	1
1277.6374	1	10	n/a	n/a	1	51	2
1278.8874	1	10	n/a	n/a	1	51	3
1280.004	1	10	n/a	n/a	1	51	4
1281.2038	1	10	n/a	n/a	1	51	5
1282.4038	1	21	n/a	n/a	1	51	0
1283.4704	1	10	n/a	n/a	1	51	1
1284.737	1	10	n/a	n/a	1	51	2
1285.987	1	10	n/a	n/a	1	51	3
1287.0702	1	10	n/a	n/a	1	51	4
1288.1202	1	10	n/a	n/a	1	51	5
1289.27	1	10	n/a	n/a	1	51	6
1290.42	1	10	n/a	n/a	1	51	7
1291.5532	1	21	n/a	n/a	1	51	0
1292.5898	1	81	n/a	n/a	1	0	0
1292.7898	1	81	n/a	n/a	1	0	0
1292.9898	1	81	n/a	n/a	1	0	0
1293.1898	1	81	n/a	n/a	1	0	0
1293.3898	1	81	n/a	n/a	1	0	0
1293.5906	1	81	n/a	n/a	1	0	0
1293.7906	1	81	n/a	n/a	1	0	0
1293.9906	1	81	n/a	n/a	1	0	0
1294.1906	1	81	n/a	n/a	1	0	0
1294.3906	1	81	n/a	n/a	1	0	0
1295.7364	1	10	n/a	n/a	1	51	1
1296.9862	1	10	n/a	n/a	1	51	2
1298.0528	1	10	n/a	n/a	1	51	3
1299.2362	1	10	n/a	n/a	1	51	4
1300.3528	1	10	n/a	n/a	1	51	5
1301.6526	1	10	n/a	n/a	1	51	6
1302.8026	1	10	n/a	n/a	1	51	7
1303.9526	1	21	n/a	n/a	1	51	0
1305.2024	1	10	n/a	n/a	1	51	1
1306.4858	1	10	n/a	n/a	1	51	2
1307.8024	1	10	n/a	n/a	1	51	3
1309.0522	1	10	n/a	n/a	1	51	4
1310.2356	1	10	n/a	n/a	1	51	5
1311.5354	1	10	n/a	n/a	1	51	6
1312.7354	1	10	n/a	n/a	1	51	7
1313.9352	1	21	n/a	n/a	1	51	0
1315.1018	1	10	n/a	n/a	1	51	1
1316.2684	1	21	n/a	n/a	1	51	0
1317.4684	1	10	n/a	n/a	1	51	1
1318.5016	1	10	n/a	n/a	1	51	2
1326.7432	1	81	n/a	n/a	1	0	0
1326.9432	1	81	n/a	n/a	1	0	0
1327.1432	1	81	n/a	n/a	1	0	0
1327.3432	1	81	n/a	n/a	1	0	0
1327.5432	1	81	n/a	n/a	1	0	0
1327.7432	1	81	n/a	n/a	1	0	0
1327.9432	1	81	n/a	n/a	1	0	0
1328.1432	1	81	n/a	n/a	1	0	0
1328.3432	1	81	n/a	n/a	1	0	0
1328.5432	1	81	n/a	n/a	1	0	0
1329.6844	1	10	n/a	n/a	1	50	1
1330.751	1	21	n/a	n/a	1	50	0
1331.8676	1	10	n/a	n/a	1	50	1
1332.9508	1	10	n/a	n/a	1	50	2
1334.134	1	10	n/a	n/a	1	50	3
1335.3174	1	21	n/a	n/a	1	50	0
1336.4174	1	10	n/a	n/a	1	50	1
1337.5006	1	10	n/a	n/a	1	50	2
1338.6006	1	10	n/a	n/a	1	50	3
1339.8504	1	10	n/a	n/a	1	50	4
1340.9004	1	10	n/a	n/a	1	50	5
1342.017	1	10	n/a	n/a	1	50	6
1343.2002	1	10	n/a	n/a	1	50	7
1344.3836	1	21	n/a	n/a	1	50	0
1345.5668	1	10	n/a	n/a	1	50	1
1346.8834	1	10	n/a	n/a	1	50	2
1348.15	1	10	n/a	n/a	1	50	3
1349.3666	1	10	n/a	n/a	1	50	4
1350.3998	1	10	n/a	n/a	1	50	5
1351.433	1	21	n/a	n/a	1	50	0
1352.2624	1	81	n/a	n/a	1	0	0
1352.4624	1	81	n/a	n/a	1	0	0
1352.6624	1	81	n/a	n/a	1	0	0
1352.8624	1	81	n/a	n/a	1	0	0
1353.0624	1	81	n/a	n/a	1	0	0
1353.2624	1	81	n/a	n/a	1	0	0
1353.4624	1	81	n/a	n/a	1	0	0
1353.6624	1	81	n/a	n/a	1	0	0
1353.8624	1	81	n/a	n/a	1	0	0
1354.0624	1	81	n/a	n/a	1	0	0
1355.4328	1	10	n/a	n/a	1	50	1
1356.7162	1	10	n/a	n/a	1	50	2
1357.916	1	10	n/a	n/a	1	50	3
1359.116	1	21	n/a	n/a	1	50	0
1360.2992	1	10	n/a	n/a	1	50	1
1361.5824	1	10	n/a	n/a	1	50	2
1362.699	1	10	n/a	n/a	1	50	3
1363.9324	1	10	n/a	n/a	1	50	4
1364.9822	1	10	n/a	n/a	1	50	5
1366.2656	1	10	n/a	n/a	1	50	6
1367.4488	1	10	n/a	n/a	1	50	7
1368.632	1	21	n/a	n/a	1	50	0
1369.682	1	10	n/a	n/a	1	50	1
1370.9986	1	10	n/a	n/a	1	50	2
1372.2318	1	10	n/a	n/a	1	50	3
1373.3152	1	10	n/a	n/a	1	50	4
1374.415	1	10	n/a	n/a	1	50	5
1375.665	1	10	n/a	n/a	1	50	6
1376.765	1	10	n/a	n/a	1	50	7
1377.8648	1	21	n/a	n/a	1	50	0
1378.8796	1	81	n/a	n/a	1	0	0
1379.0796	1	81	n/a	n/a	1	0	0
1379.2796	1	81	n/a	n/a	1	0	0
1379.4796	1	81	n/a	n/a	1	0	0
1379.6796	1	81	n/a	n/a	1	0	0
1379.8796	1	81	n/a	n/a	1	0	0
1380.0796	1	81	n/a	n/a	1	0	0
1380.2796	1	81	n/a	n/a	1	0	0
1380.4796	1	81	n/a	n/a	1	0	0
1380.6796	1	81	n/a	n/a	1	0	0
1381.9314	1	10	n/a	n/a	1	50	1
1383.2478	1	10	n/a	n/a	1	50	2
1384.5478	1	10	n/a	n/a	1	50	3
1385.581	1	10	n/a	n/a	1	50	4
1386.6976	1	10	n/a	n/a	1	50	5
1387.8142	1	21	n/a	n/a	1	50	0
1388.9642	1	10	n/a	n/a	1	50	1
1390.0308	1	10	n/a	n/a	1	50	2
1391.3474	1	10	n/a	n/a	1	50	3
1392.664	1	21	n/a	n/a	1	50	0
1393.7972	1	10	n/a	n/a	1	50	1
1394.9472	1	10	n/a	n/a	1	50	2
1395.9804	1	10	n/a	n/a	1	50	3
1397.0138	1	21	n/a	n/a	1	50	0
1398.2304	1	10	n/a	n/a	1	50	1
1399.3802	1	10	n/a	n/a	1	50	2
1400.5802	1	10	n/a	n/a	1	50	3
1401.8802	1	10	n/a	n/a	1	50	4
1403.0634	1	10	n/a	n/a	1	50	5
1404.2134	1	10	n/a	n/a	1	50	6
1405.0806	1	81	n/a	n/a	1	0	0
1405.2806	1	81	n/a	n/a	1	0	0
1405.4806	1	81	n/a	n/a	1	0	0
1405.6806	1	81	n/a	n/a	1	0	0
1405.8806	1	81	n/a	n/a	1	0	0
1406.0808	1	81	n/a	n/a	1	0	0
1406.2808	1	81	n/a	n/a	1	0	0
1406.4808	1	81	n/a	n/a	1	0	0
1406.6808	1	81	n/a	n/a	1	0	0
1406.8808	1	81	n/a	n/a	1	0	0
1408.1298	1	10	n/a	n/a	1	50	1
1409.363	1	10	n/a	n/a	1	50	2
1410.513	1	10	n/a	n/a	1	50	3
1411.8296	1	10	n/a	n/a	1	50	4
1413.0628	1	10	n/a	n/a	1	50	5
1414.296	1	21	n/a	n/a	1	50	0
1415.4294	1	10	n/a	n/a	1	50	1
1416.5626	1	21	n/a	n/a	1	50	0
1417.6792	1	10	n/a	n/a	1	50	1
1418.7958	1	21	n/a	n/a	1	50	0
1419.8958	1	10	n/a	n/a	1	50	1
1421.1624	1	10	n/a	n/a	1	50	2
1422.329	1	10	n/a	n/a	1	50	3
1423.3622	1	10	n/a	n/a	1	50	4
1424.5788	1	10	n/a	n/a	1	50	5
1425.7954	1	21	n/a	n/a	1	50	0
1427.0954	1	10	n/a	n/a	1	50	1
1428.2786	1	10	n/a	n/a	1	50	2
1429.5618	1	10	n/a	n/a	1	50	3
1430.6618	1	10	n/a	n/a	1	50	4
1431.6642	1	81	n/a	n/a	1	0	0
1431.8642	1	81	n/a	n/a	1	0	0
1432.0642	1	81	n/a	n/a	1	0	0
1432.2642	1	81	n/a	n/a	1	0	0
1432.4642	1	81	n/a	n/a	1	0	0
1432.6642	1	81	n/a	n/a	1	0	0
1432.8642	1	81	n/a	n/a	1	0	0
1433.0642	1	81	n/a	n/a	1	0	0
1433.2642	1	81	n/a	n/a	1	0	0
1433.4642	1	81	n/a	n/a	1	0	0
1434.6282	1	10	n/a	n/a	1	50	1
1435.8282	1	10	n/a	n/a	1	50	2
1437.1114	1	10	n/a	n/a	1	50	3
1438.3946	1	21	n/a	n/a	1	50	0
1439.5112	1	10	n/a	n/a	1	50	1
1440.6446	1	10	n/a	n/a	1	50	2
1441.7944	1	10	n/a	n/a	1	50	3
1442.9444	1	21	n/a	n/a	1	50	0
1444.211	1	10	n/a	n/a	1	50	1
1445.3276	1	10	n/a	n/a	1	50	2
1446.5442	1	10	n/a	n/a	1	50	3
1447.7608	1	21	n/a	n/a	1	50	0
1449.0106	1	10	n/a	n/a	1	50	1
1450.2606	1	21	n/a	n/a	1	50	0
1451.5606	1	10	n/a	n/a	1	50	1
1452.8272	1	10	n/a	n/a	1	50	2
1454.027	1	10	n/a	n/a	1	50	3
1455.077	1	10	n/a	n/a	1	50	4
1456.1102	1	10	n/a	n/a	1	50	5
1457.4268	1	10	n/a	n/a	1	50	6
1483.7904	1	82	n/a	n/a	1	0	0
1483.9484	1	82	n/a	n/a	1	0	0
1484.2924	1	82	n/a	n/a	1	0	0
1484.5834	1	82	n/a	n/a	1	0	0
1484.6854	1	82	n/a	n/a	1	0	0
1484.7904	1	82	n/a	n/a	1	0	0
1484.8664	1	82	n/a	n/a	1	0	0
1485.1884	1	82	n/a	n/a	1	0	0
1485.3344	1	82	n/a	n/a	1	0	0
1485.4324	1	82	n/a	n/a	1	0	0
1486.7252	1	10	n/a	n/a	1	52	1
1487.975	1	10	n/a	n/a	1	52	2
1489.0916	1	10	n/a	n/a	1	52	3
1490.2082	1	21	n/a	n/a	1	52	0
1491.3248	1	10	n/a	n/a	1	52	1
1492.4414	1	21	n/a	n/a	1	52	0
1493.6914	1	10	n/a	n/a	1	52	1
1494.9414	1	21	n/a	n/a	1	52	0
1496.0412	1	10	n/a	n/a	1	52	1
1497.1078	1	10	n/a	n/a	1	52	2
1498.2744	1	10	n/a	n/a	1	52	3
1499.5244	1	10	n/a	n/a	1	52	4
1500.741	1	10	n/a	n/a	1	52	5
1501.9576	1	21	n/a	n/a	1	52	0
1503.1576	1	10	n/a	n/a	1	52	1
1504.3408	1	10	n/a	n/a	1	52	2
1505.4908	1	10	n/a	n/a	1	52	3
1506.6406	1	21	n/a	n/a	1	52	0
1507.9072	1	10	n/a	n/a	1	52	1
1509.0238	1	10	n/a	n/a	1	52	2
1509.8154	1	82	n/a	n/a	1	0	0
1510.0464	1	82	n/a	n/a	1	0	0
1510.1044	1	82	n/a	n/a	1	0	0
1510.2154	1	82	n/a	n/a	1	0	0
1510.5044	1	82	n/a	n/a	1	0	0
1510.8154	1	82	n/a	n/a	1	0	0
1510.8694	1	82	n/a	n/a	1	0	0
1510.9584	1	82	n/a	n/a	1	0	0
1511.1494	1	82	n/a	n/a	1	0	0
1511.5414	1	82	n/a	n/a	1	0	0
1512.757	1	10	n/a	n/a	1	52	1
1513.8236	1	10	n/a	n/a	1	52	2
1515.1402	1	10	n/a	n/a	1	52	3
1516.3568	1	10	n/a	n/a	1	52	4
1517.49	1	10	n/a	n/a	1	52	5
1518.5566	1	10	n/a	n/a	1	52	6
1519.6232	1	10	n/a	n/a	1	52	7
1520.6898	1	21	n/a	n/a	1	52	0
1521.9564	1	10	n/a	n/a	1	52	1
1523.223	1	21	n/a	n/a	1	52	0
1524.423	1	10	n/a	n/a	1	52	1
1525.5728	1	10	n/a	n/a	1	52	2
1526.8228	1	10	n/a	n/a	1	52	3
1528.0728	1	10	n/a	n/a	1	52	4
1529.306	1	10	n/a	n/a	1	52	5
1530.456	1	10	n/a	n/a	1	52	6
1531.6392	1	10	n/a	n/a	1	52	7
1532.8224	1	21	n/a	n/a	1	52	0
1533.989	1	10	n/a	n/a	1	52	1
1535.0556	1	10	n/a	n/a	1	52	2
1536.0122	1	82	n/a	n/a	1	0	0
1536.0382	1	82	n/a	n/a	1	0	0
1536.1722	1	82	n/a	n/a	1	0	0
1536.4642	1	82	n/a	n/a	1	0	0
1536.8172	1	82	n/a	n/a	1	0	0
1537.0122	1	82	n/a	n/a	1	0	0
1537.3302	1	82	n/a	n/a	1	0	0
1537.4022	1	82	n/a	n/a	1	0	0
1537.5342	1	82	n/a	n/a	1	0	0
1537.6332	1	82	n/a	n/a	1	0	0
1539.172	1	10	n/a	n/a	1	52	1
1540.272	1	10	n/a	n/a	1	52	2
1541.3052	1	10	n/a	n/a	1	52	3
1542.3386	1	21	n/a	n/a	1	52	0
1543.3718	1	10	n/a	n/a	1	52	1
1544.4384	1	10	n/a	n/a	1	52	2
1545.605	1	10	n/a	n/a	1	52	3
1546.7716	1	21	n/a	n/a	1	52	0
1547.9882	1	10	n/a	n/a	1	52	1
1549.2048	1	21	n/a	n/a	1	52	0
1550.338	1	10	n/a	n/a	1	52	1
1551.6546	1	10	n/a	n/a	1	52	2
1552.9212	1	10	n/a	n/a	1	52	3
1553.9712	1	10	n/a	n/a	1	52	4
1555.0212	1	10	n/a	n/a	1	52	5
1556.071	1	21	n/a	n/a	1	52	0
1557.1876	1	10	n/a	n/a	1	52	1
1558.321	1	10	n/a	n/a	1	52	2
1559.5542	1	10	n/a	n/a	1	52	3
1560.8208	1	10	n/a	n/a	1	52	4
1561.8376	1	82	n/a	n/a	1	0	0
1561.8616	1	82	n/a	n/a	1	0	0
1562.2256	1	82	n/a	n/a	1	0	0
1562.3126	1	82	n/a	n/a	1	0	0
1562.5496	1	82	n/a	n/a	1	0	0
1562.8376	1	82	n/a	n/a	1	0	0
1562.9976	1	82	n/a	n/a	1	0	0
1563.1206	1	82	n/a	n/a	1	0	0
1563.4816	1	82	n/a	n/a	1	0	0
1563.5176	1	82	n/a	n/a	1	0	0
1564.954	1	10	n/a	n/a	1	52	1
1566.2704	1	10	n/a	n/a	1	52	2
1567.3704	1	10	n/a	n/a	1	52	3
1568.5038	1	10	n/a	n/a	1	52	4
1569.7036	1	10	n/a	n/a	1	52	5
1570.9036	1	21	n/a	n/a	1	52	0
1572.0202	1	10	n/a	n/a	1	52	1
1573.2868	1	10	n/a	n/a	1	52	2
1574.5866	1	10	n/a	n/a	1	52	3
1575.6534	1	10	n/a	n/a	1	52	4
1576.8866	1	10	n/a	n/a	1	52	5
1577.9698	1	10	n/a	n/a	1	52	6
1579.0198	1	10	n/a	n/a	1	52	7
1580.0696	1	21	n/a	n/a	1	52	0
1581.2196	1	10	n/a	n/a	1	52	1
1582.4028	1	10	n/a	n/a	1	52	2
1583.7028	1	10	n/a	n/a	1	52	3
1584.8194	1	10	n/a	n/a	1	52	4
1586.0526	1	10	n/a	n/a	1	52	5
1587.286	1	21	n/a	n/a	1	52	0
1588.0926	1	82	n/a	n/a	1	0	0
1588.1166	1	82	n/a	n/a	1	0	0
1588.4276	1	82	n/a	n/a	1	0	0
1588.6426	1	82	n/a	n/a	1	0	0
1588.9116	1	82	n/a	n/a	1	0	0
1589.0926	1	82	n/a	n/a	1	0	0
1589.3916	1	82	n/a	n/a	1	0	0
1589.4706	1	82	n/a	n/a	1	0	0
1589.6806	1	82	n/a	n/a	1	0	0
1590.0106	1	82	n/a	n/a	1	0	0
1591.2358	1	10	n/a	n/a	1	52	1
1592.3024	1	10	n/a	n/a	1	52	2
1593.5688	1	10	n/a	n/a	1	52	3
1594.6022	1	10	n/a	n/a	1	52	4
1595.6354	1	10	n/a	n/a	1	52	5
1596.6688	1	21	n/a	n/a	1	52	0
1597.8686	1	10	n/a	n/a	1	52	1
1599.1186	1	10	n/a	n/a	1	52	2
1600.4018	1	10	n/a	n/a	1	52	3
1601.5018	1	10	n/a	n/a	1	52	4
1602.6516	1	10	n/a	n/a	1	52	5
1603.785	1	10	n/a	n/a	1	52	6
1604.935	1	10	n/a	n/a	1	52	7
1606.0848	1	21	n/a	n/a	1	52	0
1607.1182	1	10	n/a	n/a	1	52	1
1608.268	1	10	n/a	n/a	1	52	2
1609.3514	1	10	n/a	n/a	1	52	3
1610.568	1	10	n/a	n/a	1	52	4
1611.7844	1	10	n/a	n/a	1	52	5
1613.051	1	10	n/a	n/a	1	52	6
1688.0172	1	82	n/a	n/a	1	0	0
1688.0672	1	82	n/a	n/a	1	0	0
1688.3672	1	82	n/a	n/a	1	0	0
1688.5062	1	82	n/a	n/a	1	0	0
1688.9032	1	82	n/a	n/a	1	0	0
1689.0172	1	82	n/a	n/a	1	0	0
1689.4212	1	82	n/a	n/a	1	0	0
1689.5602	1	82	n/a	n/a	1	0	0
1689.5852	1	82	n/a	n/a	1	0	0
1689.6582	1	82	n/a	n/a	1	0	0
1691.0132	1	10	n/a	n/a	1	52	1
1692.1132	1	21	n/a	n/a	1	52	0
1693.413	1	10	n/a	n/a	1	52	1
1694.5796	1	10	n/a	n/a	1	52	2
1695.813	1	10	n/a	n/a	1	52	3
1697.0296	1	10	n/a	n/a	1	52	4
1698.2294	1	10	n/a	n/a	1	52	5
1699.4128	1	10	n/a	n/a	1	52	6
1700.4794	1	10	n/a	n/a	1	52	7
1701.546	1	21	n/a	n/a	1	52	0
1702.6792	1	10	n/a	n/a	1	52	1
1703.7958	1	10	n/a	n/a	1	52	2
1704.9458	1	10	n/a	n/a	1	52	3
1706.0956	1	21	n/a	n/a	1	52	0
1707.1456	1	10	n/a	n/a	1	52	1
1708.3788	1	10	n/a	n/a	1	52	2
1709.6454	1	10	n/a	n/a	1	52	3
1710.7288	1	10	n/a	n/a	1	52	4
1711.9452	1	10	n/a	n/a	1	52	5
1713.2286	1	10	n/a	n/a	1	52	6
1713.96	1	82	n/a	n/a	1	0	0
1714.089	1	82	n/a	n/a	1	0	0
1714.392	1	82	n/a	n/a	1	0	0
1714.462	1	82	n/a	n/a	1	0	0
1714.731	1	82	n/a	n/a	1	0	0
1714.96	1	82	n/a	n/a	1	0	0
1715.265	1	82	n/a	n/a	1	0	0
1715.397	1	82	n/a	n/a	1	0	0
1715.484	1	82	n/a	n/a	1	0	0
1715.544	1	82	n/a	n/a	1	0	0
1717.1616	1	10	n/a	n/a	1	52	1
1718.2782	1	10	n/a	n/a	1	52	2
1719.4782	1	10	n/a	n/a	1	52	3
1720.6782	1	21	n/a	n/a	1	52	0
1721.828	1	10	n/a	n/a	1	52	1
1722.978	1	21	n/a	n/a	1	52	0
1724.228	1	10	n/a	n/a	1	52	1
1725.5278	1	10	n/a	n/a	1	52	2
1726.8444	1	10	n/a	n/a	1	52	3
1728.161	1	21	n/a	n/a	1	52	0
1729.461	1	10	n/a	n/a	1	52	1
1730.5276	1	10	n/a	n/a	1	52	2
1731.5942	1	10	n/a	n/a	1	52	3
1732.7108	1	10	n/a	n/a	1	52	4
1734.0274	1	10	n/a	n/a	1	52	5
1735.2606	1	10	n/a	n/a	1	52	6
1736.2938	1	10	n/a	n/a	1	52	7
1737.3272	1	21	n/a	n/a	1	52	0
1738.377	1	10	n/a	n/a	1	52	1
1739.427	1	21	n/a	n/a	1	52	0
1740.4494	1	82	n/a	n/a	1	0	0
1740.5184	1	82	n/a	n/a	1	0	0
1740.7744	1	82	n/a	n/a	1	0	0
1740.8184	1	82	n/a	n/a	1	0	0
1740.9384	1	82	n/a	n/a	1	0	0
1741.4494	1	82	n/a	n/a	1	0	0
1741.8204	1	82	n/a	n/a	1	0	0
1741.8594	1	82	n/a	n/a	1	0	0
1742.1334	1	82	n/a	n/a	1	0	0
1742.2494	1	82	n/a	n/a	1	0	0
1743.3768	1	10	n/a	n/a	1	52	1
1744.6934	1	10	n/a	n/a	1	52	2
1745.7766	1	10	n/a	n/a	1	52	3
1746.96	1	10	n/a	n/a	1	52	4
1748.2098	1	10	n/a	n/a	1	52	5
1749.4598	1	21	n/a	n/a	1	52	0
1750.743	1	10	n/a	n/a	1	52	1
1752.0262	1	21	n/a	n/a	1	52	0
1753.3096	1	10	n/a	n/a	1	52	1
1754.4594	1	10	n/a	n/a	1	52	2
1755.626	1	10	n/a	n/a	1	52	3
1756.7926	1	21	n/a	n/a	1	52	0
1758.0592	1	10	n/a	n/a	1	52	1
1759.3258	1	21	n/a	n/a	1	52	0
1760.6424	1	10	n/a	n/a	1	52	1
1761.709	1	10	n/a	n/a	1	52	2
1762.9756	1	10	n/a	n/a	1	52	3
1764.1256	1	10	n/a	n/a	1	52	4
1765.1756	1	10	n/a	n/a	1	52	5
1766.2254	1	21	n/a	n/a	1	52	0
1767.0422	1	82	n/a	n/a	1	0	0
1767.1482	1	82	n/a	n/a	1	0	0
1767.1952	1	82	n/a	n/a	1	0	0
1767.3442	1	82	n/a	n/a	1	0	0
1767.7662	1	82	n/a	n/a	1	0	0
1768.0422	1	82	n/a	n/a	1	0	0
1768.0932	1	82	n/a	n/a	1	0	0
1768.5162	1	82	n/a	n/a	1	0	0
1768.6262	1	82	n/a	n/a	1	0	0
1768.9622	1	82	n/a	n/a	1	0	0
1770.1418	1	10	n/a	n/a	1	52	1
1771.3752	1	10	n/a	n/a	1	52	2
1772.575	1	10	n/a	n/a	1	52	3
1773.875	1	10	n/a	n/a	1	52	4
1774.9916	1	10	n/a	n/a	1	52	5
1776.1082	1	10	n/a	n/a	1	52	6
1777.3748	1	10	n/a	n/a	1	52	7
1778.6414	1	21	n/a	n/a	1	52	0
1779.7246	1	10	n/a	n/a	1	52	1
1780.9246	1	10	n/a	n/a	1	52	2
1782.1578	1	10	n/a	n/a	1	52	3
1783.3912	1	21	n/a	n/a	1	52	0
1784.7078	1	10	n/a	n/a	1	52	1
1785.7744	1	10	n/a	n/a	1	52	2
1787.0076	1	10	n/a	n/a	1	52	3
1788.1742	1	10	n/a	n/a	1	52	4
1789.3074	1	10	n/a	n/a	1	52	5
1790.4406	1	21	n/a	n/a	1	52	0
1791.6906	1	10	n/a	n/a	1	52	1
1792.7906	1	10	n/a	n/a	1	52	2
1793.765	1	82	n/a	n/a	1	0	0
1793.836	1	82	n/a	n/a	1	0	0
1793.94	1	82	n/a	n/a	1	0	0
1794.14	1	82	n/a	n/a	1	0	0
1794.361	1	82	n/a	n/a	1	0	0
1794.765	1	82	n/a	n/a	1	0	0
1794.875	1	82	n/a	n/a	1	0	0
1794.906	1	82	n/a	n/a	1	0	0
1795.071	1	82	n/a	n/a	1	0	0
1795.357	1	82	n/a	n/a	1	0	0
1796.7404	1	10	n/a	n/a	1	52	1
1798.057	1	10	n/a	n/a	1	52	2
1799.1236	1	10	n/a	n/a	1	52	3
1800.2234	1	10	n/a	n/a	1	52	4
1801.2734	1	10	n/a	n/a	1	52	5
1802.5734	1	10	n/a	n/a	1	52	6
1803.8732	1	10	n/a	n/a	1	52	7
1805.1732	1	21	n/a	n/a	1	52	0
1806.3898	1	10	n/a	n/a	1	52	1
1807.7064	1	10	n/a	n/a	1	52	2
1808.873	1	10	n/a	n/a	1	52	3
1810.0228	1	10	n/a	n/a	1	52	4
1811.3228	1	10	n/a	n/a	1	52	5
1812.6228	1	21	n/a	n/a	1	52	0
1813.706	1	10	n/a	n/a	1	52	1
1814.906	1	10	n/a	n/a	1	52	2
1816.0392	1	10	n/a	n/a	1	52	3
1817.1724	1	21	n/a	n/a	1	52	0
1818.339	1	10	n/a	n/a	1	52	1
1819.439	1	10	n/a	n/a	1	52	2
1832.679	1	82	n/a	n/a	1	0	0
1832.74	1	82	n/a	n/a	1	0	0
1833.087	1	82	n/a	n/a	1	0	0
1833.125	1	82	n/a	n/a	1	0	0
1833.428	1	82	n/a	n/a	1	0	0
1833.679	1	82	n/a	n/a	1	0	0
1833.941	1	82	n/a	n/a	1	0	0
1834.102	1	82	n/a	n/a	1	0	0
1834.337	1	82	n/a	n/a	1	0	0
1834.469	1	82	n/a	n/a	1	0	0
1835.888	1	10	n/a	n/a	1	50	1
1837.138	1	10	n/a	n/a	1	50	2
1838.4046	1	10	n/a	n/a	1	50	3
1839.4378	1	10	n/a	n/a	1	50	4
1840.7544	1	10	n/a	n/a	1	50	5
1842.071	1	21	n/a	n/a	1	50	0
1843.271	1	10	n/a	n/a	1	50	1
1844.3876	1	10	n/a	n/a	1	50	2
1845.5542	1	10	n/a	n/a	1	50	3
1846.7708	1	10	n/a	n/a	1	50	4
1847.9874	1	10	n/a	n/a	1	50	5
1849.204	1	21	n/a	n/a	1	50	0
1850.3706	1	10	n/a	n/a	1	50	1
1851.5372	1	21	n/a	n/a	1	50	0
1852.587	1	10	n/a	n/a	1	50	1
1853.637	1	10	n/a	n/a	1	50	2
1854.837	1	10	n/a	n/a	1	50	3
1856.0368	1	21	n/a	n/a	1	50	0
1857.1702	1	10	n/a	n/a	1	50	1
1858.2368	1	10	n/a	n/a	1	50	2
1859.0822	1	82	n/a	n/a	1	0	0
1859.4382	1	82	n/a	n/a	1	0	0
1859.7102	1	82	n/a	n/a	1	0	0
1859.7362	1	82	n/a	n/a	1	0	0
1859.8352	1	82	n/a	n/a	1	0	0
1860.0822	1	82	n/a	n/a	1	0	0
1860.2412	1	82	n/a	n/a	1	0	0
1860.4692	1	82	n/a	n/a	1	0	0
1860.5572	1	82	n/a	n/a	1	0	0
1860.8342	1	82	n/a	n/a	1	0	0
1862.1366	1	10	n/a	n/a	1	50	1
1863.3032	1	21	n/a	n/a	1	50	0
1864.453	1	10	n/a	n/a	1	50	1
1865.703	1	10	n/a	n/a	1	50	2
1867.0196	1	10	n/a	n/a	1	50	3
1868.0694	1	10	n/a	n/a	1	50	4
1869.1528	1	10	n/a	n/a	1	50	5
1870.386	1	10	n/a	n/a	1	50	6
1871.4526	1	10	n/a	n/a	1	50	7
1872.5192	1	21	n/a	n/a	1	50	0
1873.6358	1	10	n/a	n/a	1	50	1
1874.769	1	10	n/a	n/a	1	50	2
1876.069	1	10	n/a	n/a	1	50	3
1877.2022	1	10	n/a	n/a	1	50	4
1878.4522	1	10	n/a	n/a	1	50	5
1879.7022	1	21	n/a	n/a	1	50	0
1880.8354	1	10	n/a	n/a	1	50	1
1881.8686	1	10	n/a	n/a	1	50	2
1882.902	1	10	n/a	n/a	1	50	3
1884.0686	1	10	n/a	n/a	1	50	4
1884.953	1	82	n/a	n/a	1	0	0
1884.984	1	82	n/a	n/a	1	0	0
1885.151	1	82	n/a	n/a	1	0	0
1885.345	1	82	n/a	n/a	1	0	0
1885.744	1	82	n/a	n/a	1	0	0
1885.953	1	82	n/a	n/a	1	0	0
1885.975	1	82	n/a	n/a	1	0	0
1886.208	1	82	n/a	n/a	1	0	0
1886.526	1	82	n/a	n/a	1	0	0
1886.604	1	82	n/a	n/a	1	0	0
1888.1516	1	10	n/a	n/a	1	50	1
1889.2182	1	10	n/a	n/a	1	50	2
1890.2682	1	10	n/a	n/a	1	50	3
1891.4014	1	10	n/a	n/a	1	50	4
1892.6848	1	10	n/a	n/a	1	50	5
1893.968	1	21	n/a	n/a	1	50	0
1895.168	1	10	n/a	n/a	1	50	1
1896.3012	1	10	n/a	n/a	1	50	2
1897.5844	1	10	n/a	n/a	1	50	3
1898.651	1	10	n/a	n/a	1	50	4
1899.851	1	10	n/a	n/a	1	50	5
1901.1342	1	10	n/a	n/a	1	50	6
1902.1674	1	10	n/a	n/a	1	50	7
1903.2008	1	21	n/a	n/a	1	50	0
1904.534	1	10	n/a	n/a	1	50	1
1905.684	1	10	n/a	n/a	1	50	2
1906.9172	1	10	n/a	n/a	1	50	3
1908.1504	1	21	n/a	n/a	1	50	0
1909.3838	1	10	n/a	n/a	1	50	1
1910.617	1	21	n/a	n/a	1	50	0
1911.6114	1	82	n/a	n/a	1	0	0
1911.7614	1	82	n/a	n/a	1	0	0
1911.9844	1	82	n/a	n/a	1	0	0
1912.1004	1	82	n/a	n/a	1	0	0
1912.3474	1	82	n/a	n/a	1	0	0
1912.6114	1	82	n/a	n/a	1	0	0
1912.7734	1	82	n/a	n/a	1	0	0
1912.8544	1	82	n/a	n/a	1	0	0
1913.2144	1	82	n/a	n/a	1	0	0
1913.3254	1	82	n/a	n/a	1	0	0
1914.8	1	10	n/a	n/a	1	50	1
1915.8834	1	10	n/a	n/a	1	50	2
1916.9332	1	10	n/a	n/a	1	50	3
1917.9832	1	21	n/a	n/a	1	50	0
1919.3166	1	10	n/a	n/a	1	50	1
1920.3498	1	10	n/a	n/a	1	50	2
1921.483	1	10	n/a	n/a	1	50	3
1922.7996	1	10	n/a	n/a	1	50	4
1924.0328	1	10	n/a	n/a	1	50	5
1925.2662	1	21	n/a	n/a	1	50	0
1926.466	1	10	n/a	n/a	1	50	1
1927.716	1	10	n/a	n/a	1	50	2
1928.7826	1	10	n/a	n/a	1	50	3
1929.8992	1	10	n/a	n/a	1	50	4
1931.0158	1	10	n/a	n/a	1	50	5
1932.1824	1	10	n/a	n/a	1	50	6
1933.2324	1	10	n/a	n/a	1	50	7
1934.2822	1	21	n/a	n/a	1	50	0
1935.3322	1	10	n/a	n/a	1	50	1
1936.3822	1	21	n/a	n/a	1	50	0
1937.3678	1	82	n/a	n/a	1	0	0
1937.5108	1	82	n/a	n/a	1	0	0
1937.6888	1	82	n/a	n/a	1	0	0
1937.7928	1	82	n/a	n/a	1	0	0
1938.1348	1	82	n/a	n/a	1	0	0
1938.3678	1	82	n/a	n/a	1	0	0
1938.5098	1	82	n/a	n/a	1	0	0
1938.8818	1	82	n/a	n/a	1	0	0
1939.0838	1	82	n/a	n/a	1	0	0
1939.1898	1	82	n/a	n/a	1	0	0
1940.332	1	10	n/a	n/a	1	50	1
1941.4986	1	10	n/a	n/a	1	50	2
1942.6318	1	10	n/a	n/a	1	50	3
1943.7318	1	10	n/a	n/a	1	50	4
1944.865	1	10	n/a	n/a	1	50	5
1946.1816	1	10	n/a	n/a	1	50	6
1947.2148	1	10	n/a	n/a	1	50	7
1948.2482	1	21	n/a	n/a	1	50	0
1949.4314	1	10	n/a	n/a	1	50	1
1950.4814	1	10	n/a	n/a	1	50	2
1951.748	1	10	n/a	n/a	1	50	3
1952.8478	1	10	n/a	n/a	1	50	4
1953.8812	1	10	n/a	n/a	1	50	5
1954.9144	1	21	n/a	n/a	1	50	0
1956.1476	1	10	n/a	n/a	1	50	1
1957.381	1	21	n/a	n/a	1	50	0
1958.4642	1	10	n/a	n/a	1	50	1
1959.5474	1	21	n/a	n/a	1	50	0
1960.7808	1	10	n/a	n/a	1	50	1
1962.014	1	21	n/a	n/a	1	50	0
1992.4692	1	81	n/a	n/a	1	0	0
1992.6692	1	81	n/a	n/a	1	0	0
1992.8692	1	81	n/a	n/a	1	0	0
1993.0692	1	81	n/a	n/a	1	0	0
1993.2692	1	81	n/a	n/a	1	0	0
1993.4692	1	81	n/a	n/a	1	0	0
1993.6692	1	81	n/a	n/a	1	0	0
1993.8692	1	81	n/a	n/a	1	0	0
1994.0692	1	81	n/a	n/a	1	0	0
1994.2692	1	81	n/a	n/a	1	0	0
1995.5454	1	10	n/a	n/a	1	51	1
1996.662	1	10	n/a	n/a	1	51	2
1997.8452	1	10	n/a	n/a	1	51	3
1999.0284	1	21	n/a	n/a	1	51	0
2000.245	1	10	n/a	n/a	1	51	1
2001.3784	1	10	n/a	n/a	1	51	2
2002.545	1	10	n/a	n/a	1	51	3
2003.7448	1	10	n/a	n/a	1	51	4
2005.0114	1	10	n/a	n/a	1	51	5
2006.3114	1	10	n/a	n/a	1	51	6
2007.478	1	10	n/a	n/a	1	51	7
2008.6446	1	21	n/a	n/a	1	51	0
2009.6778	1	10	n/a	n/a	1	51	1
2010.7444	1	10	n/a	n/a	1	51	2
2011.911	1	10	n/a	n/a	1	51	3
2012.9444	1	10	n/a	n/a	1	51	4
2014.211	1	10	n/a	n/a	1	51	5
2015.4776	1	21	n/a	n/a	1	51	0
2016.5274	1	10	n/a	n/a	1	51	1
2017.5774	1	21	n/a	n/a	1	51	0
2018.6688	1	81	n/a	n/a	1	0	0
2018.8688	1	81	n/a	n/a	1	0	0
2019.0688	1	81	n/a	n/a	1	0	0
2019.2688	1	81	n/a	n/a	1	0	0
2019.4688	1	81	n/a	n/a	1	0	0
2019.6696	1	81	n/a	n/a	1	0	0
2019.8696	1	81	n/a	n/a	1	0	0
2020.0696	1	81	n/a	n/a	1	0	0
2020.2696	1	81	n/a	n/a	1	0	0
2020.4696	1	81	n/a	n/a	1	0	0
2021.8772	1	10	n/a	n/a	1	51	1
2023.1938	1	21	n/a	n/a	1	51	0
2024.477	1	10	n/a	n/a	1	51	1
2025.7102	1	10	n/a	n/a	1	51	2
2026.9436	1	10	n/a	n/a	1	51	3
2028.0434	1	10	n/a	n/a	1	51	4
2029.31	1	10	n/a	n/a	1	51	5
2030.5766	1	21	n/a	n/a	1	51	0
2031.81	1	10	n/a	n/a	1	51	1
2033.1098	1	10	n/a	n/a	1	51	2
2034.3764	1	10	n/a	n/a	1	51	3
2035.6598	1	10	n/a	n/a	1	51	4
2036.9762	1	10	n/a	n/a	1	51	5
2038.2928	1	21	n/a	n/a	1	51	0
2039.4262	1	10	n/a	n/a	1	51	1
2040.5594	1	10	n/a	n/a	1	51	2
2041.676	1	10	n/a	n/a	1	51	3
2042.7092	1	10	n/a	n/a	1	51	4
2043.7758	1	10	n/a	n/a	1	51	5
2045.0924	1	10	n/a	n/a	1	51	6
2045.8128	1	81	n/a	n/a	1	0	0
2046.0128	1	81	n/a	n/a	1	0	0
2046.2128	1	81	n/a	n/a	1	0	0
2046.4128	1	81	n/a	n/a	1	0	0
2046.6128	1	81	n/a	n/a	1	0	0
2046.8128	1	81	n/a	n/a	1	0	0
2047.0128	1	81	n/a	n/a	1	0	0
2047.2128	1	81	n/a	n/a	1	0	0
2047.4128	1	81	n/a	n/a	1	0	0
2047.6128	1	81	n/a	n/a	1	0	0
2048.909	1	10	n/a	n/a	1	51	1
2050.1088	1	21	n/a	n/a	1	51	0
2051.3088	1	10	n/a	n/a	1	51	1
2052.4588	1	10	n/a	n/a	1	51	2
2053.5254	1	10	n/a	n/a	1	51	3
2054.8252	1	10	n/a	n/a	1	51	4
2055.9586	1	10	n/a	n/a	1	51	5
2057.0918	1	21	n/a	n/a	1	51	0
2058.1918	1	10	n/a	n/a	1	51	1
2059.3084	1	10	n/a	n/a	1	51	2
2060.5082	1	10	n/a	n/a	1	51	3
2061.7748	1	10	n/a	n/a	1	51	4
2063.0914	1	10	n/a	n/a	1	51	5
2064.408	1	21	n/a	n/a	1	51	0
2065.5746	1	10	n/a	n/a	1	51	1
2066.7412	1	21	n/a	n/a	1	51	0
2067.8744	1	10	n/a	n/a	1	51	1
2069.0078	1	21	n/a	n/a	1	51	0
2070.141	1	10	n/a	n/a	1	51	1
2071.291	1	10	n/a	n/a	1	51	2
2072.2014	1	81	n/a	n/a	1	0	0
2072.4014	1	81	n/a	n/a	1	0	0
2072.6014	1	81	n/a	n/a	1	0	0
2072.8014	1	81	n/a	n/a	1	0	0
2073.0014	1	81	n/a	n/a	1	0	0
2073.2014	1	81	n/a	n/a	1	0	0
2073.4014	1	81	n/a	n/a	1	0	0
2073.6014	1	81	n/a	n/a	1	0	0
2073.8014	1	81	n/a	n/a	1	0	0
2074.0014	1	81	n/a	n/a	1	0	0
2075.3908	1	10	n/a	n/a	1	51	1
2076.5906	1	10	n/a	n/a	1	51	2
2077.8572	1	10	n/a	n/a	1	51	3
2079.1072	1	10	n/a	n/a	1	51	4
2080.2404	1	10	n/a	n/a	1	51	5
2081.3736	1	21	n/a	n/a	1	51	0
2082.507	1	10	n/a	n/a	1	51	1
2083.5568	1	10	n/a	n/a	1	51	2
2084.6234	1	10	n/a	n/a	1	51	3
2085.7234	1	10	n/a	n/a	1	51	4
2086.79	1	10	n/a	n/a	1	51	5
2087.9232	1	10	n/a	n/a	1	51	6
2089.1066	1	10	n/a	n/a	1	51	7
2090.2898	1	21	n/a	n/a	1	51	0
2091.5564	1	10	n/a	n/a	1	51	1
2092.823	1	10	n/a	n/a	1	51	2
2094.073	1	10	n/a	n/a	1	51	3
2095.1896	1	10	n/a	n/a	1	51	4
2096.3562	1	10	n/a	n/a	1	51	5
2097.5228	1	21	n/a	n/a	1	51	0
2098.4844	1	81	n/a	n/a	1	0	0
2098.6844	1	81	n/a	n/a	1	0	0
2098.8844	1	81	n/a	n/a	1	0	0
2099.0844	1	81	n/a	n/a	1	0	0
2099.2844	1	81	n/a	n/a	1	0	0
2099.4844	1	81	n/a	n/a	1	0	0
2099.6844	1	81	n/a	n/a	1	0	0
2099.8844	1	81	n/a	n/a	1	0	0
2100.0844	1	81	n/a	n/a	1	0	0
2100.2844	1	81	n/a	n/a	1	0	0
2101.5558	1	10	n/a	n/a	1	51	1
2102.7392	1	21	n/a	n/a	1	51	0
2103.789	1	10	n/a	n/a	1	51	1
2104.839	1	21	n/a	n/a	1	51	0
2106.1222	1	10	n/a	n/a	1	51	1
2107.1722	1	10	n/a	n/a	1	51	2
2108.4888	1	10	n/a	n/a	1	51	3
2109.5388	1	10	n/a	n/a	1	51	4
2110.6886	1	10	n/a	n/a	1	51	5
2111.8052	1	10	n/a	n/a	1	51	6
2112.9718	1	10	n/a	n/a	1	51	7
2114.1384	1	21	n/a	n/a	1	51	0
2115.355	1	10	n/a	n/a	1	51	1
2116.3884	1	10	n/a	n/a	1	51	2
2117.6382	1	10	n/a	n/a	1	51	3
2118.9048	1	10	n/a	n/a	1	51	4
2120.1048	1	10	n/a	n/a	1	51	5
2121.3046	1	21	n/a	n/a	1	51	0
2122.5546	1	10	n/a	n/a	1	51	1
2123.8212	1	21	n/a	n/a	1	51	0
