onset	duration	value	response	rt	good	TMS	seq
91.755	1	82	n/a	n/a	1	0	0
92.026	1	82	n/a	n/a	1	0	0
92.378	1	82	n/a	n/a	1	0	0
92.524	1	82	n/a	n/a	1	0	0
92.692	1	82	n/a	n/a	1	0	0
92.755	1	82	n/a	n/a	1	0	0
93.104	1	82	n/a	n/a	1	0	0
93.402	1	82	n/a	n/a	1	0	0
93.542	1	82	n/a	n/a	1	0	0
93.706	1	82	n/a	n/a	1	0	0
94.9234	1	10	n/a	n/a	1	52	1
96.2066	1	21	n/a	n/a	1	52	0
97.4398	1	10	n/a	n/a	1	52	1
98.5232	1	10	n/a	n/a	1	52	2
99.5732	1	10	n/a	n/a	1	52	3
100.8396	1	10	n/a	n/a	1	52	4
102.123	1	10	n/a	n/a	1	52	5
103.4062	1	21	n/a	n/a	1	52	0
104.7062	1	10	n/a	n/a	1	52	1
106.006	1	21	n/a	n/a	1	52	0
107.056	1	10	n/a	n/a	1	52	1
108.356	1	10	n/a	n/a	1	52	2
109.4058	1	10	n/a	n/a	1	52	3
110.5392	1	10	n/a	n/a	1	52	4
111.8558	1	10	n/a	n/a	1	52	5
113.089	1	10	n/a	n/a	1	52	6
114.3222	1	10	n/a	n/a	1	52	7
115.5556	1	21	n/a	n/a	1	52	0
116.6054	1	10	n/a	n/a	1	52	1
117.7388	1	10	n/a	n/a	1	52	2
118.7462	1	82	n/a	n/a	1	0	0
118.9722	1	82	n/a	n/a	1	0	0
119.0312	1	82	n/a	n/a	1	0	0
119.1922	1	82	n/a	n/a	1	0	0
119.4442	1	82	n/a	n/a	1	0	0
119.7462	1	82	n/a	n/a	1	0	0
119.8732	1	82	n/a	n/a	1	0	0
120.3102	1	82	n/a	n/a	1	0	0
120.6362	1	82	n/a	n/a	1	0	0
120.7012	1	82	n/a	n/a	1	0	0
121.8884	1	10	n/a	n/a	1	52	1
123.055	1	10	n/a	n/a	1	52	2
124.2384	1	10	n/a	n/a	1	52	3
125.4382	1	10	n/a	n/a	1	52	4
126.7216	1	10	n/a	n/a	1	52	5
128.0048	1	21	n/a	n/a	1	52	0
129.038	1	10	n/a	n/a	1	52	1
130.2046	1	10	n/a	n/a	1	52	2
131.4712	1	10	n/a	n/a	1	52	3
132.5546	1	10	n/a	n/a	1	52	4
133.7378	1	10	n/a	n/a	1	52	5
134.921	1	21	n/a	n/a	1	52	0
136.0376	1	10	n/a	n/a	1	52	1
137.3042	1	10	n/a	n/a	1	52	2
138.6042	1	10	n/a	n/a	1	52	3
139.904	1	21	n/a	n/a	1	52	0
141.1206	1	10	n/a	n/a	1	52	1
142.404	1	10	n/a	n/a	1	52	2
143.4706	1	10	n/a	n/a	1	52	3
144.7038	1	10	n/a	n/a	1	52	4
145.6132	1	82	n/a	n/a	1	0	0
145.8912	1	82	n/a	n/a	1	0	0
145.9942	1	82	n/a	n/a	1	0	0
146.1902	1	82	n/a	n/a	1	0	0
146.2532	1	82	n/a	n/a	1	0	0
146.6132	1	82	n/a	n/a	1	0	0
146.6552	1	82	n/a	n/a	1	0	0
146.7922	1	82	n/a	n/a	1	0	0
146.9562	1	82	n/a	n/a	1	0	0
147.3962	1	82	n/a	n/a	1	0	0
148.737	1	10	n/a	n/a	1	52	1
149.8368	1	10	n/a	n/a	1	52	2
151.1034	1	10	n/a	n/a	1	52	3
152.27	1	10	n/a	n/a	1	52	4
153.47	1	10	n/a	n/a	1	52	5
154.67	1	21	n/a	n/a	1	52	0
155.7532	1	10	n/a	n/a	1	52	1
156.9198	1	10	n/a	n/a	1	52	2
158.053	1	10	n/a	n/a	1	52	3
159.2196	1	10	n/a	n/a	1	52	4
160.303	1	10	n/a	n/a	1	52	5
161.6194	1	10	n/a	n/a	1	52	6
162.936	1	10	n/a	n/a	1	52	7
164.2526	1	21	n/a	n/a	1	52	0
165.4026	1	10	n/a	n/a	1	52	1
166.6192	1	10	n/a	n/a	1	52	2
167.9192	1	10	n/a	n/a	1	52	3
169.1024	1	10	n/a	n/a	1	52	4
170.1356	1	10	n/a	n/a	1	52	5
171.169	1	10	n/a	n/a	1	52	6
171.9384	1	82	n/a	n/a	1	0	0
172.2154	1	82	n/a	n/a	1	0	0
172.3244	1	82	n/a	n/a	1	0	0
172.4754	1	82	n/a	n/a	1	0	0
172.8514	1	82	n/a	n/a	1	0	0
172.9384	1	82	n/a	n/a	1	0	0
173.0134	1	82	n/a	n/a	1	0	0
173.2804	1	82	n/a	n/a	1	0	0
173.5944	1	82	n/a	n/a	1	0	0
173.7024	1	82	n/a	n/a	1	0	0
174.9854	1	10	n/a	n/a	1	52	1
176.052	1	10	n/a	n/a	1	52	2
177.2686	1	10	n/a	n/a	1	52	3
178.5352	1	10	n/a	n/a	1	52	4
179.8018	1	10	n/a	n/a	1	52	5
181.0516	1	10	n/a	n/a	1	52	6
182.1184	1	10	n/a	n/a	1	52	7
183.185	1	21	n/a	n/a	1	52	0
184.2682	1	10	n/a	n/a	1	52	1
185.5182	1	10	n/a	n/a	1	52	2
186.8014	1	10	n/a	n/a	1	52	3
188.0346	1	10	n/a	n/a	1	52	4
189.2346	1	10	n/a	n/a	1	52	5
190.4344	1	21	n/a	n/a	1	52	0
191.6344	1	10	n/a	n/a	1	52	1
192.8344	1	10	n/a	n/a	1	52	2
194.1176	1	10	n/a	n/a	1	52	3
195.4008	1	21	n/a	n/a	1	52	0
196.5008	1	10	n/a	n/a	1	52	1
197.6008	1	21	n/a	n/a	1	52	0
198.3744	1	82	n/a	n/a	1	0	0
198.7344	1	82	n/a	n/a	1	0	0
199.0654	1	82	n/a	n/a	1	0	0
199.0874	1	82	n/a	n/a	1	0	0
199.1984	1	82	n/a	n/a	1	0	0
199.3744	1	82	n/a	n/a	1	0	0
199.5234	1	82	n/a	n/a	1	0	0
199.5624	1	82	n/a	n/a	1	0	0
199.7394	1	82	n/a	n/a	1	0	0
200.0434	1	82	n/a	n/a	1	0	0
201.4838	1	10	n/a	n/a	1	52	1
202.6172	1	10	n/a	n/a	1	52	2
203.9004	1	10	n/a	n/a	1	52	3
204.967	1	10	n/a	n/a	1	52	4
206.0502	1	10	n/a	n/a	1	52	5
207.1336	1	21	n/a	n/a	1	52	0
208.4168	1	10	n/a	n/a	1	52	1
209.7	1	21	n/a	n/a	1	52	0
210.9166	1	10	n/a	n/a	1	52	1
212.0998	1	10	n/a	n/a	1	52	2
213.3998	1	10	n/a	n/a	1	52	3
214.6998	1	21	n/a	n/a	1	52	0
215.783	1	10	n/a	n/a	1	52	1
216.8996	1	10	n/a	n/a	1	52	2
218.0662	1	10	n/a	n/a	1	52	3
219.3494	1	10	n/a	n/a	1	52	4
220.466	1	10	n/a	n/a	1	52	5
221.6494	1	10	n/a	n/a	1	52	6
222.816	1	10	n/a	n/a	1	52	7
223.9826	1	21	n/a	n/a	1	52	0
235.9546	1	82	n/a	n/a	1	0	0
236.0586	1	82	n/a	n/a	1	0	0
236.1296	1	82	n/a	n/a	1	0	0
236.3956	1	82	n/a	n/a	1	0	0
236.8226	1	82	n/a	n/a	1	0	0
236.9546	1	82	n/a	n/a	1	0	0
237.1776	1	82	n/a	n/a	1	0	0
237.2906	1	82	n/a	n/a	1	0	0
237.3736	1	82	n/a	n/a	1	0	0
237.7856	1	82	n/a	n/a	1	0	0
239.1484	1	10	n/a	n/a	1	50	1
240.2482	1	10	n/a	n/a	1	50	2
241.4148	1	10	n/a	n/a	1	50	3
242.5814	1	21	n/a	n/a	1	50	0
243.7814	1	10	n/a	n/a	1	50	1
244.9146	1	10	n/a	n/a	1	50	2
246.0812	1	10	n/a	n/a	1	50	3
247.2478	1	21	n/a	n/a	1	50	0
248.5144	1	10	n/a	n/a	1	50	1
249.7644	1	10	n/a	n/a	1	50	2
250.9144	1	10	n/a	n/a	1	50	3
252.0642	1	10	n/a	n/a	1	50	4
253.2642	1	10	n/a	n/a	1	50	5
254.4642	1	21	n/a	n/a	1	50	0
255.514	1	10	n/a	n/a	1	50	1
256.564	1	10	n/a	n/a	1	50	2
257.6806	1	10	n/a	n/a	1	50	3
258.9472	1	10	n/a	n/a	1	50	4
260.2638	1	10	n/a	n/a	1	50	5
261.397	1	10	n/a	n/a	1	50	6
262.4406	1	82	n/a	n/a	1	0	0
262.5616	1	82	n/a	n/a	1	0	0
262.7176	1	82	n/a	n/a	1	0	0
262.9546	1	82	n/a	n/a	1	0	0
263.2656	1	82	n/a	n/a	1	0	0
263.4406	1	82	n/a	n/a	1	0	0
263.6816	1	82	n/a	n/a	1	0	0
263.7606	1	82	n/a	n/a	1	0	0
264.0366	1	82	n/a	n/a	1	0	0
264.0706	1	82	n/a	n/a	1	0	0
265.4302	1	10	n/a	n/a	1	50	1
266.7134	1	10	n/a	n/a	1	50	2
267.9634	1	10	n/a	n/a	1	50	3
269.2466	1	10	n/a	n/a	1	50	4
270.4798	1	10	n/a	n/a	1	50	5
271.6632	1	10	n/a	n/a	1	50	6
272.763	1	10	n/a	n/a	1	50	7
273.863	1	21	n/a	n/a	1	50	0
274.963	1	10	n/a	n/a	1	50	1
276.0128	1	10	n/a	n/a	1	50	2
277.2962	1	10	n/a	n/a	1	50	3
278.5794	1	21	n/a	n/a	1	50	0
279.696	1	10	n/a	n/a	1	50	1
280.8126	1	21	n/a	n/a	1	50	0
281.8458	1	10	n/a	n/a	1	50	1
283.0792	1	10	n/a	n/a	1	50	2
284.229	1	10	n/a	n/a	1	50	3
285.4624	1	10	n/a	n/a	1	50	4
286.5122	1	10	n/a	n/a	1	50	5
287.5622	1	21	n/a	n/a	1	50	0
288.3166	1	82	n/a	n/a	1	0	0
288.6346	1	82	n/a	n/a	1	0	0
288.7356	1	82	n/a	n/a	1	0	0
289.0006	1	82	n/a	n/a	1	0	0
289.0796	1	82	n/a	n/a	1	0	0
289.3166	1	82	n/a	n/a	1	0	0
289.4056	1	82	n/a	n/a	1	0	0
289.5636	1	82	n/a	n/a	1	0	0
289.6946	1	82	n/a	n/a	1	0	0
290.0366	1	82	n/a	n/a	1	0	0
291.4952	1	10	n/a	n/a	1	50	1
292.7786	1	21	n/a	n/a	1	50	0
293.8784	1	10	n/a	n/a	1	50	1
295.195	1	10	n/a	n/a	1	50	2
296.4784	1	10	n/a	n/a	1	50	3
297.7616	1	21	n/a	n/a	1	50	0
299.0282	1	10	n/a	n/a	1	50	1
300.2948	1	21	n/a	n/a	1	50	0
301.378	1	10	n/a	n/a	1	50	1
302.478	1	10	n/a	n/a	1	50	2
303.6112	1	10	n/a	n/a	1	50	3
304.8778	1	10	n/a	n/a	1	50	4
306.0944	1	10	n/a	n/a	1	50	5
307.211	1	10	n/a	n/a	1	50	6
308.4444	1	10	n/a	n/a	1	50	7
309.6776	1	21	n/a	n/a	1	50	0
310.7942	1	10	n/a	n/a	1	50	1
311.9108	1	21	n/a	n/a	1	50	0
313.0606	1	10	n/a	n/a	1	50	1
314.094	1	10	n/a	n/a	1	50	2
314.8554	1	82	n/a	n/a	1	0	0
314.9844	1	82	n/a	n/a	1	0	0
315.2804	1	82	n/a	n/a	1	0	0
315.5354	1	82	n/a	n/a	1	0	0
315.6094	1	82	n/a	n/a	1	0	0
315.8554	1	82	n/a	n/a	1	0	0
315.8814	1	82	n/a	n/a	1	0	0
316.0214	1	82	n/a	n/a	1	0	0
316.1264	1	82	n/a	n/a	1	0	0
316.3544	1	82	n/a	n/a	1	0	0
317.8604	1	10	n/a	n/a	1	50	1
318.977	1	21	n/a	n/a	1	50	0
320.0602	1	10	n/a	n/a	1	50	1
321.1436	1	21	n/a	n/a	1	50	0
322.2602	1	10	n/a	n/a	1	50	1
323.3768	1	21	n/a	n/a	1	50	0
324.5934	1	10	n/a	n/a	1	50	1
325.81	1	21	n/a	n/a	1	50	0
326.91	1	10	n/a	n/a	1	50	1
328.1598	1	10	n/a	n/a	1	50	2
329.2098	1	10	n/a	n/a	1	50	3
330.2598	1	21	n/a	n/a	1	50	0
331.443	1	10	n/a	n/a	1	50	1
332.543	1	10	n/a	n/a	1	50	2
333.6928	1	10	n/a	n/a	1	50	3
334.8762	1	10	n/a	n/a	1	50	4
336.176	1	10	n/a	n/a	1	50	5
337.476	1	21	n/a	n/a	1	50	0
338.5758	1	10	n/a	n/a	1	50	1
339.6758	1	21	n/a	n/a	1	50	0
340.7416	1	82	n/a	n/a	1	0	0
340.9666	1	82	n/a	n/a	1	0	0
341.3036	1	82	n/a	n/a	1	0	0
341.4766	1	82	n/a	n/a	1	0	0
341.5956	1	82	n/a	n/a	1	0	0
341.7416	1	82	n/a	n/a	1	0	0
342.0426	1	82	n/a	n/a	1	0	0
342.0806	1	82	n/a	n/a	1	0	0
342.4156	1	82	n/a	n/a	1	0	0
342.5676	1	82	n/a	n/a	1	0	0
343.8256	1	10	n/a	n/a	1	50	1
344.9756	1	10	n/a	n/a	1	50	2
346.0588	1	10	n/a	n/a	1	50	3
347.2588	1	10	n/a	n/a	1	50	4
348.4586	1	10	n/a	n/a	1	50	5
349.6586	1	21	n/a	n/a	1	50	0
350.8086	1	10	n/a	n/a	1	50	1
351.8584	1	10	n/a	n/a	1	50	2
353.1084	1	10	n/a	n/a	1	50	3
354.4082	1	10	n/a	n/a	1	50	4
355.6748	1	10	n/a	n/a	1	50	5
356.9414	1	21	n/a	n/a	1	50	0
358.0914	1	10	n/a	n/a	1	50	1
359.2414	1	21	n/a	n/a	1	50	0
360.558	1	10	n/a	n/a	1	50	1
361.8746	1	21	n/a	n/a	1	50	0
363.0412	1	10	n/a	n/a	1	50	1
364.1244	1	10	n/a	n/a	1	50	2
365.191	1	10	n/a	n/a	1	50	3
366.3242	1	10	n/a	n/a	1	50	4
389.6456	1	81	n/a	n/a	1	0	0
389.8456	1	81	n/a	n/a	1	0	0
390.0456	1	81	n/a	n/a	1	0	0
390.2456	1	81	n/a	n/a	1	0	0
390.4456	1	81	n/a	n/a	1	0	0
390.6456	1	81	n/a	n/a	1	0	0
390.8456	1	81	n/a	n/a	1	0	0
391.0456	1	81	n/a	n/a	1	0	0
391.2456	1	81	n/a	n/a	1	0	0
391.4456	1	81	n/a	n/a	1	0	0
392.656	1	10	n/a	n/a	1	51	1
393.756	1	10	n/a	n/a	1	51	2
394.9226	1	10	n/a	n/a	1	51	3
396.1726	1	10	n/a	n/a	1	51	4
397.2558	1	10	n/a	n/a	1	51	5
398.339	1	21	n/a	n/a	1	51	0
399.5556	1	10	n/a	n/a	1	51	1
400.6556	1	10	n/a	n/a	1	51	2
401.8722	1	10	n/a	n/a	1	51	3
403.0554	1	10	n/a	n/a	1	51	4
404.2388	1	10	n/a	n/a	1	51	5
405.422	1	21	n/a	n/a	1	51	0
406.4886	1	10	n/a	n/a	1	51	1
407.5552	1	10	n/a	n/a	1	51	2
408.8218	1	10	n/a	n/a	1	51	3
410.055	1	10	n/a	n/a	1	51	4
411.355	1	10	n/a	n/a	1	51	5
412.4382	1	10	n/a	n/a	1	51	6
413.6882	1	10	n/a	n/a	1	51	7
414.9382	1	21	n/a	n/a	1	51	0
415.8766	1	81	n/a	n/a	1	0	0
416.0766	1	81	n/a	n/a	1	0	0
416.2766	1	81	n/a	n/a	1	0	0
416.4766	1	81	n/a	n/a	1	0	0
416.6766	1	81	n/a	n/a	1	0	0
416.8766	1	81	n/a	n/a	1	0	0
417.0766	1	81	n/a	n/a	1	0	0
417.2766	1	81	n/a	n/a	1	0	0
417.4766	1	81	n/a	n/a	1	0	0
417.6766	1	81	n/a	n/a	1	0	0
419.0712	1	10	n/a	n/a	1	51	1
420.2544	1	10	n/a	n/a	1	51	2
421.4878	1	10	n/a	n/a	1	51	3
422.6876	1	10	n/a	n/a	1	51	4
423.9876	1	10	n/a	n/a	1	51	5
425.2876	1	21	n/a	n/a	1	51	0
426.4708	1	10	n/a	n/a	1	51	1
427.6374	1	10	n/a	n/a	1	51	2
428.8874	1	10	n/a	n/a	1	51	3
430.1372	1	21	n/a	n/a	1	51	0
431.3704	1	10	n/a	n/a	1	51	1
432.6038	1	21	n/a	n/a	1	51	0
433.887	1	10	n/a	n/a	1	51	1
434.9202	1	10	n/a	n/a	1	51	2
435.9702	1	10	n/a	n/a	1	51	3
437.2534	1	10	n/a	n/a	1	51	4
438.42	1	10	n/a	n/a	1	51	5
439.5366	1	10	n/a	n/a	1	51	6
440.8366	1	10	n/a	n/a	1	51	7
442.1366	1	21	n/a	n/a	1	51	0
443.0942	1	81	n/a	n/a	1	0	0
443.2942	1	81	n/a	n/a	1	0	0
443.4942	1	81	n/a	n/a	1	0	0
443.6942	1	81	n/a	n/a	1	0	0
443.8942	1	81	n/a	n/a	1	0	0
444.0942	1	81	n/a	n/a	1	0	0
444.2942	1	81	n/a	n/a	1	0	0
444.4942	1	81	n/a	n/a	1	0	0
444.6942	1	81	n/a	n/a	1	0	0
444.8942	1	81	n/a	n/a	1	0	0
446.2362	1	10	n/a	n/a	1	51	1
447.5028	1	21	n/a	n/a	1	51	0
448.8028	1	10	n/a	n/a	1	51	1
450.1028	1	21	n/a	n/a	1	51	0
451.3526	1	10	n/a	n/a	1	51	1
452.386	1	10	n/a	n/a	1	51	2
453.4858	1	10	n/a	n/a	1	51	3
454.5858	1	21	n/a	n/a	1	51	0
455.7358	1	10	n/a	n/a	1	51	1
456.9856	1	10	n/a	n/a	1	51	2
458.169	1	10	n/a	n/a	1	51	3
459.3188	1	10	n/a	n/a	1	51	4
460.6188	1	10	n/a	n/a	1	51	5
461.9188	1	21	n/a	n/a	1	51	0
463.0186	1	10	n/a	n/a	1	51	1
464.1186	1	21	n/a	n/a	1	51	0
465.3186	1	10	n/a	n/a	1	51	1
466.6184	1	10	n/a	n/a	1	51	2
467.785	1	10	n/a	n/a	1	51	3
469.0184	1	10	n/a	n/a	1	51	4
469.8818	1	81	n/a	n/a	1	0	0
470.0818	1	81	n/a	n/a	1	0	0
470.2818	1	81	n/a	n/a	1	0	0
470.4818	1	81	n/a	n/a	1	0	0
470.6818	1	81	n/a	n/a	1	0	0
470.8818	1	81	n/a	n/a	1	0	0
471.0818	1	81	n/a	n/a	1	0	0
471.2818	1	81	n/a	n/a	1	0	0
471.4818	1	81	n/a	n/a	1	0	0
471.6818	1	81	n/a	n/a	1	0	0
472.9014	1	10	n/a	n/a	1	51	1
474.168	1	10	n/a	n/a	1	51	2
475.4346	1	10	n/a	n/a	1	51	3
476.7346	1	10	n/a	n/a	1	51	4
477.9844	1	10	n/a	n/a	1	51	5
479.2344	1	21	n/a	n/a	1	51	0
480.501	1	10	n/a	n/a	1	51	1
481.7842	1	10	n/a	n/a	1	51	2
482.9842	1	10	n/a	n/a	1	51	3
484.1008	1	10	n/a	n/a	1	51	4
485.134	1	10	n/a	n/a	1	51	5
486.1674	1	21	n/a	n/a	1	51	0
487.334	1	10	n/a	n/a	1	51	1
488.4006	1	10	n/a	n/a	1	51	2
489.4338	1	10	n/a	n/a	1	51	3
490.6338	1	10	n/a	n/a	1	51	4
491.9004	1	10	n/a	n/a	1	51	5
493.167	1	21	n/a	n/a	1	51	0
494.4168	1	10	n/a	n/a	1	51	1
495.6	1	10	n/a	n/a	1	51	2
496.4946	1	81	n/a	n/a	1	0	0
496.6944	1	81	n/a	n/a	1	0	0
496.8944	1	81	n/a	n/a	1	0	0
497.0944	1	81	n/a	n/a	1	0	0
497.2944	1	81	n/a	n/a	1	0	0
497.4946	1	81	n/a	n/a	1	0	0
497.6946	1	81	n/a	n/a	1	0	0
497.8946	1	81	n/a	n/a	1	0	0
498.0946	1	81	n/a	n/a	1	0	0
498.2946	1	81	n/a	n/a	1	0	0
499.6166	1	10	n/a	n/a	1	51	1
500.8664	1	10	n/a	n/a	1	51	2
501.9664	1	10	n/a	n/a	1	51	3
503.0664	1	21	n/a	n/a	1	51	0
504.283	1	10	n/a	n/a	1	51	1
505.3662	1	10	n/a	n/a	1	51	2
506.6162	1	10	n/a	n/a	1	51	3
507.866	1	21	n/a	n/a	1	51	0
508.9494	1	10	n/a	n/a	1	51	1
510.0492	1	10	n/a	n/a	1	51	2
511.0826	1	10	n/a	n/a	1	51	3
512.1658	1	10	n/a	n/a	1	51	4
513.4658	1	10	n/a	n/a	1	51	5
514.6156	1	10	n/a	n/a	1	51	6
515.7322	1	10	n/a	n/a	1	51	7
516.8488	1	21	n/a	n/a	1	51	0
518.0988	1	10	n/a	n/a	1	51	1
519.3488	1	21	n/a	n/a	1	51	0
520.6486	1	10	n/a	n/a	1	51	1
521.8986	1	10	n/a	n/a	1	51	2
680.8208	1	81	n/a	n/a	1	0	0
681.0208	1	81	n/a	n/a	1	0	0
681.2208	1	81	n/a	n/a	1	0	0
681.4208	1	81	n/a	n/a	1	0	0
681.6208	1	81	n/a	n/a	1	0	0
681.8208	1	81	n/a	n/a	1	0	0
682.0208	1	81	n/a	n/a	1	0	0
682.2208	1	81	n/a	n/a	1	0	0
682.4208	1	81	n/a	n/a	1	0	0
682.6208	1	81	n/a	n/a	1	0	0
683.9558	1	10	n/a	n/a	1	51	1
685.0058	1	10	n/a	n/a	1	51	2
686.2556	1	10	n/a	n/a	1	51	3
687.5056	1	21	n/a	n/a	1	51	0
688.8222	1	10	n/a	n/a	1	51	1
689.9888	1	10	n/a	n/a	1	51	2
691.1388	1	10	n/a	n/a	1	51	3
692.2886	1	10	n/a	n/a	1	51	4
693.322	1	10	n/a	n/a	1	51	5
694.4386	1	10	n/a	n/a	1	51	6
695.6884	1	10	n/a	n/a	1	51	7
696.9384	1	21	n/a	n/a	1	51	0
698.0216	1	10	n/a	n/a	1	51	1
699.2382	1	10	n/a	n/a	1	51	2
700.3382	1	10	n/a	n/a	1	51	3
701.4382	1	10	n/a	n/a	1	51	4
702.5548	1	10	n/a	n/a	1	51	5
703.6714	1	21	n/a	n/a	1	51	0
704.7546	1	10	n/a	n/a	1	51	1
705.9046	1	10	n/a	n/a	1	51	2
706.975	1	81	n/a	n/a	1	0	0
707.175	1	81	n/a	n/a	1	0	0
707.375	1	81	n/a	n/a	1	0	0
707.575	1	81	n/a	n/a	1	0	0
707.775	1	81	n/a	n/a	1	0	0
707.975	1	81	n/a	n/a	1	0	0
708.175	1	81	n/a	n/a	1	0	0
708.375	1	81	n/a	n/a	1	0	0
708.575	1	81	n/a	n/a	1	0	0
708.775	1	81	n/a	n/a	1	0	0
709.9044	1	10	n/a	n/a	1	51	1
710.9876	1	10	n/a	n/a	1	51	2
712.2708	1	10	n/a	n/a	1	51	3
713.5542	1	21	n/a	n/a	1	51	0
714.7374	1	10	n/a	n/a	1	51	1
715.9872	1	10	n/a	n/a	1	51	2
717.0706	1	10	n/a	n/a	1	51	3
718.1538	1	21	n/a	n/a	1	51	0
719.2204	1	10	n/a	n/a	1	51	1
720.4204	1	10	n/a	n/a	1	51	2
721.687	1	10	n/a	n/a	1	51	3
722.9536	1	21	n/a	n/a	1	51	0
724.0034	1	10	n/a	n/a	1	51	1
725.0368	1	10	n/a	n/a	1	51	2
726.1368	1	10	n/a	n/a	1	51	3
727.2366	1	21	n/a	n/a	1	51	0
728.42	1	10	n/a	n/a	1	51	1
729.5866	1	10	n/a	n/a	1	51	2
730.6198	1	10	n/a	n/a	1	51	3
731.653	1	21	n/a	n/a	1	51	0
732.3898	1	81	n/a	n/a	1	0	0
732.5898	1	81	n/a	n/a	1	0	0
732.7898	1	81	n/a	n/a	1	0	0
732.9898	1	81	n/a	n/a	1	0	0
733.1898	1	81	n/a	n/a	1	0	0
733.3898	1	81	n/a	n/a	1	0	0
733.5898	1	81	n/a	n/a	1	0	0
733.7898	1	81	n/a	n/a	1	0	0
733.9898	1	81	n/a	n/a	1	0	0
734.1898	1	81	n/a	n/a	1	0	0
735.5028	1	10	n/a	n/a	1	51	1
736.7028	1	10	n/a	n/a	1	51	2
737.8526	1	10	n/a	n/a	1	51	3
739.086	1	10	n/a	n/a	1	51	4
740.2692	1	10	n/a	n/a	1	51	5
741.4358	1	10	n/a	n/a	1	51	6
742.719	1	10	n/a	n/a	1	51	7
744.0024	1	21	n/a	n/a	1	51	0
745.1356	1	10	n/a	n/a	1	51	1
746.2856	1	21	n/a	n/a	1	51	0
747.5688	1	10	n/a	n/a	1	51	1
748.752	1	10	n/a	n/a	1	51	2
750.0354	1	10	n/a	n/a	1	51	3
751.3186	1	21	n/a	n/a	1	51	0
752.6018	1	10	n/a	n/a	1	51	1
753.885	1	21	n/a	n/a	1	51	0
755.2016	1	10	n/a	n/a	1	51	1
756.5182	1	21	n/a	n/a	1	51	0
757.7348	1	10	n/a	n/a	1	51	1
758.9348	1	10	n/a	n/a	1	51	2
759.7572	1	81	n/a	n/a	1	0	0
759.9572	1	81	n/a	n/a	1	0	0
760.1572	1	81	n/a	n/a	1	0	0
760.3572	1	81	n/a	n/a	1	0	0
760.5572	1	81	n/a	n/a	1	0	0
760.7572	1	81	n/a	n/a	1	0	0
760.9572	1	81	n/a	n/a	1	0	0
761.1572	1	81	n/a	n/a	1	0	0
761.3572	1	81	n/a	n/a	1	0	0
761.5572	1	81	n/a	n/a	1	0	0
762.6846	1	10	n/a	n/a	1	51	1
763.7846	1	10	n/a	n/a	1	51	2
765.0178	1	10	n/a	n/a	1	51	3
766.251	1	21	n/a	n/a	1	51	0
767.551	1	10	n/a	n/a	1	51	1
768.6676	1	10	n/a	n/a	1	51	2
769.8342	1	10	n/a	n/a	1	51	3
771.0008	1	21	n/a	n/a	1	51	0
772.234	1	10	n/a	n/a	1	51	1
773.334	1	10	n/a	n/a	1	51	2
774.4838	1	10	n/a	n/a	1	51	3
775.6338	1	21	n/a	n/a	1	51	0
776.8004	1	10	n/a	n/a	1	51	1
777.967	1	21	n/a	n/a	1	51	0
779.1336	1	10	n/a	n/a	1	51	1
780.2836	1	10	n/a	n/a	1	51	2
781.4668	1	10	n/a	n/a	1	51	3
782.65	1	21	n/a	n/a	1	51	0
783.9334	1	10	n/a	n/a	1	51	1
785.15	1	10	n/a	n/a	1	51	2
786.0044	1	81	n/a	n/a	1	0	0
786.2044	1	81	n/a	n/a	1	0	0
786.4044	1	81	n/a	n/a	1	0	0
786.6044	1	81	n/a	n/a	1	0	0
786.8044	1	81	n/a	n/a	1	0	0
787.0044	1	81	n/a	n/a	1	0	0
787.2044	1	81	n/a	n/a	1	0	0
787.4044	1	81	n/a	n/a	1	0	0
787.6044	1	81	n/a	n/a	1	0	0
787.8044	1	81	n/a	n/a	1	0	0
789.0164	1	10	n/a	n/a	1	51	1
790.183	1	10	n/a	n/a	1	51	2
791.2162	1	10	n/a	n/a	1	51	3
792.3662	1	10	n/a	n/a	1	51	4
793.5328	1	10	n/a	n/a	1	51	5
794.7328	1	10	n/a	n/a	1	51	6
795.8494	1	10	n/a	n/a	1	51	7
796.966	1	21	n/a	n/a	1	51	0
798.0492	1	10	n/a	n/a	1	51	1
799.1324	1	21	n/a	n/a	1	51	0
800.2658	1	10	n/a	n/a	1	51	1
801.499	1	10	n/a	n/a	1	51	2
802.7156	1	10	n/a	n/a	1	51	3
804.0156	1	10	n/a	n/a	1	51	4
805.1488	1	10	n/a	n/a	1	51	5
806.282	1	21	n/a	n/a	1	51	0
807.382	1	10	n/a	n/a	1	51	1
808.5986	1	10	n/a	n/a	1	51	2
809.6818	1	10	n/a	n/a	1	51	3
810.8818	1	10	n/a	n/a	1	51	4
827.97	1	82	n/a	n/a	1	0	0
828.002	1	82	n/a	n/a	1	0	0
828.073	1	82	n/a	n/a	1	0	0
828.405	1	82	n/a	n/a	1	0	0
828.825	1	82	n/a	n/a	1	0	0
828.97	1	82	n/a	n/a	1	0	0
829.077	1	82	n/a	n/a	1	0	0
829.405	1	82	n/a	n/a	1	0	0
829.596	1	82	n/a	n/a	1	0	0
829.869	1	82	n/a	n/a	1	0	0
831.1472	1	10	n/a	n/a	1	50	1
832.4306	1	21	n/a	n/a	1	50	0
833.6638	1	10	n/a	n/a	1	50	1
834.897	1	21	n/a	n/a	1	50	0
835.9304	1	10	n/a	n/a	1	50	1
837.2302	1	10	n/a	n/a	1	50	2
838.3968	1	10	n/a	n/a	1	50	3
839.5134	1	10	n/a	n/a	1	50	4
840.5468	1	10	n/a	n/a	1	50	5
841.6466	1	10	n/a	n/a	1	50	6
842.8966	1	10	n/a	n/a	1	50	7
844.1466	1	21	n/a	n/a	1	50	0
845.2464	1	10	n/a	n/a	1	50	1
846.3964	1	10	n/a	n/a	1	50	2
847.563	1	10	n/a	n/a	1	50	3
848.5962	1	10	n/a	n/a	1	50	4
849.7128	1	10	n/a	n/a	1	50	5
850.7794	1	10	n/a	n/a	1	50	6
851.846	1	10	n/a	n/a	1	50	7
852.9126	1	21	n/a	n/a	1	50	0
853.9794	1	82	n/a	n/a	1	0	0
854.0824	1	82	n/a	n/a	1	0	0
854.3664	1	82	n/a	n/a	1	0	0
854.4964	1	82	n/a	n/a	1	0	0
854.8244	1	82	n/a	n/a	1	0	0
854.9794	1	82	n/a	n/a	1	0	0
855.2834	1	82	n/a	n/a	1	0	0
855.6334	1	82	n/a	n/a	1	0	0
855.6924	1	82	n/a	n/a	1	0	0
855.8694	1	82	n/a	n/a	1	0	0
857.0958	1	10	n/a	n/a	1	50	1
858.3456	1	10	n/a	n/a	1	50	2
859.5956	1	10	n/a	n/a	1	50	3
860.7456	1	10	n/a	n/a	1	50	4
862.0788	1	10	n/a	n/a	1	50	5
863.412	1	21	n/a	n/a	1	50	0
864.512	1	10	n/a	n/a	1	50	1
865.612	1	21	n/a	n/a	1	50	0
866.9118	1	10	n/a	n/a	1	50	1
868.2118	1	21	n/a	n/a	1	50	0
869.345	1	10	n/a	n/a	1	50	1
870.6616	1	10	n/a	n/a	1	50	2
871.7116	1	10	n/a	n/a	1	50	3
872.7616	1	21	n/a	n/a	1	50	0
873.8282	1	10	n/a	n/a	1	50	1
875.028	1	10	n/a	n/a	1	50	2
876.2946	1	10	n/a	n/a	1	50	3
877.5946	1	10	n/a	n/a	1	50	4
878.7612	1	10	n/a	n/a	1	50	5
879.8444	1	10	n/a	n/a	1	50	6
880.842	1	82	n/a	n/a	1	0	0
881.246	1	82	n/a	n/a	1	0	0
881.52	1	82	n/a	n/a	1	0	0
881.545	1	82	n/a	n/a	1	0	0
881.787	1	82	n/a	n/a	1	0	0
881.842	1	82	n/a	n/a	1	0	0
881.956	1	82	n/a	n/a	1	0	0
882.017	1	82	n/a	n/a	1	0	0
882.354	1	82	n/a	n/a	1	0	0
882.595	1	82	n/a	n/a	1	0	0
883.8108	1	10	n/a	n/a	1	50	1
884.8942	1	21	n/a	n/a	1	50	0
886.2274	1	10	n/a	n/a	1	50	1
887.5606	1	21	n/a	n/a	1	50	0
888.8106	1	10	n/a	n/a	1	50	1
889.9772	1	10	n/a	n/a	1	50	2
891.0604	1	10	n/a	n/a	1	50	3
892.1438	1	21	n/a	n/a	1	50	0
893.3104	1	10	n/a	n/a	1	50	1
894.477	1	21	n/a	n/a	1	50	0
895.7602	1	10	n/a	n/a	1	50	1
897.0102	1	10	n/a	n/a	1	50	2
898.1934	1	10	n/a	n/a	1	50	3
899.3766	1	21	n/a	n/a	1	50	0
900.5432	1	10	n/a	n/a	1	50	1
901.6598	1	10	n/a	n/a	1	50	2
902.7264	1	10	n/a	n/a	1	50	3
903.943	1	10	n/a	n/a	1	50	4
905.0764	1	10	n/a	n/a	1	50	5
906.2096	1	21	n/a	n/a	1	50	0
907.2502	1	82	n/a	n/a	1	0	0
907.3732	1	82	n/a	n/a	1	0	0
907.7682	1	82	n/a	n/a	1	0	0
907.8072	1	82	n/a	n/a	1	0	0
907.9862	1	82	n/a	n/a	1	0	0
908.2502	1	82	n/a	n/a	1	0	0
908.4832	1	82	n/a	n/a	1	0	0
908.5802	1	82	n/a	n/a	1	0	0
908.6982	1	82	n/a	n/a	1	0	0
909.0582	1	82	n/a	n/a	1	0	0
910.426	1	10	n/a	n/a	1	50	1
911.5092	1	10	n/a	n/a	1	50	2
912.6758	1	10	n/a	n/a	1	50	3
913.9092	1	10	n/a	n/a	1	50	4
915.009	1	10	n/a	n/a	1	50	5
916.109	1	10	n/a	n/a	1	50	6
917.3756	1	10	n/a	n/a	1	50	7
918.6422	1	21	n/a	n/a	1	50	0
919.7754	1	10	n/a	n/a	1	50	1
921.092	1	10	n/a	n/a	1	50	2
922.242	1	10	n/a	n/a	1	50	3
923.392	1	21	n/a	n/a	1	50	0
924.7086	1	10	n/a	n/a	1	50	1
925.9252	1	10	n/a	n/a	1	50	2
927.1916	1	10	n/a	n/a	1	50	3
928.5082	1	10	n/a	n/a	1	50	4
929.6248	1	10	n/a	n/a	1	50	5
930.9248	1	10	n/a	n/a	1	50	6
932.008	1	10	n/a	n/a	1	50	7
933.0914	1	21	n/a	n/a	1	50	0
934.0482	1	82	n/a	n/a	1	0	0
934.17	1	82	n/a	n/a	1	0	0
934.317	1	82	n/a	n/a	1	0	0
934.349	1	82	n/a	n/a	1	0	0
934.411	1	82	n/a	n/a	1	0	0
935.0482	1	82	n/a	n/a	1	0	0
935.1082	1	82	n/a	n/a	1	0	0
935.3372	1	82	n/a	n/a	1	0	0
935.6492	1	82	n/a	n/a	1	0	0
935.8122	1	82	n/a	n/a	1	0	0
937.1744	1	10	n/a	n/a	1	50	1
938.4078	1	21	n/a	n/a	1	50	0
939.5576	1	10	n/a	n/a	1	50	1
940.841	1	10	n/a	n/a	1	50	2
942.1074	1	10	n/a	n/a	1	50	3
943.374	1	21	n/a	n/a	1	50	0
944.674	1	10	n/a	n/a	1	50	1
945.8572	1	10	n/a	n/a	1	50	2
947.1238	1	10	n/a	n/a	1	50	3
948.3238	1	10	n/a	n/a	1	50	4
949.4738	1	10	n/a	n/a	1	50	5
950.5904	1	10	n/a	n/a	1	50	6
951.6236	1	10	n/a	n/a	1	50	7
952.6568	1	21	n/a	n/a	1	50	0
953.9568	1	10	n/a	n/a	1	50	1
955.2068	1	10	n/a	n/a	1	50	2
956.3234	1	10	n/a	n/a	1	50	3
957.64	1	10	n/a	n/a	1	50	4
958.6732	1	10	n/a	n/a	1	50	5
959.7064	1	21	n/a	n/a	1	50	0
986.544	1	82	n/a	n/a	1	0	0
986.608	1	82	n/a	n/a	1	0	0
986.643	1	82	n/a	n/a	1	0	0
986.753	1	82	n/a	n/a	1	0	0
987.189	1	82	n/a	n/a	1	0	0
987.544	1	82	n/a	n/a	1	0	0
987.853	1	82	n/a	n/a	1	0	0
988.032	1	82	n/a	n/a	1	0	0
988.1	1	82	n/a	n/a	1	0	0
988.465	1	82	n/a	n/a	1	0	0
989.7214	1	10	n/a	n/a	1	52	1
990.838	1	10	n/a	n/a	1	52	2
991.9046	1	10	n/a	n/a	1	52	3
993.0212	1	10	n/a	n/a	1	52	4
994.3212	1	10	n/a	n/a	1	52	5
995.6378	1	10	n/a	n/a	1	52	6
996.871	1	10	n/a	n/a	1	52	7
998.1042	1	21	n/a	n/a	1	52	0
999.2376	1	10	n/a	n/a	1	52	1
1000.2874	1	10	n/a	n/a	1	52	2
1001.5874	1	10	n/a	n/a	1	52	3
1002.8374	1	10	n/a	n/a	1	52	4
1004.1372	1	10	n/a	n/a	1	52	5
1005.4538	1	10	n/a	n/a	1	52	6
1006.7704	1	10	n/a	n/a	1	52	7
1008.087	1	21	n/a	n/a	1	52	0
1009.137	1	10	n/a	n/a	1	52	1
1010.3036	1	10	n/a	n/a	1	52	2
1011.3702	1	10	n/a	n/a	1	52	3
1012.57	1	10	n/a	n/a	1	52	4
1013.3266	1	82	n/a	n/a	1	0	0
1013.3506	1	82	n/a	n/a	1	0	0
1013.4626	1	82	n/a	n/a	1	0	0
1013.6166	1	82	n/a	n/a	1	0	0
1013.6746	1	82	n/a	n/a	1	0	0
1014.3266	1	82	n/a	n/a	1	0	0
1014.4496	1	82	n/a	n/a	1	0	0
1014.6966	1	82	n/a	n/a	1	0	0
1014.7426	1	82	n/a	n/a	1	0	0
1015.1306	1	82	n/a	n/a	1	0	0
1016.3866	1	10	n/a	n/a	1	52	1
1017.6198	1	10	n/a	n/a	1	52	2
1018.7864	1	10	n/a	n/a	1	52	3
1019.8864	1	10	n/a	n/a	1	52	4
1021.0362	1	10	n/a	n/a	1	52	5
1022.1696	1	10	n/a	n/a	1	52	6
1023.4862	1	10	n/a	n/a	1	52	7
1024.8028	1	21	n/a	n/a	1	52	0
1025.8694	1	10	n/a	n/a	1	52	1
1026.9192	1	10	n/a	n/a	1	52	2
1028.2026	1	10	n/a	n/a	1	52	3
1029.4858	1	21	n/a	n/a	1	52	0
1030.7356	1	10	n/a	n/a	1	52	1
1031.8522	1	10	n/a	n/a	1	52	2
1033.0522	1	10	n/a	n/a	1	52	3
1034.1188	1	10	n/a	n/a	1	52	4
1035.2188	1	10	n/a	n/a	1	52	5
1036.3854	1	10	n/a	n/a	1	52	6
1037.6852	1	10	n/a	n/a	1	52	7
1038.9852	1	21	n/a	n/a	1	52	0
1039.883	1	82	n/a	n/a	1	0	0
1039.928	1	82	n/a	n/a	1	0	0
1040.266	1	82	n/a	n/a	1	0	0
1040.571	1	82	n/a	n/a	1	0	0
1040.802	1	82	n/a	n/a	1	0	0
1040.883	1	82	n/a	n/a	1	0	0
1041.142	1	82	n/a	n/a	1	0	0
1041.169	1	82	n/a	n/a	1	0	0
1041.486	1	82	n/a	n/a	1	0	0
1041.712	1	82	n/a	n/a	1	0	0
1043.0016	1	10	n/a	n/a	1	52	1
1044.1682	1	10	n/a	n/a	1	52	2
1045.3182	1	10	n/a	n/a	1	52	3
1046.4348	1	10	n/a	n/a	1	52	4
1047.7514	1	10	n/a	n/a	1	52	5
1048.918	1	10	n/a	n/a	1	52	6
1050.2346	1	10	n/a	n/a	1	52	7
1051.5512	1	21	n/a	n/a	1	52	0
1052.601	1	10	n/a	n/a	1	52	1
1053.6676	1	10	n/a	n/a	1	52	2
1054.7176	1	10	n/a	n/a	1	52	3
1055.7676	1	21	n/a	n/a	1	52	0
1056.8508	1	10	n/a	n/a	1	52	1
1057.9008	1	10	n/a	n/a	1	52	2
1059.0674	1	10	n/a	n/a	1	52	3
1060.234	1	21	n/a	n/a	1	52	0
1061.5172	1	10	n/a	n/a	1	52	1
1062.8004	1	21	n/a	n/a	1	52	0
1063.917	1	10	n/a	n/a	1	52	1
1065.167	1	10	n/a	n/a	1	52	2
1066.0784	1	82	n/a	n/a	1	0	0
1066.2544	1	82	n/a	n/a	1	0	0
1066.3794	1	82	n/a	n/a	1	0	0
1066.6024	1	82	n/a	n/a	1	0	0
1066.8934	1	82	n/a	n/a	1	0	0
1067.0784	1	82	n/a	n/a	1	0	0
1067.3224	1	82	n/a	n/a	1	0	0
1067.3824	1	82	n/a	n/a	1	0	0
1067.6774	1	82	n/a	n/a	1	0	0
1068.0214	1	82	n/a	n/a	1	0	0
1069.0502	1	10	n/a	n/a	1	52	1
1070.3668	1	10	n/a	n/a	1	52	2
1071.4	1	10	n/a	n/a	1	52	3
1072.5166	1	10	n/a	n/a	1	52	4
1073.5832	1	10	n/a	n/a	1	52	5
1074.6498	1	10	n/a	n/a	1	52	6
1075.933	1	10	n/a	n/a	1	52	7
1077.2164	1	21	n/a	n/a	1	52	0
1078.5162	1	10	n/a	n/a	1	52	1
1079.6662	1	10	n/a	n/a	1	52	2
1080.6994	1	10	n/a	n/a	1	52	3
1081.7828	1	10	n/a	n/a	1	52	4
1083.066	1	10	n/a	n/a	1	52	5
1084.166	1	10	n/a	n/a	1	52	6
1085.2158	1	10	n/a	n/a	1	52	7
1086.2658	1	21	n/a	n/a	1	52	0
1087.3324	1	10	n/a	n/a	1	52	1
1088.549	1	10	n/a	n/a	1	52	2
1089.8156	1	10	n/a	n/a	1	52	3
1090.8822	1	10	n/a	n/a	1	52	4
1091.8858	1	82	n/a	n/a	1	0	0
1092.1448	1	82	n/a	n/a	1	0	0
1092.2348	1	82	n/a	n/a	1	0	0
1092.6118	1	82	n/a	n/a	1	0	0
1092.6638	1	82	n/a	n/a	1	0	0
1092.8858	1	82	n/a	n/a	1	0	0
1093.2778	1	82	n/a	n/a	1	0	0
1093.3358	1	82	n/a	n/a	1	0	0
1093.5838	1	82	n/a	n/a	1	0	0
1093.7458	1	82	n/a	n/a	1	0	0
1094.8486	1	10	n/a	n/a	1	52	1
1095.932	1	10	n/a	n/a	1	52	2
1097.1984	1	10	n/a	n/a	1	52	3
1098.2818	1	10	n/a	n/a	1	52	4
1099.4816	1	10	n/a	n/a	1	52	5
1100.6316	1	10	n/a	n/a	1	52	6
1101.8148	1	10	n/a	n/a	1	52	7
1102.9982	1	21	n/a	n/a	1	52	0
1104.1314	1	10	n/a	n/a	1	52	1
1105.248	1	10	n/a	n/a	1	52	2
1106.4146	1	10	n/a	n/a	1	52	3
1107.498	1	10	n/a	n/a	1	52	4
1108.5646	1	10	n/a	n/a	1	52	5
1109.6312	1	10	n/a	n/a	1	52	6
1110.881	1	10	n/a	n/a	1	52	7
1112.131	1	21	n/a	n/a	1	52	0
1113.181	1	10	n/a	n/a	1	52	1
1114.3142	1	10	n/a	n/a	1	52	2
1115.614	1	10	n/a	n/a	1	52	3
1116.814	1	10	n/a	n/a	1	52	4
1157.7206	1	82	n/a	n/a	1	0	0
1157.8316	1	82	n/a	n/a	1	0	0
1157.8746	1	82	n/a	n/a	1	0	0
1158.0536	1	82	n/a	n/a	1	0	0
1158.4066	1	82	n/a	n/a	1	0	0
1158.7206	1	82	n/a	n/a	1	0	0
1159.0326	1	82	n/a	n/a	1	0	0
1159.1376	1	82	n/a	n/a	1	0	0
1159.2216	1	82	n/a	n/a	1	0	0
1159.2636	1	82	n/a	n/a	1	0	0
1160.82	1	10	n/a	n/a	1	52	1
1161.97	1	10	n/a	n/a	1	52	2
1163.1698	1	10	n/a	n/a	1	52	3
1164.3698	1	21	n/a	n/a	1	52	0
1165.6198	1	10	n/a	n/a	1	52	1
1166.8696	1	21	n/a	n/a	1	52	0
1167.9362	1	10	n/a	n/a	1	52	1
1169.1362	1	10	n/a	n/a	1	52	2
1170.3528	1	10	n/a	n/a	1	52	3
1171.6694	1	10	n/a	n/a	1	52	4
1172.936	1	10	n/a	n/a	1	52	5
1174.2026	1	21	n/a	n/a	1	52	0
1175.5024	1	10	n/a	n/a	1	52	1
1176.8024	1	10	n/a	n/a	1	52	2
1178.0356	1	10	n/a	n/a	1	52	3
1179.1022	1	10	n/a	n/a	1	52	4
1180.3188	1	10	n/a	n/a	1	52	5
1181.3854	1	10	n/a	n/a	1	52	6
1182.652	1	10	n/a	n/a	1	52	7
1183.9186	1	21	n/a	n/a	1	52	0
1184.7534	1	82	n/a	n/a	1	0	0
1185.1794	1	82	n/a	n/a	1	0	0
1185.2544	1	82	n/a	n/a	1	0	0
1185.4794	1	82	n/a	n/a	1	0	0
1185.5944	1	82	n/a	n/a	1	0	0
1185.7534	1	82	n/a	n/a	1	0	0
1185.9014	1	82	n/a	n/a	1	0	0
1186.2084	1	82	n/a	n/a	1	0	0
1186.3164	1	82	n/a	n/a	1	0	0
1186.6694	1	82	n/a	n/a	1	0	0
1187.7852	1	10	n/a	n/a	1	52	1
1188.9184	1	21	n/a	n/a	1	52	0
1190.1516	1	10	n/a	n/a	1	52	1
1191.435	1	10	n/a	n/a	1	52	2
1192.4848	1	10	n/a	n/a	1	52	3
1193.6682	1	10	n/a	n/a	1	52	4
1194.7348	1	10	n/a	n/a	1	52	5
1195.9014	1	10	n/a	n/a	1	52	6
1197.118	1	10	n/a	n/a	1	52	7
1198.3346	1	21	n/a	n/a	1	52	0
1199.5678	1	10	n/a	n/a	1	52	1
1200.801	1	21	n/a	n/a	1	52	0
1202.0676	1	10	n/a	n/a	1	52	1
1203.1342	1	10	n/a	n/a	1	52	2
1204.2674	1	10	n/a	n/a	1	52	3
1205.5674	1	10	n/a	n/a	1	52	4
1206.6174	1	10	n/a	n/a	1	52	5
1207.7172	1	10	n/a	n/a	1	52	6
1208.9672	1	10	n/a	n/a	1	52	7
1210.2172	1	21	n/a	n/a	1	52	0
1211.0638	1	82	n/a	n/a	1	0	0
1211.1758	1	82	n/a	n/a	1	0	0
1211.4888	1	82	n/a	n/a	1	0	0
1211.5688	1	82	n/a	n/a	1	0	0
1211.8258	1	82	n/a	n/a	1	0	0
1212.0638	1	82	n/a	n/a	1	0	0
1212.2208	1	82	n/a	n/a	1	0	0
1212.5588	1	82	n/a	n/a	1	0	0
1212.6868	1	82	n/a	n/a	1	0	0
1212.9958	1	82	n/a	n/a	1	0	0
1213.9836	1	10	n/a	n/a	1	52	1
1215.0168	1	21	n/a	n/a	1	52	0
1216.1168	1	10	n/a	n/a	1	52	1
1217.3	1	10	n/a	n/a	1	52	2
1218.4166	1	10	n/a	n/a	1	52	3
1219.5332	1	21	n/a	n/a	1	52	0
1220.7832	1	10	n/a	n/a	1	52	1
1221.9664	1	10	n/a	n/a	1	52	2
1223.0664	1	10	n/a	n/a	1	52	3
1224.0996	1	10	n/a	n/a	1	52	4
1225.3496	1	10	n/a	n/a	1	52	5
1226.4662	1	10	n/a	n/a	1	52	6
1227.6994	1	10	n/a	n/a	1	52	7
1228.9328	1	21	n/a	n/a	1	52	0
1229.9994	1	10	n/a	n/a	1	52	1
1231.2492	1	10	n/a	n/a	1	52	2
1232.4658	1	10	n/a	n/a	1	52	3
1233.5158	1	10	n/a	n/a	1	52	4
1234.5658	1	10	n/a	n/a	1	52	5
1235.6156	1	21	n/a	n/a	1	52	0
1236.7264	1	82	n/a	n/a	1	0	0
1236.8414	1	82	n/a	n/a	1	0	0
1237.2124	1	82	n/a	n/a	1	0	0
1237.4044	1	82	n/a	n/a	1	0	0
1237.6474	1	82	n/a	n/a	1	0	0
1237.7272	1	82	n/a	n/a	1	0	0
1237.8402	1	82	n/a	n/a	1	0	0
1238.2042	1	82	n/a	n/a	1	0	0
1238.3452	1	82	n/a	n/a	1	0	0
1238.5962	1	82	n/a	n/a	1	0	0
1239.8988	1	10	n/a	n/a	1	52	1
1241.182	1	21	n/a	n/a	1	52	0
1242.382	1	10	n/a	n/a	1	52	1
1243.6986	1	10	n/a	n/a	1	52	2
1244.7652	1	10	n/a	n/a	1	52	3
1245.9318	1	10	n/a	n/a	1	52	4
1247.0984	1	10	n/a	n/a	1	52	5
1248.2482	1	10	n/a	n/a	1	52	6
1249.4816	1	10	n/a	n/a	1	52	7
1250.7148	1	21	n/a	n/a	1	52	0
1251.898	1	10	n/a	n/a	1	52	1
1252.9314	1	10	n/a	n/a	1	52	2
1254.248	1	10	n/a	n/a	1	52	3
1255.4978	1	10	n/a	n/a	1	52	4
1256.5978	1	10	n/a	n/a	1	52	5
1257.6978	1	21	n/a	n/a	1	52	0
1258.7976	1	10	n/a	n/a	1	52	1
1260.0976	1	10	n/a	n/a	1	52	2
1261.2142	1	10	n/a	n/a	1	52	3
1262.3308	1	21	n/a	n/a	1	52	0
1263.2082	1	82	n/a	n/a	1	0	0
1263.2512	1	82	n/a	n/a	1	0	0
1263.6392	1	82	n/a	n/a	1	0	0
1263.8292	1	82	n/a	n/a	1	0	0
1264.0932	1	82	n/a	n/a	1	0	0
1264.2082	1	82	n/a	n/a	1	0	0
1264.4402	1	82	n/a	n/a	1	0	0
1264.4992	1	82	n/a	n/a	1	0	0
1264.9352	1	82	n/a	n/a	1	0	0
1264.9682	1	82	n/a	n/a	1	0	0
1266.2138	1	10	n/a	n/a	1	52	1
1267.3306	1	21	n/a	n/a	1	52	0
1268.4638	1	10	n/a	n/a	1	52	1
1269.7804	1	10	n/a	n/a	1	52	2
1270.897	1	10	n/a	n/a	1	52	3
1272.0136	1	21	n/a	n/a	1	52	0
1273.2468	1	10	n/a	n/a	1	52	1
1274.48	1	21	n/a	n/a	1	52	0
1275.53	1	10	n/a	n/a	1	52	1
1276.5634	1	10	n/a	n/a	1	52	2
1277.8466	1	10	n/a	n/a	1	52	3
1279.1298	1	21	n/a	n/a	1	52	0
1280.163	1	10	n/a	n/a	1	52	1
1281.3464	1	10	n/a	n/a	1	52	2
1282.5962	1	10	n/a	n/a	1	52	3
1283.8462	1	21	n/a	n/a	1	52	0
1284.9794	1	10	n/a	n/a	1	52	1
1286.1128	1	21	n/a	n/a	1	52	0
1287.2626	1	10	n/a	n/a	1	52	1
1288.446	1	10	n/a	n/a	1	52	2
1302.3812	1	81	n/a	n/a	1	0	0
1302.5812	1	81	n/a	n/a	1	0	0
1302.7812	1	81	n/a	n/a	1	0	0
1302.9812	1	81	n/a	n/a	1	0	0
1303.1812	1	81	n/a	n/a	1	0	0
1303.3812	1	81	n/a	n/a	1	0	0
1303.5812	1	81	n/a	n/a	1	0	0
1303.7812	1	81	n/a	n/a	1	0	0
1303.9812	1	81	n/a	n/a	1	0	0
1304.1812	1	81	n/a	n/a	1	0	0
1305.345	1	10	n/a	n/a	1	50	1
1306.4116	1	21	n/a	n/a	1	50	0
1307.4782	1	10	n/a	n/a	1	50	1
1308.5448	1	21	n/a	n/a	1	50	0
1309.8448	1	10	n/a	n/a	1	50	1
1311.1446	1	21	n/a	n/a	1	50	0
1312.2612	1	10	n/a	n/a	1	50	1
1313.3778	1	21	n/a	n/a	1	50	0
1314.4944	1	10	n/a	n/a	1	50	1
1315.811	1	10	n/a	n/a	1	50	2
1317.0776	1	10	n/a	n/a	1	50	3
1318.1442	1	10	n/a	n/a	1	50	4
1319.2774	1	10	n/a	n/a	1	50	5
1320.4108	1	21	n/a	n/a	1	50	0
1321.494	1	10	n/a	n/a	1	50	1
1322.7772	1	10	n/a	n/a	1	50	2
1324.0938	1	10	n/a	n/a	1	50	3
1325.2938	1	10	n/a	n/a	1	50	4
1326.3604	1	10	n/a	n/a	1	50	5
1327.427	1	21	n/a	n/a	1	50	0
1328.4476	1	81	n/a	n/a	1	0	0
1328.6476	1	81	n/a	n/a	1	0	0
1328.8476	1	81	n/a	n/a	1	0	0
1329.0476	1	81	n/a	n/a	1	0	0
1329.2476	1	81	n/a	n/a	1	0	0
1329.4476	1	81	n/a	n/a	1	0	0
1329.6476	1	81	n/a	n/a	1	0	0
1329.8476	1	81	n/a	n/a	1	0	0
1330.0476	1	81	n/a	n/a	1	0	0
1330.2476	1	81	n/a	n/a	1	0	0
1331.6102	1	10	n/a	n/a	1	50	1
1332.8934	1	10	n/a	n/a	1	50	2
1334.06	1	10	n/a	n/a	1	50	3
1335.2266	1	21	n/a	n/a	1	50	0
1336.4432	1	10	n/a	n/a	1	50	1
1337.493	1	10	n/a	n/a	1	50	2
1338.7096	1	10	n/a	n/a	1	50	3
1339.8262	1	10	n/a	n/a	1	50	4
1340.993	1	10	n/a	n/a	1	50	5
1342.1594	1	21	n/a	n/a	1	50	0
1343.3928	1	10	n/a	n/a	1	50	1
1344.576	1	10	n/a	n/a	1	50	2
1345.6592	1	10	n/a	n/a	1	50	3
1346.7092	1	10	n/a	n/a	1	50	4
1347.7592	1	10	n/a	n/a	1	50	5
1349.0258	1	10	n/a	n/a	1	50	6
1350.259	1	10	n/a	n/a	1	50	7
1351.4922	1	21	n/a	n/a	1	50	0
1352.5422	1	10	n/a	n/a	1	50	1
1353.8088	1	10	n/a	n/a	1	50	2
1354.8132	1	81	n/a	n/a	1	0	0
1355.0132	1	81	n/a	n/a	1	0	0
1355.2132	1	81	n/a	n/a	1	0	0
1355.4132	1	81	n/a	n/a	1	0	0
1355.6132	1	81	n/a	n/a	1	0	0
1355.8132	1	81	n/a	n/a	1	0	0
1356.0132	1	81	n/a	n/a	1	0	0
1356.2132	1	81	n/a	n/a	1	0	0
1356.4132	1	81	n/a	n/a	1	0	0
1356.6132	1	81	n/a	n/a	1	0	0
1357.8752	1	10	n/a	n/a	1	50	1
1359.0418	1	21	n/a	n/a	1	50	0
1360.3418	1	10	n/a	n/a	1	50	1
1361.475	1	10	n/a	n/a	1	50	2
1362.575	1	10	n/a	n/a	1	50	3
1363.7416	1	10	n/a	n/a	1	50	4
1364.8082	1	10	n/a	n/a	1	50	5
1366.1248	1	10	n/a	n/a	1	50	6
1367.1914	1	10	n/a	n/a	1	50	7
1368.258	1	21	n/a	n/a	1	50	0
1369.308	1	10	n/a	n/a	1	50	1
1370.6078	1	10	n/a	n/a	1	50	2
1371.8744	1	10	n/a	n/a	1	50	3
1372.9578	1	10	n/a	n/a	1	50	4
1374.041	1	10	n/a	n/a	1	50	5
1375.1242	1	21	n/a	n/a	1	50	0
1376.3576	1	10	n/a	n/a	1	50	1
1377.4408	1	10	n/a	n/a	1	50	2
1378.5408	1	10	n/a	n/a	1	50	3
1379.6574	1	10	n/a	n/a	1	50	4
1380.5608	1	81	n/a	n/a	1	0	0
1380.7608	1	81	n/a	n/a	1	0	0
1380.9608	1	81	n/a	n/a	1	0	0
1381.1608	1	81	n/a	n/a	1	0	0
1381.3608	1	81	n/a	n/a	1	0	0
1381.5608	1	81	n/a	n/a	1	0	0
1381.7608	1	81	n/a	n/a	1	0	0
1381.9608	1	81	n/a	n/a	1	0	0
1382.1608	1	81	n/a	n/a	1	0	0
1382.3608	1	81	n/a	n/a	1	0	0
1383.4904	1	10	n/a	n/a	1	50	1
1384.6404	1	10	n/a	n/a	1	50	2
1385.6904	1	10	n/a	n/a	1	50	3
1386.8902	1	10	n/a	n/a	1	50	4
1388.1402	1	10	n/a	n/a	1	50	5
1389.39	1	21	n/a	n/a	1	50	0
1390.4734	1	10	n/a	n/a	1	50	1
1391.6232	1	10	n/a	n/a	1	50	2
1392.7398	1	10	n/a	n/a	1	50	3
1393.8064	1	10	n/a	n/a	1	50	4
1394.8564	1	10	n/a	n/a	1	50	5
1396.0398	1	10	n/a	n/a	1	50	6
1397.0896	1	10	n/a	n/a	1	50	7
1398.1396	1	21	n/a	n/a	1	50	0
1399.2228	1	10	n/a	n/a	1	50	1
1400.3894	1	10	n/a	n/a	1	50	2
1401.4228	1	10	n/a	n/a	1	50	3
1402.5226	1	10	n/a	n/a	1	50	4
1403.6726	1	10	n/a	n/a	1	50	5
1404.8226	1	21	n/a	n/a	1	50	0
1405.888	1	81	n/a	n/a	1	0	0
1406.0878	1	81	n/a	n/a	1	0	0
1406.2878	1	81	n/a	n/a	1	0	0
1406.4878	1	81	n/a	n/a	1	0	0
1406.6878	1	81	n/a	n/a	1	0	0
1406.888	1	81	n/a	n/a	1	0	0
1407.088	1	81	n/a	n/a	1	0	0
1407.288	1	81	n/a	n/a	1	0	0
1407.488	1	81	n/a	n/a	1	0	0
1407.688	1	81	n/a	n/a	1	0	0
1408.839	1	10	n/a	n/a	1	50	1
1410.1222	1	10	n/a	n/a	1	50	2
1411.2722	1	10	n/a	n/a	1	50	3
1412.5554	1	10	n/a	n/a	1	50	4
1413.6386	1	10	n/a	n/a	1	50	5
1414.9386	1	10	n/a	n/a	1	50	6
1416.2052	1	10	n/a	n/a	1	50	7
1417.4718	1	21	n/a	n/a	1	50	0
1418.7718	1	10	n/a	n/a	1	50	1
1419.9716	1	10	n/a	n/a	1	50	2
1421.0716	1	10	n/a	n/a	1	50	3
1422.3716	1	10	n/a	n/a	1	50	4
1423.6214	1	10	n/a	n/a	1	50	5
1424.8714	1	21	n/a	n/a	1	50	0
1425.9214	1	10	n/a	n/a	1	50	1
1427.0878	1	10	n/a	n/a	1	50	2
1428.2212	1	10	n/a	n/a	1	50	3
1429.3544	1	21	n/a	n/a	1	50	0
1430.421	1	10	n/a	n/a	1	50	1
1431.471	1	10	n/a	n/a	1	50	2
1468.3438	1	81	n/a	n/a	1	0	0
1468.5438	1	81	n/a	n/a	1	0	0
1468.7438	1	81	n/a	n/a	1	0	0
1468.9438	1	81	n/a	n/a	1	0	0
1469.1438	1	81	n/a	n/a	1	0	0
1469.344	1	81	n/a	n/a	1	0	0
1469.544	1	81	n/a	n/a	1	0	0
1469.7438	1	81	n/a	n/a	1	0	0
1469.9438	1	81	n/a	n/a	1	0	0
1470.1438	1	81	n/a	n/a	1	0	0
1471.3186	1	10	n/a	n/a	1	51	1
1472.3852	1	10	n/a	n/a	1	51	2
1473.5852	1	10	n/a	n/a	1	51	3
1474.7852	1	10	n/a	n/a	1	51	4
1476.0518	1	10	n/a	n/a	1	51	5
1477.3184	1	10	n/a	n/a	1	51	6
1478.5182	1	10	n/a	n/a	1	51	7
1479.7182	1	21	n/a	n/a	1	51	0
1480.9848	1	10	n/a	n/a	1	51	1
1482.2514	1	21	n/a	n/a	1	51	0
1483.568	1	10	n/a	n/a	1	51	1
1484.8846	1	21	n/a	n/a	1	51	0
1485.9512	1	10	n/a	n/a	1	51	1
1487.0344	1	10	n/a	n/a	1	51	2
1488.2344	1	10	n/a	n/a	1	51	3
1489.3676	1	10	n/a	n/a	1	51	4
1490.6676	1	10	n/a	n/a	1	51	5
1491.8008	1	10	n/a	n/a	1	51	6
1492.884	1	10	n/a	n/a	1	51	7
1493.9674	1	21	n/a	n/a	1	51	0
1494.936	1	81	n/a	n/a	1	0	0
1495.136	1	81	n/a	n/a	1	0	0
1495.336	1	81	n/a	n/a	1	0	0
1495.536	1	81	n/a	n/a	1	0	0
1495.736	1	81	n/a	n/a	1	0	0
1495.936	1	81	n/a	n/a	1	0	0
1496.136	1	81	n/a	n/a	1	0	0
1496.336	1	81	n/a	n/a	1	0	0
1496.536	1	81	n/a	n/a	1	0	0
1496.736	1	81	n/a	n/a	1	0	0
1498.1172	1	10	n/a	n/a	1	51	1
1499.267	1	10	n/a	n/a	1	51	2
1500.4836	1	10	n/a	n/a	1	51	3
1501.767	1	10	n/a	n/a	1	51	4
1503.0168	1	10	n/a	n/a	1	51	5
1504.2668	1	21	n/a	n/a	1	51	0
1505.4166	1	10	n/a	n/a	1	51	1
1506.6332	1	10	n/a	n/a	1	51	2
1507.9166	1	10	n/a	n/a	1	51	3
1508.9498	1	10	n/a	n/a	1	51	4
1510.0664	1	10	n/a	n/a	1	51	5
1511.183	1	21	n/a	n/a	1	51	0
1512.3996	1	10	n/a	n/a	1	51	1
1513.4828	1	10	n/a	n/a	1	51	2
1514.5662	1	10	n/a	n/a	1	51	3
1515.6494	1	21	n/a	n/a	1	51	0
1516.7494	1	10	n/a	n/a	1	51	1
1518.0326	1	10	n/a	n/a	1	51	2
1519.1326	1	10	n/a	n/a	1	51	3
1520.3492	1	10	n/a	n/a	1	51	4
1521.2046	1	81	n/a	n/a	1	0	0
1521.4046	1	81	n/a	n/a	1	0	0
1521.6046	1	81	n/a	n/a	1	0	0
1521.8046	1	81	n/a	n/a	1	0	0
1522.0046	1	81	n/a	n/a	1	0	0
1522.2046	1	81	n/a	n/a	1	0	0
1522.4046	1	81	n/a	n/a	1	0	0
1522.6046	1	81	n/a	n/a	1	0	0
1522.8046	1	81	n/a	n/a	1	0	0
1523.0046	1	81	n/a	n/a	1	0	0
1524.2156	1	10	n/a	n/a	1	51	1
1525.4156	1	10	n/a	n/a	1	51	2
1526.7154	1	10	n/a	n/a	1	51	3
1528.032	1	10	n/a	n/a	1	51	4
1529.0986	1	10	n/a	n/a	1	51	5
1530.4152	1	10	n/a	n/a	1	51	6
1531.6986	1	10	n/a	n/a	1	51	7
1532.9818	1	21	n/a	n/a	1	51	0
1534.1984	1	10	n/a	n/a	1	51	1
1535.4816	1	10	n/a	n/a	1	51	2
1536.7816	1	10	n/a	n/a	1	51	3
1537.8648	1	10	n/a	n/a	1	51	4
1539.048	1	10	n/a	n/a	1	51	5
1540.2314	1	21	n/a	n/a	1	51	0
1541.448	1	10	n/a	n/a	1	51	1
1542.5312	1	10	n/a	n/a	1	51	2
1543.7978	1	10	n/a	n/a	1	51	3
1545.131	1	10	n/a	n/a	1	51	4
1546.3644	1	10	n/a	n/a	1	51	5
1547.5976	1	21	n/a	n/a	1	51	0
1548.7022	1	81	n/a	n/a	1	0	0
1548.9022	1	81	n/a	n/a	1	0	0
1549.1022	1	81	n/a	n/a	1	0	0
1549.3022	1	81	n/a	n/a	1	0	0
1549.5022	1	81	n/a	n/a	1	0	0
1549.703	1	81	n/a	n/a	1	0	0
1549.903	1	81	n/a	n/a	1	0	0
1550.103	1	81	n/a	n/a	1	0	0
1550.303	1	81	n/a	n/a	1	0	0
1550.503	1	81	n/a	n/a	1	0	0
1551.8974	1	10	n/a	n/a	1	51	1
1553.1972	1	21	n/a	n/a	1	51	0
1554.2972	1	10	n/a	n/a	1	51	1
1555.6304	1	10	n/a	n/a	1	51	2
1556.9138	1	10	n/a	n/a	1	51	3
1558.147	1	10	n/a	n/a	1	51	4
1559.3968	1	10	n/a	n/a	1	51	5
1560.6468	1	21	n/a	n/a	1	51	0
1561.73	1	10	n/a	n/a	1	51	1
1562.7966	1	10	n/a	n/a	1	51	2
1563.98	1	10	n/a	n/a	1	51	3
1565.2132	1	10	n/a	n/a	1	51	4
1566.4132	1	10	n/a	n/a	1	51	5
1567.613	1	21	n/a	n/a	1	51	0
1568.8464	1	10	n/a	n/a	1	51	1
1570.013	1	10	n/a	n/a	1	51	2
1571.2296	1	10	n/a	n/a	1	51	3
1572.3794	1	10	n/a	n/a	1	51	4
1573.5628	1	10	n/a	n/a	1	51	5
1574.746	1	21	n/a	n/a	1	51	0
1575.7286	1	81	n/a	n/a	1	0	0
1575.9286	1	81	n/a	n/a	1	0	0
1576.1286	1	81	n/a	n/a	1	0	0
1576.3286	1	81	n/a	n/a	1	0	0
1576.5286	1	81	n/a	n/a	1	0	0
1576.7286	1	81	n/a	n/a	1	0	0
1576.9286	1	81	n/a	n/a	1	0	0
1577.1286	1	81	n/a	n/a	1	0	0
1577.3286	1	81	n/a	n/a	1	0	0
1577.5286	1	81	n/a	n/a	1	0	0
1578.7292	1	10	n/a	n/a	1	51	1
1579.7958	1	10	n/a	n/a	1	51	2
1580.9456	1	10	n/a	n/a	1	51	3
1582.229	1	10	n/a	n/a	1	51	4
1583.4622	1	10	n/a	n/a	1	51	5
1584.6954	1	21	n/a	n/a	1	51	0
1585.9286	1	10	n/a	n/a	1	51	1
1587.162	1	21	n/a	n/a	1	51	0
1588.3952	1	10	n/a	n/a	1	51	1
1589.5618	1	10	n/a	n/a	1	51	2
1590.8618	1	10	n/a	n/a	1	51	3
1592.095	1	10	n/a	n/a	1	51	4
1593.2282	1	10	n/a	n/a	1	51	5
1594.3616	1	21	n/a	n/a	1	51	0
1595.5282	1	10	n/a	n/a	1	51	1
1596.8114	1	10	n/a	n/a	1	51	2
1597.8614	1	10	n/a	n/a	1	51	3
1598.8946	1	10	n/a	n/a	1	51	4
1600.1778	1	10	n/a	n/a	1	51	5
1601.4944	1	10	n/a	n/a	1	51	6
1672.2802	1	82	n/a	n/a	1	0	0
1672.4072	1	82	n/a	n/a	1	0	0
1672.6952	1	82	n/a	n/a	1	0	0
1673.1012	1	82	n/a	n/a	1	0	0
1673.185	1	82	n/a	n/a	1	0	0
1673.2802	1	82	n/a	n/a	1	0	0
1673.3432	1	82	n/a	n/a	1	0	0
1673.7672	1	82	n/a	n/a	1	0	0
1674.0352	1	82	n/a	n/a	1	0	0
1674.1452	1	82	n/a	n/a	1	0	0
1675.4568	1	10	n/a	n/a	1	52	1
1676.74	1	21	n/a	n/a	1	52	0
1678.04	1	10	n/a	n/a	1	52	1
1679.29	1	10	n/a	n/a	1	52	2
1680.5732	1	10	n/a	n/a	1	52	3
1681.6398	1	10	n/a	n/a	1	52	4
1682.923	1	10	n/a	n/a	1	52	5
1684.2064	1	21	n/a	n/a	1	52	0
1685.323	1	10	n/a	n/a	1	52	1
1686.5562	1	10	n/a	n/a	1	52	2
1687.7728	1	10	n/a	n/a	1	52	3
1688.856	1	10	n/a	n/a	1	52	4
1689.9394	1	10	n/a	n/a	1	52	5
1691.0226	1	21	n/a	n/a	1	52	0
1692.1392	1	10	n/a	n/a	1	52	1
1693.1724	1	10	n/a	n/a	1	52	2
1694.2224	1	10	n/a	n/a	1	52	3
1695.3056	1	10	n/a	n/a	1	52	4
1696.389	1	10	n/a	n/a	1	52	5
1697.4722	1	21	n/a	n/a	1	52	0
1698.589	1	82	n/a	n/a	1	0	0
1698.677	1	82	n/a	n/a	1	0	0
1698.84	1	82	n/a	n/a	1	0	0
1699.195	1	82	n/a	n/a	1	0	0
1699.329	1	82	n/a	n/a	1	0	0
1699.5896	1	82	n/a	n/a	1	0	0
1699.7336	1	82	n/a	n/a	1	0	0
1699.9846	1	82	n/a	n/a	1	0	0
1700.0966	1	82	n/a	n/a	1	0	0
1700.4076	1	82	n/a	n/a	1	0	0
1701.7386	1	10	n/a	n/a	1	52	1
1702.7886	1	10	n/a	n/a	1	52	2
1703.8552	1	10	n/a	n/a	1	52	3
1705.0552	1	10	n/a	n/a	1	52	4
1706.355	1	10	n/a	n/a	1	52	5
1707.5382	1	10	n/a	n/a	1	52	6
1708.8548	1	10	n/a	n/a	1	52	7
1710.1714	1	21	n/a	n/a	1	52	0
1711.3214	1	10	n/a	n/a	1	52	1
1712.388	1	10	n/a	n/a	1	52	2
1713.5712	1	10	n/a	n/a	1	52	3
1714.7546	1	21	n/a	n/a	1	52	0
1715.9878	1	10	n/a	n/a	1	52	1
1717.2378	1	21	n/a	n/a	1	52	0
1718.3044	1	10	n/a	n/a	1	52	1
1719.3876	1	10	n/a	n/a	1	52	2
1720.6208	1	10	n/a	n/a	1	52	3
1721.8542	1	21	n/a	n/a	1	52	0
1722.9208	1	10	n/a	n/a	1	52	1
1724.204	1	10	n/a	n/a	1	52	2
1725.1006	1	82	n/a	n/a	1	0	0
1725.2116	1	82	n/a	n/a	1	0	0
1725.5566	1	82	n/a	n/a	1	0	0
1725.8406	1	82	n/a	n/a	1	0	0
1725.9176	1	82	n/a	n/a	1	0	0
1726.1006	1	82	n/a	n/a	1	0	0
1726.2006	1	82	n/a	n/a	1	0	0
1726.6066	1	82	n/a	n/a	1	0	0
1726.8586	1	82	n/a	n/a	1	0	0
1726.9306	1	82	n/a	n/a	1	0	0
1728.0704	1	10	n/a	n/a	1	52	1
1729.237	1	10	n/a	n/a	1	52	2
1730.487	1	10	n/a	n/a	1	52	3
1731.7536	1	10	n/a	n/a	1	52	4
1732.8036	1	10	n/a	n/a	1	52	5
1733.9702	1	10	n/a	n/a	1	52	6
1735.17	1	10	n/a	n/a	1	52	7
1736.37	1	21	n/a	n/a	1	52	0
1737.4866	1	10	n/a	n/a	1	52	1
1738.7364	1	10	n/a	n/a	1	52	2
1739.9364	1	10	n/a	n/a	1	52	3
1741.1364	1	21	n/a	n/a	1	52	0
1742.1862	1	10	n/a	n/a	1	52	1
1743.3028	1	10	n/a	n/a	1	52	2
1744.3528	1	10	n/a	n/a	1	52	3
1745.6528	1	10	n/a	n/a	1	52	4
1746.736	1	10	n/a	n/a	1	52	5
1747.8192	1	21	n/a	n/a	1	52	0
1748.886	1	10	n/a	n/a	1	52	1
1749.9526	1	10	n/a	n/a	1	52	2
1750.885	1	82	n/a	n/a	1	0	0
1750.971	1	82	n/a	n/a	1	0	0
1751.323	1	82	n/a	n/a	1	0	0
1751.584	1	82	n/a	n/a	1	0	0
1751.742	1	82	n/a	n/a	1	0	0
1751.885	1	82	n/a	n/a	1	0	0
1752.188	1	82	n/a	n/a	1	0	0
1752.208	1	82	n/a	n/a	1	0	0
1752.253	1	82	n/a	n/a	1	0	0
1752.621	1	82	n/a	n/a	1	0	0
1754.119	1	10	n/a	n/a	1	52	1
1755.4522	1	21	n/a	n/a	1	52	0
1756.7354	1	10	n/a	n/a	1	52	1
1757.8188	1	10	n/a	n/a	1	52	2
1759.052	1	10	n/a	n/a	1	52	3
1760.352	1	10	n/a	n/a	1	52	4
1761.6018	1	10	n/a	n/a	1	52	5
1762.8518	1	21	n/a	n/a	1	52	0
1764.135	1	10	n/a	n/a	1	52	1
1765.4516	1	10	n/a	n/a	1	52	2
1766.7016	1	10	n/a	n/a	1	52	3
1767.9682	1	10	n/a	n/a	1	52	4
1769.218	1	10	n/a	n/a	1	52	5
1770.3014	1	10	n/a	n/a	1	52	6
1771.4846	1	10	n/a	n/a	1	52	7
1772.6678	1	21	n/a	n/a	1	52	0
1773.9344	1	10	n/a	n/a	1	52	1
1775.201	1	10	n/a	n/a	1	52	2
1776.251	1	10	n/a	n/a	1	52	3
1777.4676	1	10	n/a	n/a	1	52	4
1778.435	1	82	n/a	n/a	1	0	0
1778.825	1	82	n/a	n/a	1	0	0
1778.975	1	82	n/a	n/a	1	0	0
1779.095	1	82	n/a	n/a	1	0	0
1779.375	1	82	n/a	n/a	1	0	0
1779.435	1	82	n/a	n/a	1	0	0
1779.524	1	82	n/a	n/a	1	0	0
1779.875	1	82	n/a	n/a	1	0	0
1779.903	1	82	n/a	n/a	1	0	0
1780.058	1	82	n/a	n/a	1	0	0
1781.6174	1	10	n/a	n/a	1	52	1
1782.7006	1	10	n/a	n/a	1	52	2
1783.8838	1	10	n/a	n/a	1	52	3
1785.0838	1	10	n/a	n/a	1	52	4
1786.367	1	10	n/a	n/a	1	52	5
1787.6504	1	21	n/a	n/a	1	52	0
1788.9502	1	10	n/a	n/a	1	52	1
1789.9836	1	10	n/a	n/a	1	52	2
1791.0168	1	10	n/a	n/a	1	52	3
1792.05	1	21	n/a	n/a	1	52	0
1793.2166	1	10	n/a	n/a	1	52	1
1794.35	1	10	n/a	n/a	1	52	2
1795.3998	1	10	n/a	n/a	1	52	3
1796.4498	1	10	n/a	n/a	1	52	4
1797.7664	1	10	n/a	n/a	1	52	5
1799.083	1	21	n/a	n/a	1	52	0
1800.333	1	10	n/a	n/a	1	52	1
1801.6328	1	10	n/a	n/a	1	52	2
1802.8828	1	10	n/a	n/a	1	52	3
1804.1326	1	21	n/a	n/a	1	52	0
1823.8802	1	81	n/a	n/a	1	0	0
1824.0802	1	81	n/a	n/a	1	0	0
1824.2802	1	81	n/a	n/a	1	0	0
1824.4802	1	81	n/a	n/a	1	0	0
1824.6802	1	81	n/a	n/a	1	0	0
1824.8802	1	81	n/a	n/a	1	0	0
1825.0802	1	81	n/a	n/a	1	0	0
1825.2802	1	81	n/a	n/a	1	0	0
1825.4802	1	81	n/a	n/a	1	0	0
1825.6802	1	81	n/a	n/a	1	0	0
1826.9148	1	10	n/a	n/a	1	50	1
1828.0814	1	10	n/a	n/a	1	50	2
1829.348	1	10	n/a	n/a	1	50	3
1830.5478	1	10	n/a	n/a	1	50	4
1831.6812	1	10	n/a	n/a	1	50	5
1832.7978	1	10	n/a	n/a	1	50	6
1834.1142	1	10	n/a	n/a	1	50	7
1835.4308	1	21	n/a	n/a	1	50	0
1836.4642	1	10	n/a	n/a	1	50	1
1837.7308	1	10	n/a	n/a	1	50	2
1839.014	1	10	n/a	n/a	1	50	3
1840.314	1	10	n/a	n/a	1	50	4
1841.5806	1	10	n/a	n/a	1	50	5
1842.8472	1	21	n/a	n/a	1	50	0
1843.9638	1	10	n/a	n/a	1	50	1
1845.2136	1	10	n/a	n/a	1	50	2
1846.3302	1	10	n/a	n/a	1	50	3
1847.5968	1	10	n/a	n/a	1	50	4
1848.7302	1	10	n/a	n/a	1	50	5
1849.8134	1	10	n/a	n/a	1	50	6
1850.6108	1	81	n/a	n/a	1	0	0
1850.8108	1	81	n/a	n/a	1	0	0
1851.0108	1	81	n/a	n/a	1	0	0
1851.2108	1	81	n/a	n/a	1	0	0
1851.4108	1	81	n/a	n/a	1	0	0
1851.6108	1	81	n/a	n/a	1	0	0
1851.8108	1	81	n/a	n/a	1	0	0
1852.0108	1	81	n/a	n/a	1	0	0
1852.2108	1	81	n/a	n/a	1	0	0
1852.4108	1	81	n/a	n/a	1	0	0
1853.6464	1	10	n/a	n/a	1	50	1
1854.7964	1	21	n/a	n/a	1	50	0
1855.913	1	10	n/a	n/a	1	50	1
1857.2296	1	10	n/a	n/a	1	50	2
1858.3296	1	10	n/a	n/a	1	50	3
1859.5294	1	10	n/a	n/a	1	50	4
1860.7794	1	10	n/a	n/a	1	50	5
1861.846	1	10	n/a	n/a	1	50	6
1862.9626	1	10	n/a	n/a	1	50	7
1864.0792	1	21	n/a	n/a	1	50	0
1865.1124	1	10	n/a	n/a	1	50	1
1866.1458	1	21	n/a	n/a	1	50	0
1867.4456	1	10	n/a	n/a	1	50	1
1868.7456	1	10	n/a	n/a	1	50	2
1869.7956	1	10	n/a	n/a	1	50	3
1870.8288	1	10	n/a	n/a	1	50	4
1872.0954	1	10	n/a	n/a	1	50	5
1873.312	1	10	n/a	n/a	1	50	6
1874.5286	1	10	n/a	n/a	1	50	7
1875.7452	1	21	n/a	n/a	1	50	0
1876.6536	1	81	n/a	n/a	1	0	0
1876.8536	1	81	n/a	n/a	1	0	0
1877.0536	1	81	n/a	n/a	1	0	0
1877.2536	1	81	n/a	n/a	1	0	0
1877.4536	1	81	n/a	n/a	1	0	0
1877.6536	1	81	n/a	n/a	1	0	0
1877.8536	1	81	n/a	n/a	1	0	0
1878.0536	1	81	n/a	n/a	1	0	0
1878.2536	1	81	n/a	n/a	1	0	0
1878.4536	1	81	n/a	n/a	1	0	0
1879.8116	1	10	n/a	n/a	1	50	1
1880.895	1	10	n/a	n/a	1	50	2
1882.1616	1	10	n/a	n/a	1	50	3
1883.2282	1	10	n/a	n/a	1	50	4
1884.528	1	10	n/a	n/a	1	50	5
1885.5614	1	10	n/a	n/a	1	50	6
1886.6946	1	10	n/a	n/a	1	50	7
1887.8278	1	21	n/a	n/a	1	50	0
1888.8944	1	10	n/a	n/a	1	50	1
1890.011	1	10	n/a	n/a	1	50	2
1891.0944	1	10	n/a	n/a	1	50	3
1892.1776	1	21	n/a	n/a	1	50	0
1893.4942	1	10	n/a	n/a	1	50	1
1894.5608	1	10	n/a	n/a	1	50	2
1895.7774	1	10	n/a	n/a	1	50	3
1896.994	1	21	n/a	n/a	1	50	0
1898.194	1	10	n/a	n/a	1	50	1
1899.3938	1	21	n/a	n/a	1	50	0
1900.4938	1	10	n/a	n/a	1	50	1
1901.677	1	10	n/a	n/a	1	50	2
1902.5844	1	81	n/a	n/a	1	0	0
1902.7844	1	81	n/a	n/a	1	0	0
1902.9844	1	81	n/a	n/a	1	0	0
1903.1844	1	81	n/a	n/a	1	0	0
1903.3844	1	81	n/a	n/a	1	0	0
1903.5844	1	81	n/a	n/a	1	0	0
1903.7844	1	81	n/a	n/a	1	0	0
1903.9844	1	81	n/a	n/a	1	0	0
1904.1844	1	81	n/a	n/a	1	0	0
1904.3844	1	81	n/a	n/a	1	0	0
1905.7268	1	10	n/a	n/a	1	50	1
1906.76	1	10	n/a	n/a	1	50	2
1907.9266	1	10	n/a	n/a	1	50	3
1909.1766	1	10	n/a	n/a	1	50	4
1910.3932	1	10	n/a	n/a	1	50	5
1911.5932	1	10	n/a	n/a	1	50	6
1912.8598	1	10	n/a	n/a	1	50	7
1914.1264	1	21	n/a	n/a	1	50	0
1915.443	1	10	n/a	n/a	1	50	1
1916.6928	1	10	n/a	n/a	1	50	2
1917.9428	1	10	n/a	n/a	1	50	3
1919.1926	1	21	n/a	n/a	1	50	0
1920.276	1	10	n/a	n/a	1	50	1
1921.3592	1	21	n/a	n/a	1	50	0
1922.4426	1	10	n/a	n/a	1	50	1
1923.759	1	10	n/a	n/a	1	50	2
1924.909	1	10	n/a	n/a	1	50	3
1926.059	1	21	n/a	n/a	1	50	0
1927.1422	1	10	n/a	n/a	1	50	1
1928.2256	1	21	n/a	n/a	1	50	0
1929.2022	1	81	n/a	n/a	1	0	0
1929.4022	1	81	n/a	n/a	1	0	0
1929.6022	1	81	n/a	n/a	1	0	0
1929.8022	1	81	n/a	n/a	1	0	0
1930.0022	1	81	n/a	n/a	1	0	0
1930.2022	1	81	n/a	n/a	1	0	0
1930.4022	1	81	n/a	n/a	1	0	0
1930.6022	1	81	n/a	n/a	1	0	0
1930.8022	1	81	n/a	n/a	1	0	0
1931.0022	1	81	n/a	n/a	1	0	0
1932.3086	1	10	n/a	n/a	1	50	1
1933.4418	1	10	n/a	n/a	1	50	2
1934.4918	1	10	n/a	n/a	1	50	3
1935.5418	1	21	n/a	n/a	1	50	0
1936.8416	1	10	n/a	n/a	1	50	1
1938.0082	1	10	n/a	n/a	1	50	2
1939.0582	1	10	n/a	n/a	1	50	3
1940.2414	1	10	n/a	n/a	1	50	4
1941.5248	1	10	n/a	n/a	1	50	5
1942.808	1	21	n/a	n/a	1	50	0
1944.108	1	10	n/a	n/a	1	50	1
1945.4078	1	21	n/a	n/a	1	50	0
1946.4412	1	10	n/a	n/a	1	50	1
1947.541	1	10	n/a	n/a	1	50	2
1948.8244	1	10	n/a	n/a	1	50	3
1949.9576	1	10	n/a	n/a	1	50	4
1951.1408	1	10	n/a	n/a	1	50	5
1952.3908	1	10	n/a	n/a	1	50	6
1953.674	1	10	n/a	n/a	1	50	7
1954.9572	1	21	n/a	n/a	1	50	0
1981.4434	1	81	n/a	n/a	1	0	0
1981.6434	1	81	n/a	n/a	1	0	0
1981.8434	1	81	n/a	n/a	1	0	0
1982.0434	1	81	n/a	n/a	1	0	0
1982.2434	1	81	n/a	n/a	1	0	0
1982.4434	1	81	n/a	n/a	1	0	0
1982.6434	1	81	n/a	n/a	1	0	0
1982.8434	1	81	n/a	n/a	1	0	0
1983.0434	1	81	n/a	n/a	1	0	0
1983.2434	1	81	n/a	n/a	1	0	0
1984.6056	1	10	n/a	n/a	1	51	1
1985.7388	1	10	n/a	n/a	1	51	2
1987.022	1	10	n/a	n/a	1	51	3
1988.3054	1	21	n/a	n/a	1	51	0
1989.5386	1	10	n/a	n/a	1	51	1
1990.6552	1	10	n/a	n/a	1	51	2
1991.9384	1	10	n/a	n/a	1	51	3
1993.2218	1	21	n/a	n/a	1	51	0
1994.3716	1	10	n/a	n/a	1	51	1
1995.705	1	10	n/a	n/a	1	51	2
1996.9716	1	10	n/a	n/a	1	51	3
1998.0048	1	10	n/a	n/a	1	51	4
1999.0548	1	10	n/a	n/a	1	51	5
2000.1046	1	21	n/a	n/a	1	51	0
2001.3546	1	10	n/a	n/a	1	51	1
2002.6046	1	21	n/a	n/a	1	51	0
2003.7712	1	10	n/a	n/a	1	51	1
2004.9378	1	21	n/a	n/a	1	51	0
2006.0544	1	10	n/a	n/a	1	51	1
2007.2376	1	10	n/a	n/a	1	51	2
2008.2482	1	81	n/a	n/a	1	0	0
2008.4482	1	81	n/a	n/a	1	0	0
2008.6482	1	81	n/a	n/a	1	0	0
2008.8482	1	81	n/a	n/a	1	0	0
2009.0482	1	81	n/a	n/a	1	0	0
2009.2482	1	81	n/a	n/a	1	0	0
2009.4482	1	81	n/a	n/a	1	0	0
2009.6482	1	81	n/a	n/a	1	0	0
2009.8482	1	81	n/a	n/a	1	0	0
2010.0482	1	81	n/a	n/a	1	0	0
2011.4374	1	10	n/a	n/a	1	51	1
2012.654	1	10	n/a	n/a	1	51	2
2013.8038	1	10	n/a	n/a	1	51	3
2014.9204	1	10	n/a	n/a	1	51	4
2016.187	1	10	n/a	n/a	1	51	5
2017.4036	1	10	n/a	n/a	1	51	6
2018.537	1	10	n/a	n/a	1	51	7
2019.6702	1	21	n/a	n/a	1	51	0
2020.9368	1	10	n/a	n/a	1	51	1
2022.0034	1	10	n/a	n/a	1	51	2
2023.0366	1	10	n/a	n/a	1	51	3
2024.1366	1	10	n/a	n/a	1	51	4
2025.3032	1	10	n/a	n/a	1	51	5
2026.3698	1	10	n/a	n/a	1	51	6
2027.4698	1	10	n/a	n/a	1	51	7
2028.5696	1	21	n/a	n/a	1	51	0
2029.6362	1	10	n/a	n/a	1	51	1
2030.7028	1	21	n/a	n/a	1	51	0
2031.9028	1	10	n/a	n/a	1	51	1
2033.1028	1	21	n/a	n/a	1	51	0
2034.0074	1	81	n/a	n/a	1	0	0
2034.2074	1	81	n/a	n/a	1	0	0
2034.4074	1	81	n/a	n/a	1	0	0
2034.6074	1	81	n/a	n/a	1	0	0
2034.8074	1	81	n/a	n/a	1	0	0
2035.0082	1	81	n/a	n/a	1	0	0
2035.2082	1	81	n/a	n/a	1	0	0
2035.4082	1	81	n/a	n/a	1	0	0
2035.6082	1	81	n/a	n/a	1	0	0
2035.8082	1	81	n/a	n/a	1	0	0
2037.0692	1	10	n/a	n/a	1	51	1
2038.3192	1	10	n/a	n/a	1	51	2
2039.5858	1	10	n/a	n/a	1	51	3
2040.8524	1	21	n/a	n/a	1	51	0
2041.9522	1	10	n/a	n/a	1	51	1
2042.9856	1	10	n/a	n/a	1	51	2
2044.1188	1	10	n/a	n/a	1	51	3
2045.3688	1	10	n/a	n/a	1	51	4
2046.4186	1	10	n/a	n/a	1	51	5
2047.4686	1	21	n/a	n/a	1	51	0
2048.5352	1	10	n/a	n/a	1	51	1
2049.8184	1	10	n/a	n/a	1	51	2
2051.0184	1	10	n/a	n/a	1	51	3
2052.1184	1	10	n/a	n/a	1	51	4
2053.3182	1	10	n/a	n/a	1	51	5
2054.4016	1	10	n/a	n/a	1	51	6
2055.6848	1	10	n/a	n/a	1	51	7
2056.968	1	21	n/a	n/a	1	51	0
2058.068	1	10	n/a	n/a	1	51	1
2059.168	1	10	n/a	n/a	1	51	2
2060.0984	1	81	n/a	n/a	1	0	0
2060.2984	1	81	n/a	n/a	1	0	0
2060.4984	1	81	n/a	n/a	1	0	0
2060.6984	1	81	n/a	n/a	1	0	0
2060.8984	1	81	n/a	n/a	1	0	0
2061.0984	1	81	n/a	n/a	1	0	0
2061.2984	1	81	n/a	n/a	1	0	0
2061.4984	1	81	n/a	n/a	1	0	0
2061.6984	1	81	n/a	n/a	1	0	0
2061.8984	1	81	n/a	n/a	1	0	0
2063.2844	1	10	n/a	n/a	1	51	1
2064.3842	1	10	n/a	n/a	1	51	2
2065.5008	1	10	n/a	n/a	1	51	3
2066.7508	1	10	n/a	n/a	1	51	4
2067.9008	1	10	n/a	n/a	1	51	5
2069.1006	1	10	n/a	n/a	1	51	6
2070.2172	1	10	n/a	n/a	1	51	7
2071.3338	1	21	n/a	n/a	1	51	0
2072.5338	1	10	n/a	n/a	1	51	1
2073.7338	1	21	n/a	n/a	1	51	0
2075.017	1	10	n/a	n/a	1	51	1
2076.2502	1	10	n/a	n/a	1	51	2
2077.4502	1	10	n/a	n/a	1	51	3
2078.5334	1	10	n/a	n/a	1	51	4
2079.7668	1	10	n/a	n/a	1	51	5
2081	1	21	n/a	n/a	1	51	0
2082.2998	1	10	n/a	n/a	1	51	1
2083.5998	1	21	n/a	n/a	1	51	0
2084.633	1	10	n/a	n/a	1	51	1
2085.933	1	10	n/a	n/a	1	51	2
2086.9634	1	81	n/a	n/a	1	0	0
2087.1634	1	81	n/a	n/a	1	0	0
2087.3634	1	81	n/a	n/a	1	0	0
2087.5634	1	81	n/a	n/a	1	0	0
2087.7634	1	81	n/a	n/a	1	0	0
2087.9634	1	81	n/a	n/a	1	0	0
2088.1634	1	81	n/a	n/a	1	0	0
2088.3634	1	81	n/a	n/a	1	0	0
2088.5634	1	81	n/a	n/a	1	0	0
2088.7634	1	81	n/a	n/a	1	0	0
2089.9662	1	10	n/a	n/a	1	51	1
2091.1994	1	10	n/a	n/a	1	51	2
2092.2994	1	10	n/a	n/a	1	51	3
2093.3992	1	21	n/a	n/a	1	51	0
2094.6826	1	10	n/a	n/a	1	51	1
2095.9824	1	10	n/a	n/a	1	51	2
2097.1824	1	10	n/a	n/a	1	51	3
2098.3824	1	21	n/a	n/a	1	51	0
2099.6156	1	10	n/a	n/a	1	51	1
2100.8154	1	10	n/a	n/a	1	51	2
2102.0988	1	10	n/a	n/a	1	51	3
2103.3154	1	10	n/a	n/a	1	51	4
2104.3486	1	10	n/a	n/a	1	51	5
2105.3818	1	21	n/a	n/a	1	51	0
2106.5484	1	10	n/a	n/a	1	51	1
2107.6818	1	10	n/a	n/a	1	51	2
2108.915	1	10	n/a	n/a	1	51	3
2110.1482	1	21	n/a	n/a	1	51	0
2111.2648	1	10	n/a	n/a	1	51	1
2112.3814	1	21	n/a	n/a	1	51	0
