onset	duration	value	response	rt	good	TMS	seq
38.0688	1	82	n/a	n/a	1	0	0
38.4418	1	82	n/a	n/a	1	0	0
38.5858	1	82	n/a	n/a	1	0	0
38.9968	1	82	n/a	n/a	1	0	0
39.0378	1	82	n/a	n/a	1	0	0
39.0688	1	82	n/a	n/a	1	0	0
39.3018	1	82	n/a	n/a	1	0	0
39.6908	1	82	n/a	n/a	1	0	0
39.8218	1	82	n/a	n/a	1	0	0
39.9988	1	82	n/a	n/a	1	0	0
41.291	1	10	n/a	n/a	1	52	1
42.5908	1	21	n/a	n/a	1	52	0
43.6742	1	10	n/a	n/a	1	52	1
44.7908	1	10	n/a	n/a	1	52	2
46.0906	1	10	n/a	n/a	1	52	3
47.1572	1	10	n/a	n/a	1	52	4
48.3072	1	10	n/a	n/a	1	52	5
49.4572	1	21	n/a	n/a	1	52	0
50.7236	1	10	n/a	n/a	1	52	1
51.9902	1	21	n/a	n/a	1	52	0
53.2568	1	10	n/a	n/a	1	52	1
54.5568	1	10	n/a	n/a	1	52	2
55.7234	1	10	n/a	n/a	1	52	3
56.89	1	10	n/a	n/a	1	52	4
58.1566	1	10	n/a	n/a	1	52	5
59.2566	1	10	n/a	n/a	1	52	6
60.4064	1	10	n/a	n/a	1	52	7
61.5564	1	21	n/a	n/a	1	52	0
62.8064	1	10	n/a	n/a	1	52	1
63.9562	1	10	n/a	n/a	1	52	2
64.7858	1	82	n/a	n/a	1	0	0
65.0708	1	82	n/a	n/a	1	0	0
65.1788	1	82	n/a	n/a	1	0	0
65.3548	1	82	n/a	n/a	1	0	0
65.3828	1	82	n/a	n/a	1	0	0
65.7858	1	82	n/a	n/a	1	0	0
66.0138	1	82	n/a	n/a	1	0	0
66.2768	1	82	n/a	n/a	1	0	0
66.3778	1	82	n/a	n/a	1	0	0
66.6698	1	82	n/a	n/a	1	0	0
67.9894	1	10	n/a	n/a	1	52	1
69.256	1	10	n/a	n/a	1	52	2
70.2892	1	10	n/a	n/a	1	52	3
71.5558	1	10	n/a	n/a	1	52	4
72.839	1	10	n/a	n/a	1	52	5
74.0556	1	10	n/a	n/a	1	52	6
75.139	1	10	n/a	n/a	1	52	7
76.2222	1	21	n/a	n/a	1	52	0
77.4222	1	10	n/a	n/a	1	52	1
78.722	1	10	n/a	n/a	1	52	2
79.8886	1	10	n/a	n/a	1	52	3
81.2218	1	10	n/a	n/a	1	52	4
82.4718	1	10	n/a	n/a	1	52	5
83.7218	1	21	n/a	n/a	1	52	0
85.0384	1	10	n/a	n/a	1	52	1
86.355	1	10	n/a	n/a	1	52	2
87.4048	1	10	n/a	n/a	1	52	3
88.7214	1	10	n/a	n/a	1	52	4
89.8714	1	10	n/a	n/a	1	52	5
91.188	1	10	n/a	n/a	1	52	6
92.0464	1	82	n/a	n/a	1	0	0
92.1144	1	82	n/a	n/a	1	0	0
92.2654	1	82	n/a	n/a	1	0	0
92.3604	1	82	n/a	n/a	1	0	0
92.4784	1	82	n/a	n/a	1	0	0
93.0464	1	82	n/a	n/a	1	0	0
93.3954	1	82	n/a	n/a	1	0	0
93.5144	1	82	n/a	n/a	1	0	0
93.5734	1	82	n/a	n/a	1	0	0
93.7374	1	82	n/a	n/a	1	0	0
95.1044	1	10	n/a	n/a	1	52	1
96.3544	1	10	n/a	n/a	1	52	2
97.621	1	10	n/a	n/a	1	52	3
98.7876	1	10	n/a	n/a	1	52	4
100.0708	1	10	n/a	n/a	1	52	5
101.354	1	21	n/a	n/a	1	52	0
102.654	1	10	n/a	n/a	1	52	1
103.9538	1	21	n/a	n/a	1	52	0
105.1038	1	10	n/a	n/a	1	52	1
106.2704	1	21	n/a	n/a	1	52	0
107.337	1	10	n/a	n/a	1	52	1
108.4202	1	10	n/a	n/a	1	52	2
109.5868	1	10	n/a	n/a	1	52	3
110.8202	1	10	n/a	n/a	1	52	4
112.1034	1	10	n/a	n/a	1	52	5
113.1534	1	10	n/a	n/a	1	52	6
114.3532	1	10	n/a	n/a	1	52	7
115.5532	1	21	n/a	n/a	1	52	0
116.6532	1	10	n/a	n/a	1	52	1
117.903	1	10	n/a	n/a	1	52	2
118.6426	1	82	n/a	n/a	1	0	0
118.9856	1	82	n/a	n/a	1	0	0
119.1436	1	82	n/a	n/a	1	0	0
119.3376	1	82	n/a	n/a	1	0	0
119.5646	1	82	n/a	n/a	1	0	0
119.6426	1	82	n/a	n/a	1	0	0
119.9206	1	82	n/a	n/a	1	0	0
120.2636	1	82	n/a	n/a	1	0	0
120.2856	1	82	n/a	n/a	1	0	0
120.4156	1	82	n/a	n/a	1	0	0
121.6862	1	10	n/a	n/a	1	52	1
122.836	1	21	n/a	n/a	1	52	0
123.936	1	10	n/a	n/a	1	52	1
124.9694	1	10	n/a	n/a	1	52	2
126.2692	1	10	n/a	n/a	1	52	3
127.5692	1	21	n/a	n/a	1	52	0
128.6024	1	10	n/a	n/a	1	52	1
129.7024	1	10	n/a	n/a	1	52	2
130.819	1	10	n/a	n/a	1	52	3
131.9188	1	10	n/a	n/a	1	52	4
133.0854	1	10	n/a	n/a	1	52	5
134.202	1	10	n/a	n/a	1	52	6
135.402	1	10	n/a	n/a	1	52	7
136.602	1	21	n/a	n/a	1	52	0
137.9352	1	10	n/a	n/a	1	52	1
139.2684	1	21	n/a	n/a	1	52	0
140.3018	1	10	n/a	n/a	1	52	1
141.335	1	21	n/a	n/a	1	52	0
142.5016	1	10	n/a	n/a	1	52	1
143.6682	1	21	n/a	n/a	1	52	0
144.596	1	82	n/a	n/a	1	0	0
144.823	1	82	n/a	n/a	1	0	0
144.873	1	82	n/a	n/a	1	0	0
144.967	1	82	n/a	n/a	1	0	0
144.991	1	82	n/a	n/a	1	0	0
145.596	1	82	n/a	n/a	1	0	0
145.937	1	82	n/a	n/a	1	0	0
146.005	1	82	n/a	n/a	1	0	0
146.222	1	82	n/a	n/a	1	0	0
146.466	1	82	n/a	n/a	1	0	0
147.5846	1	10	n/a	n/a	1	52	1
148.8846	1	10	n/a	n/a	1	52	2
150.0678	1	10	n/a	n/a	1	52	3
151.1678	1	10	n/a	n/a	1	52	4
152.351	1	10	n/a	n/a	1	52	5
153.401	1	10	n/a	n/a	1	52	6
154.7176	1	10	n/a	n/a	1	52	7
156.0342	1	21	n/a	n/a	1	52	0
157.1174	1	10	n/a	n/a	1	52	1
158.2506	1	10	n/a	n/a	1	52	2
159.5506	1	10	n/a	n/a	1	52	3
160.8506	1	21	n/a	n/a	1	52	0
162.1504	1	10	n/a	n/a	1	52	1
163.4504	1	10	n/a	n/a	1	52	2
164.7002	1	10	n/a	n/a	1	52	3
165.9336	1	10	n/a	n/a	1	52	4
167.2502	1	10	n/a	n/a	1	52	5
168.4834	1	10	n/a	n/a	1	52	6
169.6	1	10	n/a	n/a	1	52	7
170.7166	1	21	n/a	n/a	1	52	0
180.3418	1	82	n/a	n/a	1	0	0
180.4078	1	82	n/a	n/a	1	0	0
180.5588	1	82	n/a	n/a	1	0	0
180.7888	1	82	n/a	n/a	1	0	0
181.0678	1	82	n/a	n/a	1	0	0
181.3418	1	82	n/a	n/a	1	0	0
181.4148	1	82	n/a	n/a	1	0	0
181.4488	1	82	n/a	n/a	1	0	0
181.5518	1	82	n/a	n/a	1	0	0
181.8938	1	82	n/a	n/a	1	0	0
183.3158	1	10	n/a	n/a	1	50	1
184.3992	1	21	n/a	n/a	1	50	0
185.5158	1	10	n/a	n/a	1	50	1
186.6324	1	21	n/a	n/a	1	50	0
187.6822	1	10	n/a	n/a	1	50	1
188.8488	1	10	n/a	n/a	1	50	2
190.0488	1	10	n/a	n/a	1	50	3
191.1988	1	10	n/a	n/a	1	50	4
192.3654	1	10	n/a	n/a	1	50	5
193.532	1	21	n/a	n/a	1	50	0
194.8318	1	10	n/a	n/a	1	50	1
195.8818	1	10	n/a	n/a	1	50	2
197.115	1	10	n/a	n/a	1	50	3
198.3482	1	21	n/a	n/a	1	50	0
199.6148	1	10	n/a	n/a	1	50	1
200.8814	1	21	n/a	n/a	1	50	0
201.9148	1	10	n/a	n/a	1	50	1
202.998	1	10	n/a	n/a	1	50	2
204.198	1	10	n/a	n/a	1	50	3
205.4146	1	10	n/a	n/a	1	50	4
206.2	1	82	n/a	n/a	1	0	0
206.524	1	82	n/a	n/a	1	0	0
206.691	1	82	n/a	n/a	1	0	0
206.99	1	82	n/a	n/a	1	0	0
207.013	1	82	n/a	n/a	1	0	0
207.2	1	82	n/a	n/a	1	0	0
207.428	1	82	n/a	n/a	1	0	0
207.741	1	82	n/a	n/a	1	0	0
207.91	1	82	n/a	n/a	1	0	0
208.007	1	82	n/a	n/a	1	0	0
209.3476	1	10	n/a	n/a	1	50	1
210.3976	1	10	n/a	n/a	1	50	2
211.5808	1	10	n/a	n/a	1	50	3
212.7142	1	10	n/a	n/a	1	50	4
213.9474	1	10	n/a	n/a	1	50	5
215.164	1	10	n/a	n/a	1	50	6
216.3306	1	10	n/a	n/a	1	50	7
217.4972	1	21	n/a	n/a	1	50	0
218.697	1	10	n/a	n/a	1	50	1
219.897	1	21	n/a	n/a	1	50	0
221.047	1	10	n/a	n/a	1	50	1
222.2636	1	10	n/a	n/a	1	50	2
223.3302	1	10	n/a	n/a	1	50	3
224.6468	1	10	n/a	n/a	1	50	4
225.73	1	10	n/a	n/a	1	50	5
226.9966	1	10	n/a	n/a	1	50	6
228.2466	1	10	n/a	n/a	1	50	7
229.4964	1	21	n/a	n/a	1	50	0
230.6964	1	10	n/a	n/a	1	50	1
231.8964	1	10	n/a	n/a	1	50	2
232.8748	1	82	n/a	n/a	1	0	0
232.9688	1	82	n/a	n/a	1	0	0
233.0138	1	82	n/a	n/a	1	0	0
233.2578	1	82	n/a	n/a	1	0	0
233.6178	1	82	n/a	n/a	1	0	0
233.8748	1	82	n/a	n/a	1	0	0
234.1838	1	82	n/a	n/a	1	0	0
234.4568	1	82	n/a	n/a	1	0	0
234.5278	1	82	n/a	n/a	1	0	0
234.6668	1	82	n/a	n/a	1	0	0
235.9128	1	10	n/a	n/a	1	50	1
236.996	1	10	n/a	n/a	1	50	2
238.1292	1	10	n/a	n/a	1	50	3
239.2626	1	21	n/a	n/a	1	50	0
240.4792	1	10	n/a	n/a	1	50	1
241.6958	1	21	n/a	n/a	1	50	0
242.8456	1	10	n/a	n/a	1	50	1
244.0122	1	10	n/a	n/a	1	50	2
245.2456	1	10	n/a	n/a	1	50	3
246.4788	1	10	n/a	n/a	1	50	4
247.5788	1	10	n/a	n/a	1	50	5
248.8454	1	10	n/a	n/a	1	50	6
250.112	1	10	n/a	n/a	1	50	7
251.3784	1	21	n/a	n/a	1	50	0
252.6118	1	10	n/a	n/a	1	50	1
253.795	1	10	n/a	n/a	1	50	2
254.845	1	10	n/a	n/a	1	50	3
255.8782	1	10	n/a	n/a	1	50	4
256.9116	1	10	n/a	n/a	1	50	5
258.178	1	10	n/a	n/a	1	50	6
259.0716	1	82	n/a	n/a	1	0	0
259.4896	1	82	n/a	n/a	1	0	0
259.7636	1	82	n/a	n/a	1	0	0
259.8416	1	82	n/a	n/a	1	0	0
260.0076	1	82	n/a	n/a	1	0	0
260.0716	1	82	n/a	n/a	1	0	0
260.1676	1	82	n/a	n/a	1	0	0
260.3126	1	82	n/a	n/a	1	0	0
260.5676	1	82	n/a	n/a	1	0	0
260.9816	1	82	n/a	n/a	1	0	0
262.2612	1	10	n/a	n/a	1	50	1
263.5612	1	21	n/a	n/a	1	50	0
264.7778	1	10	n/a	n/a	1	50	1
265.861	1	10	n/a	n/a	1	50	2
266.9942	1	10	n/a	n/a	1	50	3
268.1276	1	21	n/a	n/a	1	50	0
269.2608	1	10	n/a	n/a	1	50	1
270.394	1	21	n/a	n/a	1	50	0
271.7106	1	10	n/a	n/a	1	50	1
272.8606	1	10	n/a	n/a	1	50	2
273.9272	1	10	n/a	n/a	1	50	3
275.1604	1	10	n/a	n/a	1	50	4
276.2104	1	10	n/a	n/a	1	50	5
277.4102	1	10	n/a	n/a	1	50	6
278.4602	1	10	n/a	n/a	1	50	7
279.5102	1	21	n/a	n/a	1	50	0
280.6268	1	10	n/a	n/a	1	50	1
281.8266	1	10	n/a	n/a	1	50	2
282.9432	1	10	n/a	n/a	1	50	3
284.2266	1	10	n/a	n/a	1	50	4
285.094	1	82	n/a	n/a	1	0	0
285.22	1	82	n/a	n/a	1	0	0
285.39	1	82	n/a	n/a	1	0	0
285.705	1	82	n/a	n/a	1	0	0
285.962	1	82	n/a	n/a	1	0	0
286.094	1	82	n/a	n/a	1	0	0
286.467	1	82	n/a	n/a	1	0	0
286.596	1	82	n/a	n/a	1	0	0
286.797	1	82	n/a	n/a	1	0	0
286.897	1	82	n/a	n/a	1	0	0
288.043	1	10	n/a	n/a	1	50	1
289.3262	1	10	n/a	n/a	1	50	2
290.4428	1	10	n/a	n/a	1	50	3
291.6928	1	10	n/a	n/a	1	50	4
292.7928	1	10	n/a	n/a	1	50	5
294.0926	1	10	n/a	n/a	1	50	6
295.4092	1	10	n/a	n/a	1	50	7
296.7258	1	21	n/a	n/a	1	50	0
297.9758	1	10	n/a	n/a	1	50	1
299.259	1	10	n/a	n/a	1	50	2
300.3922	1	10	n/a	n/a	1	50	3
301.5588	1	10	n/a	n/a	1	50	4
302.7588	1	10	n/a	n/a	1	50	5
303.8588	1	10	n/a	n/a	1	50	6
305.1754	1	10	n/a	n/a	1	50	7
306.4918	1	21	n/a	n/a	1	50	0
307.5586	1	10	n/a	n/a	1	50	1
308.6752	1	10	n/a	n/a	1	50	2
309.7418	1	10	n/a	n/a	1	50	3
310.9584	1	10	n/a	n/a	1	50	4
336.8384	1	81	n/a	n/a	1	0	0
337.0384	1	81	n/a	n/a	1	0	0
337.2384	1	81	n/a	n/a	1	0	0
337.4384	1	81	n/a	n/a	1	0	0
337.6384	1	81	n/a	n/a	1	0	0
337.8384	1	81	n/a	n/a	1	0	0
338.0384	1	81	n/a	n/a	1	0	0
338.2384	1	81	n/a	n/a	1	0	0
338.4384	1	81	n/a	n/a	1	0	0
338.6384	1	81	n/a	n/a	1	0	0
340.0066	1	10	n/a	n/a	1	51	1
341.0566	1	10	n/a	n/a	1	51	2
342.3564	1	10	n/a	n/a	1	51	3
343.523	1	10	n/a	n/a	1	51	4
344.723	1	10	n/a	n/a	1	51	5
345.923	1	21	n/a	n/a	1	51	0
347.1562	1	10	n/a	n/a	1	51	1
348.4728	1	10	n/a	n/a	1	51	2
349.6226	1	10	n/a	n/a	1	51	3
350.6892	1	10	n/a	n/a	1	51	4
351.8558	1	10	n/a	n/a	1	51	5
353.0224	1	10	n/a	n/a	1	51	6
354.1724	1	10	n/a	n/a	1	51	7
355.3224	1	21	n/a	n/a	1	51	0
356.5722	1	10	n/a	n/a	1	51	1
357.7056	1	10	n/a	n/a	1	51	2
358.9554	1	10	n/a	n/a	1	51	3
360.2054	1	21	n/a	n/a	1	51	0
361.372	1	10	n/a	n/a	1	51	1
362.5386	1	21	n/a	n/a	1	51	0
363.3892	1	81	n/a	n/a	1	0	0
363.5892	1	81	n/a	n/a	1	0	0
363.7892	1	81	n/a	n/a	1	0	0
363.9892	1	81	n/a	n/a	1	0	0
364.1892	1	81	n/a	n/a	1	0	0
364.3892	1	81	n/a	n/a	1	0	0
364.5892	1	81	n/a	n/a	1	0	0
364.7892	1	81	n/a	n/a	1	0	0
364.9892	1	81	n/a	n/a	1	0	0
365.1892	1	81	n/a	n/a	1	0	0
366.4384	1	10	n/a	n/a	1	51	1
367.5882	1	21	n/a	n/a	1	51	0
368.8548	1	10	n/a	n/a	1	51	1
370.0882	1	10	n/a	n/a	1	51	2
371.188	1	10	n/a	n/a	1	51	3
372.288	1	10	n/a	n/a	1	51	4
373.5546	1	10	n/a	n/a	1	51	5
374.8212	1	21	n/a	n/a	1	51	0
375.8712	1	10	n/a	n/a	1	51	1
376.9544	1	10	n/a	n/a	1	51	2
378.1044	1	10	n/a	n/a	1	51	3
379.2542	1	21	n/a	n/a	1	51	0
380.3042	1	10	n/a	n/a	1	51	1
381.3542	1	21	n/a	n/a	1	51	0
382.654	1	10	n/a	n/a	1	51	1
383.904	1	10	n/a	n/a	1	51	2
385.0706	1	10	n/a	n/a	1	51	3
386.3372	1	10	n/a	n/a	1	51	4
387.4038	1	10	n/a	n/a	1	51	5
388.4704	1	21	n/a	n/a	1	51	0
389.3488	1	81	n/a	n/a	1	0	0
389.5488	1	81	n/a	n/a	1	0	0
389.7488	1	81	n/a	n/a	1	0	0
389.9488	1	81	n/a	n/a	1	0	0
390.1488	1	81	n/a	n/a	1	0	0
390.3488	1	81	n/a	n/a	1	0	0
390.5488	1	81	n/a	n/a	1	0	0
390.7488	1	81	n/a	n/a	1	0	0
390.9488	1	81	n/a	n/a	1	0	0
391.1488	1	81	n/a	n/a	1	0	0
392.3534	1	10	n/a	n/a	1	51	1
393.3868	1	10	n/a	n/a	1	51	2
394.52	1	10	n/a	n/a	1	51	3
395.57	1	10	n/a	n/a	1	51	4
396.6366	1	10	n/a	n/a	1	51	5
397.8364	1	10	n/a	n/a	1	51	6
398.8864	1	10	n/a	n/a	1	51	7
399.9364	1	21	n/a	n/a	1	51	0
401.0364	1	10	n/a	n/a	1	51	1
402.1696	1	10	n/a	n/a	1	51	2
403.4694	1	10	n/a	n/a	1	51	3
404.7028	1	10	n/a	n/a	1	51	4
405.836	1	10	n/a	n/a	1	51	5
407.1526	1	10	n/a	n/a	1	51	6
408.4026	1	10	n/a	n/a	1	51	7
409.6524	1	21	n/a	n/a	1	51	0
410.7358	1	10	n/a	n/a	1	51	1
411.819	1	21	n/a	n/a	1	51	0
412.969	1	10	n/a	n/a	1	51	1
414.1188	1	21	n/a	n/a	1	51	0
414.9376	1	81	n/a	n/a	1	0	0
415.1376	1	81	n/a	n/a	1	0	0
415.3376	1	81	n/a	n/a	1	0	0
415.5376	1	81	n/a	n/a	1	0	0
415.7376	1	81	n/a	n/a	1	0	0
415.9376	1	81	n/a	n/a	1	0	0
416.1376	1	81	n/a	n/a	1	0	0
416.3376	1	81	n/a	n/a	1	0	0
416.5376	1	81	n/a	n/a	1	0	0
416.7376	1	81	n/a	n/a	1	0	0
417.9854	1	10	n/a	n/a	1	51	1
419.1352	1	21	n/a	n/a	1	51	0
420.2018	1	10	n/a	n/a	1	51	1
421.2684	1	21	n/a	n/a	1	51	0
422.585	1	10	n/a	n/a	1	51	1
423.9016	1	10	n/a	n/a	1	51	2
425.0016	1	10	n/a	n/a	1	51	3
426.2348	1	10	n/a	n/a	1	51	4
427.4348	1	10	n/a	n/a	1	51	5
428.6346	1	21	n/a	n/a	1	51	0
429.7512	1	10	n/a	n/a	1	51	1
430.8678	1	21	n/a	n/a	1	51	0
431.9844	1	10	n/a	n/a	1	51	1
433.101	1	21	n/a	n/a	1	51	0
434.3844	1	10	n/a	n/a	1	51	1
435.451	1	10	n/a	n/a	1	51	2
436.7008	1	10	n/a	n/a	1	51	3
437.7842	1	10	n/a	n/a	1	51	4
439.0674	1	10	n/a	n/a	1	51	5
440.3506	1	21	n/a	n/a	1	51	0
441.1252	1	81	n/a	n/a	1	0	0
441.3252	1	81	n/a	n/a	1	0	0
441.5252	1	81	n/a	n/a	1	0	0
441.7252	1	81	n/a	n/a	1	0	0
441.9252	1	81	n/a	n/a	1	0	0
442.1254	1	81	n/a	n/a	1	0	0
442.3254	1	81	n/a	n/a	1	0	0
442.5254	1	81	n/a	n/a	1	0	0
442.7254	1	81	n/a	n/a	1	0	0
442.9254	1	81	n/a	n/a	1	0	0
444.3338	1	10	n/a	n/a	1	51	1
445.4004	1	10	n/a	n/a	1	51	2
446.6502	1	10	n/a	n/a	1	51	3
447.7168	1	10	n/a	n/a	1	51	4
448.9834	1	10	n/a	n/a	1	51	5
450.3	1	10	n/a	n/a	1	51	6
451.5834	1	10	n/a	n/a	1	51	7
452.8666	1	21	n/a	n/a	1	51	0
454.0998	1	10	n/a	n/a	1	51	1
455.333	1	21	n/a	n/a	1	51	0
456.6164	1	10	n/a	n/a	1	51	1
457.7996	1	10	n/a	n/a	1	51	2
459.0496	1	10	n/a	n/a	1	51	3
460.0828	1	10	n/a	n/a	1	51	4
461.2828	1	10	n/a	n/a	1	51	5
462.316	1	10	n/a	n/a	1	51	6
463.5492	1	10	n/a	n/a	1	51	7
464.7826	1	21	n/a	n/a	1	51	0
466.0992	1	10	n/a	n/a	1	51	1
467.2324	1	10	n/a	n/a	1	51	2
718.4522	1	82	n/a	n/a	1	0	0
718.5142	1	82	n/a	n/a	1	0	0
718.6902	1	82	n/a	n/a	1	0	0
718.9392	1	82	n/a	n/a	1	0	0
719.1602	1	82	n/a	n/a	1	0	0
719.4522	1	82	n/a	n/a	1	0	0
719.5672	1	82	n/a	n/a	1	0	0
719.8552	1	82	n/a	n/a	1	0	0
720.0242	1	82	n/a	n/a	1	0	0
720.2672	1	82	n/a	n/a	1	0	0
721.4174	1	10	n/a	n/a	1	52	1
722.7006	1	10	n/a	n/a	1	52	2
723.8838	1	10	n/a	n/a	1	52	3
724.9672	1	10	n/a	n/a	1	52	4
726.217	1	10	n/a	n/a	1	52	5
727.317	1	10	n/a	n/a	1	52	6
728.4002	1	10	n/a	n/a	1	52	7
729.4836	1	21	n/a	n/a	1	52	0
730.6334	1	10	n/a	n/a	1	52	1
731.7	1	10	n/a	n/a	1	52	2
732.7666	1	10	n/a	n/a	1	52	3
733.95	1	10	n/a	n/a	1	52	4
735.0666	1	10	n/a	n/a	1	52	5
736.0998	1	10	n/a	n/a	1	52	6
737.333	1	10	n/a	n/a	1	52	7
738.5664	1	21	n/a	n/a	1	52	0
739.8662	1	10	n/a	n/a	1	52	1
741.1662	1	21	n/a	n/a	1	52	0
742.3328	1	10	n/a	n/a	1	52	1
743.3828	1	10	n/a	n/a	1	52	2
744.2652	1	82	n/a	n/a	1	0	0
744.4032	1	82	n/a	n/a	1	0	0
744.6942	1	82	n/a	n/a	1	0	0
744.7692	1	82	n/a	n/a	1	0	0
745.0242	1	82	n/a	n/a	1	0	0
745.2652	1	82	n/a	n/a	1	0	0
745.4392	1	82	n/a	n/a	1	0	0
745.5222	1	82	n/a	n/a	1	0	0
745.6572	1	82	n/a	n/a	1	0	0
745.8862	1	82	n/a	n/a	1	0	0
747.4492	1	10	n/a	n/a	1	52	1
748.599	1	10	n/a	n/a	1	52	2
749.799	1	10	n/a	n/a	1	52	3
750.899	1	10	n/a	n/a	1	52	4
752.1656	1	10	n/a	n/a	1	52	5
753.4322	1	21	n/a	n/a	1	52	0
754.5654	1	10	n/a	n/a	1	52	1
755.7486	1	10	n/a	n/a	1	52	2
756.9486	1	10	n/a	n/a	1	52	3
758.0986	1	10	n/a	n/a	1	52	4
759.1818	1	10	n/a	n/a	1	52	5
760.4318	1	10	n/a	n/a	1	52	6
761.6316	1	10	n/a	n/a	1	52	7
762.8316	1	21	n/a	n/a	1	52	0
764.0148	1	10	n/a	n/a	1	52	1
765.3314	1	10	n/a	n/a	1	52	2
766.5646	1	10	n/a	n/a	1	52	3
767.798	1	21	n/a	n/a	1	52	0
769.0812	1	10	n/a	n/a	1	52	1
770.3978	1	10	n/a	n/a	1	52	2
771.3594	1	82	n/a	n/a	1	0	0
771.7164	1	82	n/a	n/a	1	0	0
771.8864	1	82	n/a	n/a	1	0	0
772.2684	1	82	n/a	n/a	1	0	0
772.2954	1	82	n/a	n/a	1	0	0
772.3594	1	82	n/a	n/a	1	0	0
772.5824	1	82	n/a	n/a	1	0	0
772.9504	1	82	n/a	n/a	1	0	0
773.2204	1	82	n/a	n/a	1	0	0
773.2774	1	82	n/a	n/a	1	0	0
774.4976	1	10	n/a	n/a	1	52	1
775.7474	1	21	n/a	n/a	1	52	0
776.8974	1	10	n/a	n/a	1	52	1
778.0806	1	10	n/a	n/a	1	52	2
779.2972	1	10	n/a	n/a	1	52	3
780.4638	1	10	n/a	n/a	1	52	4
781.7472	1	10	n/a	n/a	1	52	5
783.0304	1	21	n/a	n/a	1	52	0
784.1636	1	10	n/a	n/a	1	52	1
785.3136	1	21	n/a	n/a	1	52	0
786.3968	1	10	n/a	n/a	1	52	1
787.6634	1	10	n/a	n/a	1	52	2
788.9966	1	10	n/a	n/a	1	52	3
790.2466	1	10	n/a	n/a	1	52	4
791.3298	1	10	n/a	n/a	1	52	5
792.4132	1	21	n/a	n/a	1	52	0
793.6798	1	10	n/a	n/a	1	52	1
794.9464	1	10	n/a	n/a	1	52	2
796.0462	1	10	n/a	n/a	1	52	3
797.2128	1	10	n/a	n/a	1	52	4
798.1412	1	82	n/a	n/a	1	0	0
798.2472	1	82	n/a	n/a	1	0	0
798.6652	1	82	n/a	n/a	1	0	0
798.9432	1	82	n/a	n/a	1	0	0
798.9862	1	82	n/a	n/a	1	0	0
799.1412	1	82	n/a	n/a	1	0	0
799.3202	1	82	n/a	n/a	1	0	0
799.5992	1	82	n/a	n/a	1	0	0
799.7552	1	82	n/a	n/a	1	0	0
799.7852	1	82	n/a	n/a	1	0	0
801.2126	1	10	n/a	n/a	1	52	1
802.5292	1	10	n/a	n/a	1	52	2
803.7292	1	10	n/a	n/a	1	52	3
804.929	1	10	n/a	n/a	1	52	4
806.2456	1	10	n/a	n/a	1	52	5
807.4456	1	10	n/a	n/a	1	52	6
808.5956	1	10	n/a	n/a	1	52	7
809.7454	1	21	n/a	n/a	1	52	0
810.962	1	10	n/a	n/a	1	52	1
812.2286	1	10	n/a	n/a	1	52	2
813.4952	1	10	n/a	n/a	1	52	3
814.6286	1	10	n/a	n/a	1	52	4
815.6952	1	10	n/a	n/a	1	52	5
816.7618	1	21	n/a	n/a	1	52	0
817.895	1	10	n/a	n/a	1	52	1
818.995	1	10	n/a	n/a	1	52	2
820.2114	1	10	n/a	n/a	1	52	3
821.3948	1	10	n/a	n/a	1	52	4
822.4946	1	10	n/a	n/a	1	52	5
823.678	1	10	n/a	n/a	1	52	6
824.7594	1	82	n/a	n/a	1	0	0
824.9984	1	82	n/a	n/a	1	0	0
825.1044	1	82	n/a	n/a	1	0	0
825.3064	1	82	n/a	n/a	1	0	0
825.3654	1	82	n/a	n/a	1	0	0
825.7594	1	82	n/a	n/a	1	0	0
825.8324	1	82	n/a	n/a	1	0	0
826.2204	1	82	n/a	n/a	1	0	0
826.5444	1	82	n/a	n/a	1	0	0
826.7214	1	82	n/a	n/a	1	0	0
827.7778	1	10	n/a	n/a	1	52	1
828.911	1	10	n/a	n/a	1	52	2
830.0942	1	10	n/a	n/a	1	52	3
831.2776	1	21	n/a	n/a	1	52	0
832.4774	1	10	n/a	n/a	1	52	1
833.7608	1	10	n/a	n/a	1	52	2
834.844	1	10	n/a	n/a	1	52	3
835.9272	1	10	n/a	n/a	1	52	4
836.9772	1	10	n/a	n/a	1	52	5
838.0272	1	21	n/a	n/a	1	52	0
839.3104	1	10	n/a	n/a	1	52	1
840.4936	1	10	n/a	n/a	1	52	2
841.7268	1	10	n/a	n/a	1	52	3
842.9268	1	10	n/a	n/a	1	52	4
843.9602	1	10	n/a	n/a	1	52	5
845.06	1	10	n/a	n/a	1	52	6
846.16	1	10	n/a	n/a	1	52	7
847.2598	1	21	n/a	n/a	1	52	0
848.4266	1	10	n/a	n/a	1	52	1
849.593	1	21	n/a	n/a	1	52	0
861.726	1	81	n/a	n/a	1	0	0
861.926	1	81	n/a	n/a	1	0	0
862.126	1	81	n/a	n/a	1	0	0
862.326	1	81	n/a	n/a	1	0	0
862.526	1	81	n/a	n/a	1	0	0
862.726	1	81	n/a	n/a	1	0	0
862.926	1	81	n/a	n/a	1	0	0
863.126	1	81	n/a	n/a	1	0	0
863.326	1	81	n/a	n/a	1	0	0
863.526	1	81	n/a	n/a	1	0	0
864.7922	1	10	n/a	n/a	1	50	1
865.8754	1	10	n/a	n/a	1	50	2
867.1088	1	10	n/a	n/a	1	50	3
868.342	1	21	n/a	n/a	1	50	0
869.592	1	10	n/a	n/a	1	50	1
870.9086	1	10	n/a	n/a	1	50	2
872.0084	1	10	n/a	n/a	1	50	3
873.1084	1	21	n/a	n/a	1	50	0
874.1916	1	10	n/a	n/a	1	50	1
875.2916	1	10	n/a	n/a	1	50	2
876.3582	1	10	n/a	n/a	1	50	3
877.4248	1	21	n/a	n/a	1	50	0
878.558	1	10	n/a	n/a	1	50	1
879.8746	1	10	n/a	n/a	1	50	2
880.9746	1	10	n/a	n/a	1	50	3
882.2578	1	10	n/a	n/a	1	50	4
883.4744	1	10	n/a	n/a	1	50	5
884.691	1	21	n/a	n/a	1	50	0
886.0242	1	10	n/a	n/a	1	50	1
887.3076	1	10	n/a	n/a	1	50	2
888.417	1	81	n/a	n/a	1	0	0
888.617	1	81	n/a	n/a	1	0	0
888.817	1	81	n/a	n/a	1	0	0
889.017	1	81	n/a	n/a	1	0	0
889.217	1	81	n/a	n/a	1	0	0
889.417	1	81	n/a	n/a	1	0	0
889.617	1	81	n/a	n/a	1	0	0
889.817	1	81	n/a	n/a	1	0	0
890.017	1	81	n/a	n/a	1	0	0
890.217	1	81	n/a	n/a	1	0	0
891.5572	1	10	n/a	n/a	1	50	1
892.7738	1	10	n/a	n/a	1	50	2
893.9904	1	10	n/a	n/a	1	50	3
895.207	1	21	n/a	n/a	1	50	0
896.3736	1	10	n/a	n/a	1	50	1
897.4902	1	10	n/a	n/a	1	50	2
898.7068	1	10	n/a	n/a	1	50	3
899.9234	1	21	n/a	n/a	1	50	0
901.1568	1	10	n/a	n/a	1	50	1
902.19	1	10	n/a	n/a	1	50	2
903.34	1	10	n/a	n/a	1	50	3
904.4566	1	10	n/a	n/a	1	50	4
905.7398	1	10	n/a	n/a	1	50	5
906.8064	1	10	n/a	n/a	1	50	6
907.8896	1	10	n/a	n/a	1	50	7
908.973	1	21	n/a	n/a	1	50	0
910.2228	1	10	n/a	n/a	1	50	1
911.5062	1	10	n/a	n/a	1	50	2
912.6394	1	10	n/a	n/a	1	50	3
913.8226	1	10	n/a	n/a	1	50	4
914.931	1	81	n/a	n/a	1	0	0
915.131	1	81	n/a	n/a	1	0	0
915.331	1	81	n/a	n/a	1	0	0
915.531	1	81	n/a	n/a	1	0	0
915.731	1	81	n/a	n/a	1	0	0
915.931	1	81	n/a	n/a	1	0	0
916.131	1	81	n/a	n/a	1	0	0
916.331	1	81	n/a	n/a	1	0	0
916.531	1	81	n/a	n/a	1	0	0
916.731	1	81	n/a	n/a	1	0	0
917.8558	1	10	n/a	n/a	1	50	1
918.9056	1	21	n/a	n/a	1	50	0
919.9556	1	10	n/a	n/a	1	50	1
921.2222	1	10	n/a	n/a	1	50	2
922.3888	1	10	n/a	n/a	1	50	3
923.5554	1	21	n/a	n/a	1	50	0
924.6886	1	10	n/a	n/a	1	50	1
925.7552	1	10	n/a	n/a	1	50	2
927.0386	1	10	n/a	n/a	1	50	3
928.2718	1	10	n/a	n/a	1	50	4
929.4218	1	10	n/a	n/a	1	50	5
930.5716	1	21	n/a	n/a	1	50	0
931.655	1	10	n/a	n/a	1	50	1
932.7382	1	10	n/a	n/a	1	50	2
933.9214	1	10	n/a	n/a	1	50	3
935.1048	1	21	n/a	n/a	1	50	0
936.338	1	10	n/a	n/a	1	50	1
937.4046	1	10	n/a	n/a	1	50	2
938.5212	1	10	n/a	n/a	1	50	3
939.7044	1	10	n/a	n/a	1	50	4
940.7528	1	81	n/a	n/a	1	0	0
940.9528	1	81	n/a	n/a	1	0	0
941.1528	1	81	n/a	n/a	1	0	0
941.3528	1	81	n/a	n/a	1	0	0
941.5528	1	81	n/a	n/a	1	0	0
941.7528	1	81	n/a	n/a	1	0	0
941.9528	1	81	n/a	n/a	1	0	0
942.1528	1	81	n/a	n/a	1	0	0
942.3528	1	81	n/a	n/a	1	0	0
942.5528	1	81	n/a	n/a	1	0	0
943.8376	1	10	n/a	n/a	1	50	1
945.1542	1	10	n/a	n/a	1	50	2
946.4706	1	10	n/a	n/a	1	50	3
947.5206	1	10	n/a	n/a	1	50	4
948.7872	1	10	n/a	n/a	1	50	5
950.0538	1	21	n/a	n/a	1	50	0
951.187	1	10	n/a	n/a	1	50	1
952.387	1	10	n/a	n/a	1	50	2
953.437	1	10	n/a	n/a	1	50	3
954.4868	1	21	n/a	n/a	1	50	0
955.8034	1	10	n/a	n/a	1	50	1
957.0534	1	10	n/a	n/a	1	50	2
958.12	1	10	n/a	n/a	1	50	3
959.37	1	10	n/a	n/a	1	50	4
960.5866	1	10	n/a	n/a	1	50	5
961.9032	1	10	n/a	n/a	1	50	6
963.203	1	10	n/a	n/a	1	50	7
964.503	1	21	n/a	n/a	1	50	0
965.7362	1	10	n/a	n/a	1	50	1
966.9694	1	21	n/a	n/a	1	50	0
968.0072	1	81	n/a	n/a	1	0	0
968.2072	1	81	n/a	n/a	1	0	0
968.4072	1	81	n/a	n/a	1	0	0
968.6072	1	81	n/a	n/a	1	0	0
968.8072	1	81	n/a	n/a	1	0	0
969.008	1	81	n/a	n/a	1	0	0
969.2078	1	81	n/a	n/a	1	0	0
969.4078	1	81	n/a	n/a	1	0	0
969.6078	1	81	n/a	n/a	1	0	0
969.8078	1	81	n/a	n/a	1	0	0
971.0692	1	10	n/a	n/a	1	50	1
972.2358	1	21	n/a	n/a	1	50	0
973.5524	1	10	n/a	n/a	1	50	1
974.719	1	10	n/a	n/a	1	50	2
975.7522	1	10	n/a	n/a	1	50	3
976.7856	1	21	n/a	n/a	1	50	0
978.0354	1	10	n/a	n/a	1	50	1
979.2854	1	21	n/a	n/a	1	50	0
980.4686	1	10	n/a	n/a	1	50	1
981.5686	1	10	n/a	n/a	1	50	2
982.6018	1	10	n/a	n/a	1	50	3
983.6352	1	21	n/a	n/a	1	50	0
984.7352	1	10	n/a	n/a	1	50	1
985.8518	1	10	n/a	n/a	1	50	2
987.0016	1	10	n/a	n/a	1	50	3
988.2848	1	10	n/a	n/a	1	50	4
989.5182	1	10	n/a	n/a	1	50	5
990.7514	1	21	n/a	n/a	1	50	0
991.7846	1	10	n/a	n/a	1	50	1
992.818	1	21	n/a	n/a	1	50	0
1012.1746	1	81	n/a	n/a	1	0	0
1012.3746	1	81	n/a	n/a	1	0	0
1012.5746	1	81	n/a	n/a	1	0	0
1012.7746	1	81	n/a	n/a	1	0	0
1012.9746	1	81	n/a	n/a	1	0	0
1013.1746	1	81	n/a	n/a	1	0	0
1013.3746	1	81	n/a	n/a	1	0	0
1013.5746	1	81	n/a	n/a	1	0	0
1013.7746	1	81	n/a	n/a	1	0	0
1013.9746	1	81	n/a	n/a	1	0	0
1015.35	1	10	n/a	n/a	1	51	1
1016.5666	1	10	n/a	n/a	1	51	2
1017.6164	1	10	n/a	n/a	1	51	3
1018.6664	1	21	n/a	n/a	1	51	0
1019.983	1	10	n/a	n/a	1	51	1
1021.083	1	10	n/a	n/a	1	51	2
1022.1662	1	10	n/a	n/a	1	51	3
1023.2494	1	21	n/a	n/a	1	51	0
1024.466	1	10	n/a	n/a	1	51	1
1025.6826	1	21	n/a	n/a	1	51	0
1026.8992	1	10	n/a	n/a	1	51	1
1028.1326	1	10	n/a	n/a	1	51	2
1029.2992	1	10	n/a	n/a	1	51	3
1030.5158	1	10	n/a	n/a	1	51	4
1031.8156	1	10	n/a	n/a	1	51	5
1032.949	1	10	n/a	n/a	1	51	6
1034.2488	1	10	n/a	n/a	1	51	7
1035.5488	1	21	n/a	n/a	1	51	0
1036.682	1	10	n/a	n/a	1	51	1
1037.9652	1	10	n/a	n/a	1	51	2
1038.9388	1	81	n/a	n/a	1	0	0
1039.1388	1	81	n/a	n/a	1	0	0
1039.3388	1	81	n/a	n/a	1	0	0
1039.5388	1	81	n/a	n/a	1	0	0
1039.7388	1	81	n/a	n/a	1	0	0
1039.9388	1	81	n/a	n/a	1	0	0
1040.1388	1	81	n/a	n/a	1	0	0
1040.3388	1	81	n/a	n/a	1	0	0
1040.5388	1	81	n/a	n/a	1	0	0
1040.7388	1	81	n/a	n/a	1	0	0
1042.0984	1	10	n/a	n/a	1	51	1
1043.265	1	10	n/a	n/a	1	51	2
1044.5816	1	10	n/a	n/a	1	51	3
1045.7982	1	10	n/a	n/a	1	51	4
1046.9814	1	10	n/a	n/a	1	51	5
1048.2646	1	10	n/a	n/a	1	51	6
1049.498	1	10	n/a	n/a	1	51	7
1050.7312	1	21	n/a	n/a	1	51	0
1052.0478	1	10	n/a	n/a	1	51	1
1053.3144	1	10	n/a	n/a	1	51	2
1054.431	1	10	n/a	n/a	1	51	3
1055.5476	1	21	n/a	n/a	1	51	0
1056.7808	1	10	n/a	n/a	1	51	1
1058.064	1	10	n/a	n/a	1	51	2
1059.3474	1	10	n/a	n/a	1	51	3
1060.6306	1	21	n/a	n/a	1	51	0
1061.9472	1	10	n/a	n/a	1	51	1
1063.2638	1	21	n/a	n/a	1	51	0
1064.5638	1	10	n/a	n/a	1	51	1
1065.697	1	10	n/a	n/a	1	51	2
1066.7306	1	81	n/a	n/a	1	0	0
1066.9306	1	81	n/a	n/a	1	0	0
1067.1306	1	81	n/a	n/a	1	0	0
1067.3306	1	81	n/a	n/a	1	0	0
1067.5306	1	81	n/a	n/a	1	0	0
1067.7306	1	81	n/a	n/a	1	0	0
1067.9306	1	81	n/a	n/a	1	0	0
1068.1306	1	81	n/a	n/a	1	0	0
1068.3306	1	81	n/a	n/a	1	0	0
1068.5306	1	81	n/a	n/a	1	0	0
1069.9468	1	10	n/a	n/a	1	51	1
1071.23	1	10	n/a	n/a	1	51	2
1072.3966	1	10	n/a	n/a	1	51	3
1073.5966	1	10	n/a	n/a	1	51	4
1074.7964	1	10	n/a	n/a	1	51	5
1075.9964	1	21	n/a	n/a	1	51	0
1077.263	1	10	n/a	n/a	1	51	1
1078.5296	1	21	n/a	n/a	1	51	0
1079.5794	1	10	n/a	n/a	1	51	1
1080.6294	1	21	n/a	n/a	1	51	0
1081.6628	1	10	n/a	n/a	1	51	1
1082.7626	1	10	n/a	n/a	1	51	2
1083.9126	1	10	n/a	n/a	1	51	3
1085.0958	1	10	n/a	n/a	1	51	4
1086.1958	1	10	n/a	n/a	1	51	5
1087.3624	1	10	n/a	n/a	1	51	6
1088.629	1	10	n/a	n/a	1	51	7
1089.8956	1	21	n/a	n/a	1	51	0
1090.9788	1	10	n/a	n/a	1	51	1
1092.062	1	21	n/a	n/a	1	51	0
1093.0888	1	81	n/a	n/a	1	0	0
1093.2888	1	81	n/a	n/a	1	0	0
1093.4888	1	81	n/a	n/a	1	0	0
1093.6888	1	81	n/a	n/a	1	0	0
1093.8888	1	81	n/a	n/a	1	0	0
1094.0888	1	81	n/a	n/a	1	0	0
1094.2888	1	81	n/a	n/a	1	0	0
1094.4888	1	81	n/a	n/a	1	0	0
1094.6888	1	81	n/a	n/a	1	0	0
1094.8888	1	81	n/a	n/a	1	0	0
1096.1952	1	10	n/a	n/a	1	51	1
1097.3118	1	10	n/a	n/a	1	51	2
1098.5618	1	10	n/a	n/a	1	51	3
1099.845	1	10	n/a	n/a	1	51	4
1101.0116	1	10	n/a	n/a	1	51	5
1102.1614	1	10	n/a	n/a	1	51	6
1103.2448	1	10	n/a	n/a	1	51	7
1104.328	1	21	n/a	n/a	1	51	0
1105.378	1	10	n/a	n/a	1	51	1
1106.6778	1	10	n/a	n/a	1	51	2
1107.9612	1	10	n/a	n/a	1	51	3
1109.161	1	10	n/a	n/a	1	51	4
1110.2276	1	10	n/a	n/a	1	51	5
1111.2942	1	21	n/a	n/a	1	51	0
1112.5276	1	10	n/a	n/a	1	51	1
1113.8274	1	10	n/a	n/a	1	51	2
1115.0608	1	10	n/a	n/a	1	51	3
1116.3274	1	10	n/a	n/a	1	51	4
1117.5606	1	10	n/a	n/a	1	51	5
1118.7938	1	21	n/a	n/a	1	51	0
1119.7684	1	81	n/a	n/a	1	0	0
1119.9684	1	81	n/a	n/a	1	0	0
1120.1684	1	81	n/a	n/a	1	0	0
1120.3684	1	81	n/a	n/a	1	0	0
1120.5684	1	81	n/a	n/a	1	0	0
1120.7686	1	81	n/a	n/a	1	0	0
1120.9686	1	81	n/a	n/a	1	0	0
1121.1686	1	81	n/a	n/a	1	0	0
1121.3686	1	81	n/a	n/a	1	0	0
1121.5686	1	81	n/a	n/a	1	0	0
1122.8102	1	10	n/a	n/a	1	51	1
1123.9268	1	10	n/a	n/a	1	51	2
1125.2434	1	10	n/a	n/a	1	51	3
1126.3768	1	10	n/a	n/a	1	51	4
1127.41	1	10	n/a	n/a	1	51	5
1128.7266	1	10	n/a	n/a	1	51	6
1129.8266	1	10	n/a	n/a	1	51	7
1130.9264	1	21	n/a	n/a	1	51	0
1132.1264	1	10	n/a	n/a	1	51	1
1133.3264	1	21	n/a	n/a	1	51	0
1134.643	1	10	n/a	n/a	1	51	1
1135.8094	1	10	n/a	n/a	1	51	2
1137.076	1	10	n/a	n/a	1	51	3
1138.2594	1	10	n/a	n/a	1	51	4
1139.3426	1	10	n/a	n/a	1	51	5
1140.4258	1	10	n/a	n/a	1	51	6
1141.4758	1	10	n/a	n/a	1	51	7
1142.5258	1	21	n/a	n/a	1	51	0
1143.7424	1	10	n/a	n/a	1	51	1
1144.7922	1	10	n/a	n/a	1	51	2
1260.6122	1	82	n/a	n/a	1	0	0
1260.9852	1	82	n/a	n/a	1	0	0
1261.2202	1	82	n/a	n/a	1	0	0
1261.2572	1	82	n/a	n/a	1	0	0
1261.5652	1	82	n/a	n/a	1	0	0
1261.6122	1	82	n/a	n/a	1	0	0
1262.0072	1	82	n/a	n/a	1	0	0
1262.1012	1	82	n/a	n/a	1	0	0
1262.3132	1	82	n/a	n/a	1	0	0
1262.3392	1	82	n/a	n/a	1	0	0
1263.7352	1	10	n/a	n/a	1	52	1
1264.8186	1	10	n/a	n/a	1	52	2
1265.8852	1	10	n/a	n/a	1	52	3
1266.9518	1	21	n/a	n/a	1	52	0
1268.2184	1	10	n/a	n/a	1	52	1
1269.2682	1	10	n/a	n/a	1	52	2
1270.4848	1	10	n/a	n/a	1	52	3
1271.7182	1	10	n/a	n/a	1	52	4
1272.868	1	10	n/a	n/a	1	52	5
1274.018	1	21	n/a	n/a	1	52	0
1275.2512	1	10	n/a	n/a	1	52	1
1276.4012	1	10	n/a	n/a	1	52	2
1277.6012	1	10	n/a	n/a	1	52	3
1278.9176	1	10	n/a	n/a	1	52	4
1280.101	1	10	n/a	n/a	1	52	5
1281.2842	1	21	n/a	n/a	1	52	0
1282.4342	1	10	n/a	n/a	1	52	1
1283.584	1	21	n/a	n/a	1	52	0
1284.7174	1	10	n/a	n/a	1	52	1
1285.7672	1	10	n/a	n/a	1	52	2
1286.7938	1	82	n/a	n/a	1	0	0
1286.8188	1	82	n/a	n/a	1	0	0
1286.8658	1	82	n/a	n/a	1	0	0
1287.1158	1	82	n/a	n/a	1	0	0
1287.2808	1	82	n/a	n/a	1	0	0
1287.7938	1	82	n/a	n/a	1	0	0
1287.9458	1	82	n/a	n/a	1	0	0
1288.3428	1	82	n/a	n/a	1	0	0
1288.4578	1	82	n/a	n/a	1	0	0
1288.5328	1	82	n/a	n/a	1	0	0
1289.767	1	10	n/a	n/a	1	52	1
1291.0836	1	10	n/a	n/a	1	52	2
1292.217	1	10	n/a	n/a	1	52	3
1293.3502	1	21	n/a	n/a	1	52	0
1294.6334	1	10	n/a	n/a	1	52	1
1295.7	1	10	n/a	n/a	1	52	2
1296.7666	1	10	n/a	n/a	1	52	3
1297.8332	1	21	n/a	n/a	1	52	0
1299.0998	1	10	n/a	n/a	1	52	1
1300.1998	1	10	n/a	n/a	1	52	2
1301.483	1	10	n/a	n/a	1	52	3
1302.7662	1	10	n/a	n/a	1	52	4
1304.0828	1	10	n/a	n/a	1	52	5
1305.3994	1	21	n/a	n/a	1	52	0
1306.5494	1	10	n/a	n/a	1	52	1
1307.616	1	10	n/a	n/a	1	52	2
1308.866	1	10	n/a	n/a	1	52	3
1310.1158	1	10	n/a	n/a	1	52	4
1311.2992	1	10	n/a	n/a	1	52	5
1312.4158	1	10	n/a	n/a	1	52	6
1313.2102	1	82	n/a	n/a	1	0	0
1313.2342	1	82	n/a	n/a	1	0	0
1313.3802	1	82	n/a	n/a	1	0	0
1313.4862	1	82	n/a	n/a	1	0	0
1313.6642	1	82	n/a	n/a	1	0	0
1314.2102	1	82	n/a	n/a	1	0	0
1314.5402	1	82	n/a	n/a	1	0	0
1314.5882	1	82	n/a	n/a	1	0	0
1314.8322	1	82	n/a	n/a	1	0	0
1314.9332	1	82	n/a	n/a	1	0	0
1316.3988	1	10	n/a	n/a	1	52	1
1317.6488	1	10	n/a	n/a	1	52	2
1318.7654	1	10	n/a	n/a	1	52	3
1319.9152	1	10	n/a	n/a	1	52	4
1320.9986	1	10	n/a	n/a	1	52	5
1322.0652	1	10	n/a	n/a	1	52	6
1323.265	1	10	n/a	n/a	1	52	7
1324.465	1	21	n/a	n/a	1	52	0
1325.4982	1	10	n/a	n/a	1	52	1
1326.7148	1	10	n/a	n/a	1	52	2
1327.7814	1	10	n/a	n/a	1	52	3
1328.9148	1	10	n/a	n/a	1	52	4
1329.9814	1	10	n/a	n/a	1	52	5
1331.048	1	21	n/a	n/a	1	52	0
1332.1478	1	10	n/a	n/a	1	52	1
1333.2478	1	21	n/a	n/a	1	52	0
1334.481	1	10	n/a	n/a	1	52	1
1335.7144	1	21	n/a	n/a	1	52	0
1336.831	1	10	n/a	n/a	1	52	1
1338.1142	1	10	n/a	n/a	1	52	2
1339.0836	1	82	n/a	n/a	1	0	0
1339.3996	1	82	n/a	n/a	1	0	0
1339.5216	1	82	n/a	n/a	1	0	0
1339.5746	1	82	n/a	n/a	1	0	0
1339.6656	1	82	n/a	n/a	1	0	0
1340.0836	1	82	n/a	n/a	1	0	0
1340.2276	1	82	n/a	n/a	1	0	0
1340.5456	1	82	n/a	n/a	1	0	0
1340.6576	1	82	n/a	n/a	1	0	0
1340.7236	1	82	n/a	n/a	1	0	0
1342.1972	1	10	n/a	n/a	1	52	1
1343.4306	1	10	n/a	n/a	1	52	2
1344.7472	1	10	n/a	n/a	1	52	3
1345.8304	1	10	n/a	n/a	1	52	4
1347.1136	1	10	n/a	n/a	1	52	5
1348.4302	1	10	n/a	n/a	1	52	6
1349.5968	1	10	n/a	n/a	1	52	7
1350.7634	1	21	n/a	n/a	1	52	0
1351.88	1	10	n/a	n/a	1	52	1
1353.1632	1	10	n/a	n/a	1	52	2
1354.4132	1	10	n/a	n/a	1	52	3
1355.6632	1	21	n/a	n/a	1	52	0
1356.8798	1	10	n/a	n/a	1	52	1
1358.1964	1	10	n/a	n/a	1	52	2
1359.263	1	10	n/a	n/a	1	52	3
1360.3796	1	10	n/a	n/a	1	52	4
1361.5628	1	10	n/a	n/a	1	52	5
1362.746	1	21	n/a	n/a	1	52	0
1363.796	1	10	n/a	n/a	1	52	1
1364.8292	1	10	n/a	n/a	1	52	2
1365.5548	1	82	n/a	n/a	1	0	0
1365.6498	1	82	n/a	n/a	1	0	0
1365.8268	1	82	n/a	n/a	1	0	0
1365.9828	1	82	n/a	n/a	1	0	0
1366.3458	1	82	n/a	n/a	1	0	0
1366.5548	1	82	n/a	n/a	1	0	0
1366.7138	1	82	n/a	n/a	1	0	0
1366.7858	1	82	n/a	n/a	1	0	0
1366.9208	1	82	n/a	n/a	1	0	0
1367.0258	1	82	n/a	n/a	1	0	0
1368.5124	1	10	n/a	n/a	1	52	1
1369.6956	1	10	n/a	n/a	1	52	2
1370.929	1	10	n/a	n/a	1	52	3
1372.1622	1	21	n/a	n/a	1	52	0
1373.2122	1	10	n/a	n/a	1	52	1
1374.462	1	10	n/a	n/a	1	52	2
1375.5954	1	10	n/a	n/a	1	52	3
1376.8952	1	10	n/a	n/a	1	52	4
1378.1784	1	10	n/a	n/a	1	52	5
1379.4618	1	21	n/a	n/a	1	52	0
1380.7616	1	10	n/a	n/a	1	52	1
1382.0616	1	21	n/a	n/a	1	52	0
1383.2782	1	10	n/a	n/a	1	52	1
1384.3782	1	10	n/a	n/a	1	52	2
1385.6948	1	10	n/a	n/a	1	52	3
1387.0112	1	21	n/a	n/a	1	52	0
1388.1946	1	10	n/a	n/a	1	52	1
1389.4778	1	10	n/a	n/a	1	52	2
1390.711	1	10	n/a	n/a	1	52	3
1391.9444	1	21	n/a	n/a	1	52	0
1405.2994	1	82	n/a	n/a	1	0	0
1405.3914	1	82	n/a	n/a	1	0	0
1405.8044	1	82	n/a	n/a	1	0	0
1405.9684	1	82	n/a	n/a	1	0	0
1406.2374	1	82	n/a	n/a	1	0	0
1406.2994	1	82	n/a	n/a	1	0	0
1406.5534	1	82	n/a	n/a	1	0	0
1406.6164	1	82	n/a	n/a	1	0	0
1406.7114	1	82	n/a	n/a	1	0	0
1406.8844	1	82	n/a	n/a	1	0	0
1408.2434	1	10	n/a	n/a	1	50	1
1409.5432	1	10	n/a	n/a	1	50	2
1410.7432	1	10	n/a	n/a	1	50	3
1412.0264	1	10	n/a	n/a	1	50	4
1413.293	1	10	n/a	n/a	1	50	5
1414.543	1	10	n/a	n/a	1	50	6
1415.793	1	10	n/a	n/a	1	50	7
1417.0428	1	21	n/a	n/a	1	50	0
1418.1262	1	10	n/a	n/a	1	50	1
1419.376	1	10	n/a	n/a	1	50	2
1420.676	1	10	n/a	n/a	1	50	3
1421.9258	1	10	n/a	n/a	1	50	4
1423.1424	1	10	n/a	n/a	1	50	5
1424.3758	1	10	n/a	n/a	1	50	6
1425.6756	1	10	n/a	n/a	1	50	7
1426.9756	1	21	n/a	n/a	1	50	0
1428.2256	1	10	n/a	n/a	1	50	1
1429.5422	1	10	n/a	n/a	1	50	2
1430.7754	1	10	n/a	n/a	1	50	3
1431.8586	1	10	n/a	n/a	1	50	4
1432.7254	1	82	n/a	n/a	1	0	0
1433.0844	1	82	n/a	n/a	1	0	0
1433.1284	1	82	n/a	n/a	1	0	0
1433.2634	1	82	n/a	n/a	1	0	0
1433.5064	1	82	n/a	n/a	1	0	0
1433.7254	1	82	n/a	n/a	1	0	0
1433.9974	1	82	n/a	n/a	1	0	0
1434.3274	1	82	n/a	n/a	1	0	0
1434.3764	1	82	n/a	n/a	1	0	0
1434.5244	1	82	n/a	n/a	1	0	0
1435.725	1	10	n/a	n/a	1	50	1
1436.9416	1	10	n/a	n/a	1	50	2
1438.1916	1	10	n/a	n/a	1	50	3
1439.4416	1	21	n/a	n/a	1	50	0
1440.7414	1	10	n/a	n/a	1	50	1
1441.8248	1	10	n/a	n/a	1	50	2
1442.9746	1	10	n/a	n/a	1	50	3
1444.108	1	10	n/a	n/a	1	50	4
1445.1412	1	10	n/a	n/a	1	50	5
1446.1744	1	21	n/a	n/a	1	50	0
1447.391	1	10	n/a	n/a	1	50	1
1448.6076	1	21	n/a	n/a	1	50	0
1449.8076	1	10	n/a	n/a	1	50	1
1450.8576	1	10	n/a	n/a	1	50	2
1451.9242	1	10	n/a	n/a	1	50	3
1452.9908	1	21	n/a	n/a	1	50	0
1454.3074	1	10	n/a	n/a	1	50	1
1455.6238	1	21	n/a	n/a	1	50	0
1456.9238	1	10	n/a	n/a	1	50	1
1458.2238	1	21	n/a	n/a	1	50	0
1459.0764	1	82	n/a	n/a	1	0	0
1459.5124	1	82	n/a	n/a	1	0	0
1459.5404	1	82	n/a	n/a	1	0	0
1459.7904	1	82	n/a	n/a	1	0	0
1460.0114	1	82	n/a	n/a	1	0	0
1460.0764	1	82	n/a	n/a	1	0	0
1460.1824	1	82	n/a	n/a	1	0	0
1460.4174	1	82	n/a	n/a	1	0	0
1460.6164	1	82	n/a	n/a	1	0	0
1460.9714	1	82	n/a	n/a	1	0	0
1462.0568	1	10	n/a	n/a	1	50	1
1463.1402	1	21	n/a	n/a	1	50	0
1464.29	1	10	n/a	n/a	1	50	1
1465.3234	1	10	n/a	n/a	1	50	2
1466.44	1	10	n/a	n/a	1	50	3
1467.7066	1	10	n/a	n/a	1	50	4
1468.9732	1	10	n/a	n/a	1	50	5
1470.073	1	10	n/a	n/a	1	50	6
1471.323	1	10	n/a	n/a	1	50	7
1472.5728	1	21	n/a	n/a	1	50	0
1473.7562	1	10	n/a	n/a	1	50	1
1474.9394	1	21	n/a	n/a	1	50	0
1476.006	1	10	n/a	n/a	1	50	1
1477.256	1	10	n/a	n/a	1	50	2
1478.5392	1	10	n/a	n/a	1	50	3
1479.8224	1	21	n/a	n/a	1	50	0
1481.1058	1	10	n/a	n/a	1	50	1
1482.289	1	10	n/a	n/a	1	50	2
1483.439	1	10	n/a	n/a	1	50	3
1484.6722	1	10	n/a	n/a	1	50	4
1485.5626	1	82	n/a	n/a	1	0	0
1485.7146	1	82	n/a	n/a	1	0	0
1486.0156	1	82	n/a	n/a	1	0	0
1486.2596	1	82	n/a	n/a	1	0	0
1486.3746	1	82	n/a	n/a	1	0	0
1486.5626	1	82	n/a	n/a	1	0	0
1486.6226	1	82	n/a	n/a	1	0	0
1487.0056	1	82	n/a	n/a	1	0	0
1487.0906	1	82	n/a	n/a	1	0	0
1487.3886	1	82	n/a	n/a	1	0	0
1488.672	1	10	n/a	n/a	1	50	1
1489.7386	1	10	n/a	n/a	1	50	2
1490.8384	1	10	n/a	n/a	1	50	3
1492.1218	1	10	n/a	n/a	1	50	4
1493.205	1	10	n/a	n/a	1	50	5
1494.405	1	10	n/a	n/a	1	50	6
1495.5882	1	10	n/a	n/a	1	50	7
1496.7714	1	21	n/a	n/a	1	50	0
1498.088	1	10	n/a	n/a	1	50	1
1499.4046	1	21	n/a	n/a	1	50	0
1500.7212	1	10	n/a	n/a	1	50	1
1501.7712	1	10	n/a	n/a	1	50	2
1502.9544	1	10	n/a	n/a	1	50	3
1504.1376	1	21	n/a	n/a	1	50	0
1505.371	1	10	n/a	n/a	1	50	1
1506.4542	1	10	n/a	n/a	1	50	2
1507.6542	1	10	n/a	n/a	1	50	3
1508.754	1	10	n/a	n/a	1	50	4
1509.904	1	10	n/a	n/a	1	50	5
1511.054	1	21	n/a	n/a	1	50	0
1511.8136	1	82	n/a	n/a	1	0	0
1512.1446	1	82	n/a	n/a	1	0	0
1512.2016	1	82	n/a	n/a	1	0	0
1512.4616	1	82	n/a	n/a	1	0	0
1512.6956	1	82	n/a	n/a	1	0	0
1512.8136	1	82	n/a	n/a	1	0	0
1513.0676	1	82	n/a	n/a	1	0	0
1513.1856	1	82	n/a	n/a	1	0	0
1513.2816	1	82	n/a	n/a	1	0	0
1513.5066	1	82	n/a	n/a	1	0	0
1514.7538	1	10	n/a	n/a	1	50	1
1515.8204	1	10	n/a	n/a	1	50	2
1517.037	1	10	n/a	n/a	1	50	3
1518.3368	1	10	n/a	n/a	1	50	4
1519.4702	1	10	n/a	n/a	1	50	5
1520.6034	1	21	n/a	n/a	1	50	0
1521.7034	1	10	n/a	n/a	1	50	1
1523.02	1	10	n/a	n/a	1	50	2
1524.2198	1	10	n/a	n/a	1	50	3
1525.4198	1	21	n/a	n/a	1	50	0
1526.6196	1	10	n/a	n/a	1	50	1
1527.903	1	10	n/a	n/a	1	50	2
1529.1028	1	10	n/a	n/a	1	50	3
1530.2194	1	10	n/a	n/a	1	50	4
1531.486	1	10	n/a	n/a	1	50	5
1532.7526	1	21	n/a	n/a	1	50	0
1534.0692	1	10	n/a	n/a	1	50	1
1535.2692	1	10	n/a	n/a	1	50	2
1536.5858	1	10	n/a	n/a	1	50	3
1537.8024	1	10	n/a	n/a	1	50	4
1556.6936	1	81	n/a	n/a	1	0	0
1556.8936	1	81	n/a	n/a	1	0	0
1557.0936	1	81	n/a	n/a	1	0	0
1557.2936	1	81	n/a	n/a	1	0	0
1557.4936	1	81	n/a	n/a	1	0	0
1557.6936	1	81	n/a	n/a	1	0	0
1557.8936	1	81	n/a	n/a	1	0	0
1558.0936	1	81	n/a	n/a	1	0	0
1558.2936	1	81	n/a	n/a	1	0	0
1558.4936	1	81	n/a	n/a	1	0	0
1559.751	1	10	n/a	n/a	1	51	1
1561.0676	1	10	n/a	n/a	1	51	2
1562.351	1	10	n/a	n/a	1	51	3
1563.6342	1	21	n/a	n/a	1	51	0
1564.6674	1	10	n/a	n/a	1	51	1
1565.7674	1	10	n/a	n/a	1	51	2
1566.8674	1	10	n/a	n/a	1	51	3
1567.9672	1	21	n/a	n/a	1	51	0
1569.0338	1	10	n/a	n/a	1	51	1
1570.2004	1	10	n/a	n/a	1	51	2
1571.467	1	10	n/a	n/a	1	51	3
1572.7002	1	10	n/a	n/a	1	51	4
1573.7836	1	10	n/a	n/a	1	51	5
1574.8668	1	21	n/a	n/a	1	51	0
1575.9334	1	10	n/a	n/a	1	51	1
1577	1	21	n/a	n/a	1	51	0
1578.2334	1	10	n/a	n/a	1	51	1
1579.4666	1	21	n/a	n/a	1	51	0
1580.6998	1	10	n/a	n/a	1	51	1
1581.7498	1	10	n/a	n/a	1	51	2
1582.7512	1	81	n/a	n/a	1	0	0
1582.9512	1	81	n/a	n/a	1	0	0
1583.1512	1	81	n/a	n/a	1	0	0
1583.3512	1	81	n/a	n/a	1	0	0
1583.5512	1	81	n/a	n/a	1	0	0
1583.7512	1	81	n/a	n/a	1	0	0
1583.9512	1	81	n/a	n/a	1	0	0
1584.1512	1	81	n/a	n/a	1	0	0
1584.3512	1	81	n/a	n/a	1	0	0
1584.5512	1	81	n/a	n/a	1	0	0
1585.9496	1	10	n/a	n/a	1	51	1
1587.0662	1	10	n/a	n/a	1	51	2
1588.3494	1	10	n/a	n/a	1	51	3
1589.3994	1	10	n/a	n/a	1	51	4
1590.4492	1	10	n/a	n/a	1	51	5
1591.4992	1	21	n/a	n/a	1	51	0
1592.5824	1	10	n/a	n/a	1	51	1
1593.899	1	10	n/a	n/a	1	51	2
1595.2156	1	10	n/a	n/a	1	51	3
1596.5322	1	21	n/a	n/a	1	51	0
1597.5654	1	10	n/a	n/a	1	51	1
1598.6488	1	10	n/a	n/a	1	51	2
1599.7154	1	10	n/a	n/a	1	51	3
1600.8986	1	10	n/a	n/a	1	51	4
1601.9652	1	10	n/a	n/a	1	51	5
1603.0318	1	21	n/a	n/a	1	51	0
1604.0818	1	10	n/a	n/a	1	51	1
1605.1318	1	21	n/a	n/a	1	51	0
1606.215	1	10	n/a	n/a	1	51	1
1607.2482	1	10	n/a	n/a	1	51	2
1608.3206	1	81	n/a	n/a	1	0	0
1608.5206	1	81	n/a	n/a	1	0	0
1608.7206	1	81	n/a	n/a	1	0	0
1608.9206	1	81	n/a	n/a	1	0	0
1609.1206	1	81	n/a	n/a	1	0	0
1609.3206	1	81	n/a	n/a	1	0	0
1609.5206	1	81	n/a	n/a	1	0	0
1609.7206	1	81	n/a	n/a	1	0	0
1609.9206	1	81	n/a	n/a	1	0	0
1610.1206	1	81	n/a	n/a	1	0	0
1611.5314	1	10	n/a	n/a	1	51	1
1612.7812	1	10	n/a	n/a	1	51	2
1614.0978	1	10	n/a	n/a	1	51	3
1615.4144	1	21	n/a	n/a	1	51	0
1616.6976	1	10	n/a	n/a	1	51	1
1617.7642	1	10	n/a	n/a	1	51	2
1618.8142	1	10	n/a	n/a	1	51	3
1619.8642	1	21	n/a	n/a	1	51	0
1621.1808	1	10	n/a	n/a	1	51	1
1622.4806	1	10	n/a	n/a	1	51	2
1623.714	1	10	n/a	n/a	1	51	3
1624.9472	1	10	n/a	n/a	1	51	4
1626.1804	1	10	n/a	n/a	1	51	5
1627.497	1	10	n/a	n/a	1	51	6
1628.6304	1	10	n/a	n/a	1	51	7
1629.7636	1	21	n/a	n/a	1	51	0
1631.0468	1	10	n/a	n/a	1	51	1
1632.1968	1	10	n/a	n/a	1	51	2
1633.2468	1	10	n/a	n/a	1	51	3
1634.4134	1	10	n/a	n/a	1	51	4
1635.3678	1	81	n/a	n/a	1	0	0
1635.5678	1	81	n/a	n/a	1	0	0
1635.7678	1	81	n/a	n/a	1	0	0
1635.9678	1	81	n/a	n/a	1	0	0
1636.1678	1	81	n/a	n/a	1	0	0
1636.3678	1	81	n/a	n/a	1	0	0
1636.5678	1	81	n/a	n/a	1	0	0
1636.7678	1	81	n/a	n/a	1	0	0
1636.9678	1	81	n/a	n/a	1	0	0
1637.1678	1	81	n/a	n/a	1	0	0
1638.5298	1	10	n/a	n/a	1	51	1
1639.7796	1	10	n/a	n/a	1	51	2
1640.8296	1	10	n/a	n/a	1	51	3
1641.8796	1	10	n/a	n/a	1	51	4
1643.1462	1	10	n/a	n/a	1	51	5
1644.296	1	10	n/a	n/a	1	51	6
1645.5794	1	10	n/a	n/a	1	51	7
1646.8626	1	21	n/a	n/a	1	51	0
1647.9292	1	10	n/a	n/a	1	51	1
1648.9958	1	21	n/a	n/a	1	51	0
1650.3124	1	10	n/a	n/a	1	51	1
1651.429	1	10	n/a	n/a	1	51	2
1652.6788	1	10	n/a	n/a	1	51	3
1653.9288	1	21	n/a	n/a	1	51	0
1655.212	1	10	n/a	n/a	1	51	1
1656.2454	1	10	n/a	n/a	1	51	2
1657.312	1	10	n/a	n/a	1	51	3
1658.4618	1	10	n/a	n/a	1	51	4
1659.5284	1	10	n/a	n/a	1	51	5
1660.595	1	21	n/a	n/a	1	51	0
1661.3518	1	81	n/a	n/a	1	0	0
1661.5518	1	81	n/a	n/a	1	0	0
1661.7518	1	81	n/a	n/a	1	0	0
1661.9518	1	81	n/a	n/a	1	0	0
1662.1518	1	81	n/a	n/a	1	0	0
1662.3518	1	81	n/a	n/a	1	0	0
1662.5518	1	81	n/a	n/a	1	0	0
1662.7518	1	81	n/a	n/a	1	0	0
1662.9518	1	81	n/a	n/a	1	0	0
1663.1518	1	81	n/a	n/a	1	0	0
1664.3282	1	10	n/a	n/a	1	51	1
1665.4614	1	10	n/a	n/a	1	51	2
1666.578	1	10	n/a	n/a	1	51	3
1667.6946	1	21	n/a	n/a	1	51	0
1668.928	1	10	n/a	n/a	1	51	1
1670.1612	1	21	n/a	n/a	1	51	0
1671.2612	1	10	n/a	n/a	1	51	1
1672.361	1	21	n/a	n/a	1	51	0
1673.6444	1	10	n/a	n/a	1	51	1
1674.9442	1	10	n/a	n/a	1	51	2
1676.1942	1	10	n/a	n/a	1	51	3
1677.4608	1	10	n/a	n/a	1	51	4
1678.694	1	10	n/a	n/a	1	51	5
1679.7272	1	10	n/a	n/a	1	51	6
1680.7938	1	10	n/a	n/a	1	51	7
1681.8604	1	21	n/a	n/a	1	51	0
1683.1104	1	10	n/a	n/a	1	51	1
1684.2104	1	10	n/a	n/a	1	51	2
1685.427	1	10	n/a	n/a	1	51	3
1686.6936	1	10	n/a	n/a	1	51	4
1883.185	1	82	n/a	n/a	1	0	0
1883.337	1	82	n/a	n/a	1	0	0
1883.709	1	82	n/a	n/a	1	0	0
1883.821	1	82	n/a	n/a	1	0	0
1884.147	1	82	n/a	n/a	1	0	0
1884.185	1	82	n/a	n/a	1	0	0
1884.414	1	82	n/a	n/a	1	0	0
1884.505	1	82	n/a	n/a	1	0	0
1884.803	1	82	n/a	n/a	1	0	0
1884.944	1	82	n/a	n/a	1	0	0
1886.365	1	10	n/a	n/a	1	52	1
1887.6482	1	21	n/a	n/a	1	52	0
1888.6816	1	10	n/a	n/a	1	52	1
1889.8982	1	10	n/a	n/a	1	52	2
1891.0148	1	10	n/a	n/a	1	52	3
1892.1314	1	21	n/a	n/a	1	52	0
1893.298	1	10	n/a	n/a	1	52	1
1894.448	1	10	n/a	n/a	1	52	2
1895.7312	1	10	n/a	n/a	1	52	3
1896.8978	1	10	n/a	n/a	1	52	4
1897.9476	1	10	n/a	n/a	1	52	5
1899.2642	1	10	n/a	n/a	1	52	6
1900.4476	1	10	n/a	n/a	1	52	7
1901.6308	1	21	n/a	n/a	1	52	0
1902.6808	1	10	n/a	n/a	1	52	1
1903.914	1	10	n/a	n/a	1	52	2
1905.214	1	10	n/a	n/a	1	52	3
1906.3138	1	10	n/a	n/a	1	52	4
1907.6304	1	10	n/a	n/a	1	52	5
1908.947	1	21	n/a	n/a	1	52	0
1909.8826	1	82	n/a	n/a	1	0	0
1910.3016	1	82	n/a	n/a	1	0	0
1910.3346	1	82	n/a	n/a	1	0	0
1910.4956	1	82	n/a	n/a	1	0	0
1910.8136	1	82	n/a	n/a	1	0	0
1910.8826	1	82	n/a	n/a	1	0	0
1910.9376	1	82	n/a	n/a	1	0	0
1911.2246	1	82	n/a	n/a	1	0	0
1911.3546	1	82	n/a	n/a	1	0	0
1911.5196	1	82	n/a	n/a	1	0	0
1912.8968	1	10	n/a	n/a	1	52	1
1913.9468	1	10	n/a	n/a	1	52	2
1915.08	1	10	n/a	n/a	1	52	3
1916.2966	1	10	n/a	n/a	1	52	4
1917.5798	1	10	n/a	n/a	1	52	5
1918.8798	1	10	n/a	n/a	1	52	6
1920.1298	1	10	n/a	n/a	1	52	7
1921.3796	1	21	n/a	n/a	1	52	0
1922.6796	1	10	n/a	n/a	1	52	1
1923.9962	1	21	n/a	n/a	1	52	0
1925.296	1	10	n/a	n/a	1	52	1
1926.596	1	21	n/a	n/a	1	52	0
1927.6626	1	10	n/a	n/a	1	52	1
1928.8126	1	10	n/a	n/a	1	52	2
1929.9124	1	10	n/a	n/a	1	52	3
1931.0958	1	10	n/a	n/a	1	52	4
1932.2624	1	10	n/a	n/a	1	52	5
1933.429	1	21	n/a	n/a	1	52	0
1934.6788	1	10	n/a	n/a	1	52	1
1935.9288	1	21	n/a	n/a	1	52	0
1936.7024	1	82	n/a	n/a	1	0	0
1936.7484	1	82	n/a	n/a	1	0	0
1937.0524	1	82	n/a	n/a	1	0	0
1937.2804	1	82	n/a	n/a	1	0	0
1937.4194	1	82	n/a	n/a	1	0	0
1937.7024	1	82	n/a	n/a	1	0	0
1938.1384	1	82	n/a	n/a	1	0	0
1938.1934	1	82	n/a	n/a	1	0	0
1938.3684	1	82	n/a	n/a	1	0	0
1938.6064	1	82	n/a	n/a	1	0	0
1939.6618	1	10	n/a	n/a	1	52	1
1940.8952	1	10	n/a	n/a	1	52	2
1941.9784	1	10	n/a	n/a	1	52	3
1943.0616	1	21	n/a	n/a	1	52	0
1944.1616	1	10	n/a	n/a	1	52	1
1945.3116	1	10	n/a	n/a	1	52	2
1946.4948	1	10	n/a	n/a	1	52	3
1947.6114	1	10	n/a	n/a	1	52	4
1948.8114	1	10	n/a	n/a	1	52	5
1949.9112	1	10	n/a	n/a	1	52	6
1951.2446	1	10	n/a	n/a	1	52	7
1952.5778	1	21	n/a	n/a	1	52	0
1953.911	1	10	n/a	n/a	1	52	1
1954.9776	1	10	n/a	n/a	1	52	2
1956.2276	1	10	n/a	n/a	1	52	3
1957.3276	1	10	n/a	n/a	1	52	4
1958.4942	1	10	n/a	n/a	1	52	5
1959.6774	1	10	n/a	n/a	1	52	6
1960.9106	1	10	n/a	n/a	1	52	7
1962.1438	1	21	n/a	n/a	1	52	0
1963.2496	1	82	n/a	n/a	1	0	0
1963.5016	1	82	n/a	n/a	1	0	0
1963.6226	1	82	n/a	n/a	1	0	0
1963.9256	1	82	n/a	n/a	1	0	0
1963.9896	1	82	n/a	n/a	1	0	0
1964.2496	1	82	n/a	n/a	1	0	0
1964.5086	1	82	n/a	n/a	1	0	0
1964.6866	1	82	n/a	n/a	1	0	0
1964.7756	1	82	n/a	n/a	1	0	0
1964.9256	1	82	n/a	n/a	1	0	0
1966.277	1	10	n/a	n/a	1	52	1
1967.427	1	10	n/a	n/a	1	52	2
1968.7102	1	10	n/a	n/a	1	52	3
1969.7768	1	10	n/a	n/a	1	52	4
1971.0266	1	10	n/a	n/a	1	52	5
1972.2766	1	21	n/a	n/a	1	52	0
1973.4766	1	10	n/a	n/a	1	52	1
1974.6098	1	10	n/a	n/a	1	52	2
1975.9098	1	10	n/a	n/a	1	52	3
1977.193	1	10	n/a	n/a	1	52	4
1978.4596	1	10	n/a	n/a	1	52	5
1979.6428	1	10	n/a	n/a	1	52	6
1980.9762	1	10	n/a	n/a	1	52	7
1982.3094	1	21	n/a	n/a	1	52	0
1983.3926	1	10	n/a	n/a	1	52	1
1984.6926	1	10	n/a	n/a	1	52	2
1985.9092	1	10	n/a	n/a	1	52	3
1986.9758	1	10	n/a	n/a	1	52	4
1988.0424	1	10	n/a	n/a	1	52	5
1989.359	1	10	n/a	n/a	1	52	6
1990.3854	1	82	n/a	n/a	1	0	0
1990.7024	1	82	n/a	n/a	1	0	0
1990.7464	1	82	n/a	n/a	1	0	0
1991.1314	1	82	n/a	n/a	1	0	0
1991.2594	1	82	n/a	n/a	1	0	0
1991.3854	1	82	n/a	n/a	1	0	0
1991.6094	1	82	n/a	n/a	1	0	0
1991.9494	1	82	n/a	n/a	1	0	0
1992.2524	1	82	n/a	n/a	1	0	0
1992.3234	1	82	n/a	n/a	1	0	0
1993.342	1	10	n/a	n/a	1	52	1
1994.4086	1	10	n/a	n/a	1	52	2
1995.4586	1	10	n/a	n/a	1	52	3
1997.8084	1	10	n/a	n/a	1	52	5
1998.925	1	10	n/a	n/a	1	52	6
2000.125	1	10	n/a	n/a	1	52	7
2001.3248	1	21	n/a	n/a	1	52	0
2002.4414	1	10	n/a	n/a	1	52	1
2003.7748	1	10	n/a	n/a	1	52	2
2004.9246	1	10	n/a	n/a	1	52	3
2006.0746	1	21	n/a	n/a	1	52	0
2007.3912	1	10	n/a	n/a	1	52	1
2008.4912	1	10	n/a	n/a	1	52	2
2009.7578	1	10	n/a	n/a	1	52	3
2010.9244	1	10	n/a	n/a	1	52	4
2012.0242	1	10	n/a	n/a	1	52	5
2013.1242	1	21	n/a	n/a	1	52	0
2014.2908	1	10	n/a	n/a	1	52	1
2015.3408	1	10	n/a	n/a	1	52	2
2024.9188	1	81	n/a	n/a	1	0	0
2025.1188	1	81	n/a	n/a	1	0	0
2025.3188	1	81	n/a	n/a	1	0	0
2025.5188	1	81	n/a	n/a	1	0	0
2025.7188	1	81	n/a	n/a	1	0	0
2025.919	1	81	n/a	n/a	1	0	0
2026.119	1	81	n/a	n/a	1	0	0
2026.319	1	81	n/a	n/a	1	0	0
2026.519	1	81	n/a	n/a	1	0	0
2026.719	1	81	n/a	n/a	1	0	0
2028.1066	1	10	n/a	n/a	1	50	1
2029.4066	1	10	n/a	n/a	1	50	2
2030.4566	1	10	n/a	n/a	1	50	3
2031.5898	1	10	n/a	n/a	1	50	4
2032.7898	1	10	n/a	n/a	1	50	5
2033.9896	1	21	n/a	n/a	1	50	0
2035.1562	1	10	n/a	n/a	1	50	1
2036.3894	1	10	n/a	n/a	1	50	2
2037.6894	1	10	n/a	n/a	1	50	3
2038.756	1	10	n/a	n/a	1	50	4
2039.7892	1	10	n/a	n/a	1	50	5
2041.0558	1	10	n/a	n/a	1	50	6
2042.1392	1	10	n/a	n/a	1	50	7
2043.2224	1	21	n/a	n/a	1	50	0
2044.3056	1	10	n/a	n/a	1	50	1
2045.6222	1	10	n/a	n/a	1	50	2
2046.9222	1	10	n/a	n/a	1	50	3
2047.9554	1	10	n/a	n/a	1	50	4
2049.1888	1	10	n/a	n/a	1	50	5
2050.422	1	21	n/a	n/a	1	50	0
2051.3504	1	81	n/a	n/a	1	0	0
2051.5504	1	81	n/a	n/a	1	0	0
2051.7504	1	81	n/a	n/a	1	0	0
2051.9504	1	81	n/a	n/a	1	0	0
2052.1504	1	81	n/a	n/a	1	0	0
2052.3504	1	81	n/a	n/a	1	0	0
2052.5504	1	81	n/a	n/a	1	0	0
2052.7504	1	81	n/a	n/a	1	0	0
2052.9504	1	81	n/a	n/a	1	0	0
2053.1504	1	81	n/a	n/a	1	0	0
2054.2718	1	10	n/a	n/a	1	50	1
2055.3716	1	10	n/a	n/a	1	50	2
2056.5216	1	10	n/a	n/a	1	50	3
2057.6716	1	21	n/a	n/a	1	50	0
2058.8382	1	10	n/a	n/a	1	50	1
2060.0048	1	21	n/a	n/a	1	50	0
2061.038	1	10	n/a	n/a	1	50	1
2062.0714	1	21	n/a	n/a	1	50	0
2063.3546	1	10	n/a	n/a	1	50	1
2064.3878	1	10	n/a	n/a	1	50	2
2065.621	1	10	n/a	n/a	1	50	3
2066.8876	1	10	n/a	n/a	1	50	4
2067.9876	1	10	n/a	n/a	1	50	5
2069.0876	1	21	n/a	n/a	1	50	0
2070.3042	1	10	n/a	n/a	1	50	1
2071.5208	1	21	n/a	n/a	1	50	0
2072.654	1	10	n/a	n/a	1	50	1
2073.704	1	10	n/a	n/a	1	50	2
2074.9706	1	10	n/a	n/a	1	50	3
2076.2872	1	10	n/a	n/a	1	50	4
2077.1716	1	81	n/a	n/a	1	0	0
2077.3716	1	81	n/a	n/a	1	0	0
2077.5716	1	81	n/a	n/a	1	0	0
2077.7716	1	81	n/a	n/a	1	0	0
2077.9716	1	81	n/a	n/a	1	0	0
2078.1716	1	81	n/a	n/a	1	0	0
2078.3716	1	81	n/a	n/a	1	0	0
2078.5716	1	81	n/a	n/a	1	0	0
2078.7716	1	81	n/a	n/a	1	0	0
2078.9716	1	81	n/a	n/a	1	0	0
2080.1036	1	10	n/a	n/a	1	50	1
2081.3868	1	10	n/a	n/a	1	50	2
2082.6868	1	10	n/a	n/a	1	50	3
2083.9866	1	21	n/a	n/a	1	50	0
2085.2032	1	10	n/a	n/a	1	50	1
2086.2366	1	10	n/a	n/a	1	50	2
2087.4198	1	10	n/a	n/a	1	50	3
2088.603	1	21	n/a	n/a	1	50	0
2089.803	1	10	n/a	n/a	1	50	1
2091.053	1	10	n/a	n/a	1	50	2
2092.1528	1	10	n/a	n/a	1	50	3
2093.1862	1	10	n/a	n/a	1	50	4
2094.3028	1	10	n/a	n/a	1	50	5
2095.436	1	10	n/a	n/a	1	50	6
2096.636	1	10	n/a	n/a	1	50	7
2097.8358	1	21	n/a	n/a	1	50	0
2099.1524	1	10	n/a	n/a	1	50	1
2100.2524	1	10	n/a	n/a	1	50	2
2101.4356	1	10	n/a	n/a	1	50	3
2102.6522	1	10	n/a	n/a	1	50	4
2103.7376	1	81	n/a	n/a	1	0	0
2103.9376	1	81	n/a	n/a	1	0	0
2104.1376	1	81	n/a	n/a	1	0	0
2104.3376	1	81	n/a	n/a	1	0	0
2104.5376	1	81	n/a	n/a	1	0	0
2104.7376	1	81	n/a	n/a	1	0	0
2104.9376	1	81	n/a	n/a	1	0	0
2105.1376	1	81	n/a	n/a	1	0	0
2105.3376	1	81	n/a	n/a	1	0	0
2105.5376	1	81	n/a	n/a	1	0	0
2106.6854	1	10	n/a	n/a	1	50	1
2107.8852	1	10	n/a	n/a	1	50	2
2108.9686	1	10	n/a	n/a	1	50	3
2110.2852	1	10	n/a	n/a	1	50	4
2111.4518	1	10	n/a	n/a	1	50	5
2112.5016	1	10	n/a	n/a	1	50	6
2113.7182	1	10	n/a	n/a	1	50	7
2114.9348	1	21	n/a	n/a	1	50	0
2116.0848	1	10	n/a	n/a	1	50	1
2117.268	1	10	n/a	n/a	1	50	2
2118.4512	1	10	n/a	n/a	1	50	3
2119.6178	1	10	n/a	n/a	1	50	4
2120.7844	1	10	n/a	n/a	1	50	5
2121.851	1	10	n/a	n/a	1	50	6
2122.901	1	10	n/a	n/a	1	50	7
2123.951	1	21	n/a	n/a	1	50	0
2125.051	1	10	n/a	n/a	1	50	1
2126.1342	1	10	n/a	n/a	1	50	2
2127.3508	1	10	n/a	n/a	1	50	3
2128.6506	1	10	n/a	n/a	1	50	4
2129.5834	1	81	n/a	n/a	1	0	0
2129.7834	1	81	n/a	n/a	1	0	0
2129.9834	1	81	n/a	n/a	1	0	0
2130.1834	1	81	n/a	n/a	1	0	0
2130.3834	1	81	n/a	n/a	1	0	0
2130.5834	1	81	n/a	n/a	1	0	0
2130.7834	1	81	n/a	n/a	1	0	0
2130.9834	1	81	n/a	n/a	1	0	0
2131.1834	1	81	n/a	n/a	1	0	0
2131.3834	1	81	n/a	n/a	1	0	0
2132.7672	1	10	n/a	n/a	1	50	1
2134.0504	1	10	n/a	n/a	1	50	2
2135.2004	1	10	n/a	n/a	1	50	3
2136.2336	1	10	n/a	n/a	1	50	4
2137.4668	1	10	n/a	n/a	1	50	5
2138.7	1	21	n/a	n/a	1	50	0
2139.8166	1	10	n/a	n/a	1	50	1
2140.85	1	10	n/a	n/a	1	50	2
2141.9666	1	10	n/a	n/a	1	50	3
2143.0666	1	10	n/a	n/a	1	50	4
2144.3498	1	10	n/a	n/a	1	50	5
2145.633	1	21	n/a	n/a	1	50	0
2146.833	1	10	n/a	n/a	1	50	1
2148.1162	1	10	n/a	n/a	1	50	2
2149.1828	1	10	n/a	n/a	1	50	3
2150.2328	1	10	n/a	n/a	1	50	4
2151.316	1	10	n/a	n/a	1	50	5
2152.3992	1	21	n/a	n/a	1	50	0
2153.5658	1	10	n/a	n/a	1	50	1
2154.6158	1	10	n/a	n/a	1	50	2
2177.9974	1	81	n/a	n/a	1	0	0
2178.1974	1	81	n/a	n/a	1	0	0
2178.3974	1	81	n/a	n/a	1	0	0
2178.5974	1	81	n/a	n/a	1	0	0
2178.7974	1	81	n/a	n/a	1	0	0
2178.9974	1	81	n/a	n/a	1	0	0
2179.1974	1	81	n/a	n/a	1	0	0
2179.3974	1	81	n/a	n/a	1	0	0
2179.5974	1	81	n/a	n/a	1	0	0
2179.7974	1	81	n/a	n/a	1	0	0
2181.031	1	10	n/a	n/a	1	51	1
2182.3476	1	10	n/a	n/a	1	51	2
2183.4308	1	10	n/a	n/a	1	51	3
2184.514	1	10	n/a	n/a	1	51	4
2185.664	1	10	n/a	n/a	1	51	5
2186.814	1	21	n/a	n/a	1	51	0
2187.9972	1	10	n/a	n/a	1	51	1
2189.1138	1	10	n/a	n/a	1	51	2
2190.3638	1	10	n/a	n/a	1	51	3
2191.4802	1	10	n/a	n/a	1	51	4
2192.7636	1	10	n/a	n/a	1	51	5
2193.8134	1	10	n/a	n/a	1	51	6
2194.8802	1	10	n/a	n/a	1	51	7
2195.9468	1	21	n/a	n/a	1	51	0
2196.98	1	10	n/a	n/a	1	51	1
2198.0132	1	21	n/a	n/a	1	51	0
2199.2966	1	10	n/a	n/a	1	51	1
2200.563	1	10	n/a	n/a	1	51	2
2201.6296	1	10	n/a	n/a	1	51	3
2202.6964	1	21	n/a	n/a	1	51	0
2203.569	1	81	n/a	n/a	1	0	0
2203.769	1	81	n/a	n/a	1	0	0
2203.969	1	81	n/a	n/a	1	0	0
2204.169	1	81	n/a	n/a	1	0	0
2204.369	1	81	n/a	n/a	1	0	0
2204.569	1	81	n/a	n/a	1	0	0
2204.769	1	81	n/a	n/a	1	0	0
2204.969	1	81	n/a	n/a	1	0	0
2205.169	1	81	n/a	n/a	1	0	0
2205.369	1	81	n/a	n/a	1	0	0
2206.7128	1	10	n/a	n/a	1	51	1
2208.0294	1	10	n/a	n/a	1	51	2
2209.196	1	10	n/a	n/a	1	51	3
2210.4458	1	10	n/a	n/a	1	51	4
2211.5958	1	10	n/a	n/a	1	51	5
2212.7458	1	21	n/a	n/a	1	51	0
2214.0122	1	10	n/a	n/a	1	51	1
2215.1788	1	10	n/a	n/a	1	51	2
2216.3954	1	10	n/a	n/a	1	51	3
2217.6788	1	10	n/a	n/a	1	51	4
2218.8954	1	10	n/a	n/a	1	51	5
2219.9452	1	10	n/a	n/a	1	51	6
2221.2286	1	10	n/a	n/a	1	51	7
2222.5118	1	21	n/a	n/a	1	51	0
2223.7784	1	10	n/a	n/a	1	51	1
2224.8616	1	10	n/a	n/a	1	51	2
2226.1616	1	10	n/a	n/a	1	51	3
2227.3616	1	10	n/a	n/a	1	51	4
2228.5614	1	10	n/a	n/a	1	51	5
2229.7448	1	10	n/a	n/a	1	51	6
2230.833	1	81	n/a	n/a	1	0	0
2231.033	1	81	n/a	n/a	1	0	0
2231.233	1	81	n/a	n/a	1	0	0
2231.433	1	81	n/a	n/a	1	0	0
2231.633	1	81	n/a	n/a	1	0	0
2231.833	1	81	n/a	n/a	1	0	0
2232.033	1	81	n/a	n/a	1	0	0
2232.233	1	81	n/a	n/a	1	0	0
2232.433	1	81	n/a	n/a	1	0	0
2232.633	1	81	n/a	n/a	1	0	0
2234.0278	1	10	n/a	n/a	1	51	1
2235.1778	1	10	n/a	n/a	1	51	2
2236.211	1	10	n/a	n/a	1	51	3
2237.2442	1	21	n/a	n/a	1	51	0
2238.4108	1	10	n/a	n/a	1	51	1
2239.5774	1	21	n/a	n/a	1	51	0
2240.7608	1	10	n/a	n/a	1	51	1
2241.944	1	21	n/a	n/a	1	51	0
2243.1106	1	10	n/a	n/a	1	51	1
2244.2772	1	21	n/a	n/a	1	51	0
2245.5938	1	10	n/a	n/a	1	51	1
2246.6604	1	10	n/a	n/a	1	51	2
2247.777	1	10	n/a	n/a	1	51	3
2248.827	1	10	n/a	n/a	1	51	4
2249.9268	1	10	n/a	n/a	1	51	5
2251.0268	1	21	n/a	n/a	1	51	0
2252.3266	1	10	n/a	n/a	1	51	1
2253.6432	1	10	n/a	n/a	1	51	2
2254.6932	1	10	n/a	n/a	1	51	3
2255.7432	1	10	n/a	n/a	1	51	4
2256.8268	1	81	n/a	n/a	1	0	0
2257.0268	1	81	n/a	n/a	1	0	0
2257.2268	1	81	n/a	n/a	1	0	0
2257.4268	1	81	n/a	n/a	1	0	0
2257.6268	1	81	n/a	n/a	1	0	0
2257.8268	1	81	n/a	n/a	1	0	0
2258.0268	1	81	n/a	n/a	1	0	0
2258.2268	1	81	n/a	n/a	1	0	0
2258.4268	1	81	n/a	n/a	1	0	0
2258.6268	1	81	n/a	n/a	1	0	0
2259.8762	1	10	n/a	n/a	1	51	1
2261.0928	1	10	n/a	n/a	1	51	2
2262.1928	1	10	n/a	n/a	1	51	3
2263.2928	1	21	n/a	n/a	1	51	0
2264.4426	1	10	n/a	n/a	1	51	1
2265.6092	1	10	n/a	n/a	1	51	2
2266.6758	1	10	n/a	n/a	1	51	3
2267.9592	1	10	n/a	n/a	1	51	4
2269.1924	1	10	n/a	n/a	1	51	5
2270.4256	1	21	n/a	n/a	1	51	0
2271.6422	1	10	n/a	n/a	1	51	1
2272.8422	1	10	n/a	n/a	1	51	2
2274.1588	1	10	n/a	n/a	1	51	3
2275.2086	1	10	n/a	n/a	1	51	4
2276.2586	1	10	n/a	n/a	1	51	5
2277.4418	1	10	n/a	n/a	1	51	6
2278.6252	1	10	n/a	n/a	1	51	7
2279.8084	1	21	n/a	n/a	1	51	0
2280.8916	1	10	n/a	n/a	1	51	1
2281.975	1	10	n/a	n/a	1	51	2
2282.7416	1	81	n/a	n/a	1	0	0
2282.9416	1	81	n/a	n/a	1	0	0
2283.1416	1	81	n/a	n/a	1	0	0
2283.3416	1	81	n/a	n/a	1	0	0
2283.5416	1	81	n/a	n/a	1	0	0
2283.7416	1	81	n/a	n/a	1	0	0
2283.9416	1	81	n/a	n/a	1	0	0
2284.1416	1	81	n/a	n/a	1	0	0
2284.3416	1	81	n/a	n/a	1	0	0
2284.5416	1	81	n/a	n/a	1	0	0
2285.8748	1	10	n/a	n/a	1	51	1
2286.958	1	10	n/a	n/a	1	51	2
2288.1746	1	10	n/a	n/a	1	51	3
2289.2246	1	10	n/a	n/a	1	51	4
2290.491	1	10	n/a	n/a	1	51	5
2291.741	1	21	n/a	n/a	1	51	0
2292.9076	1	10	n/a	n/a	1	51	1
2293.9576	1	10	n/a	n/a	1	51	2
2295.0908	1	10	n/a	n/a	1	51	3
2296.224	1	21	n/a	n/a	1	51	0
2297.424	1	10	n/a	n/a	1	51	1
2298.624	1	21	n/a	n/a	1	51	0
2299.6572	1	10	n/a	n/a	1	51	1
2300.9404	1	10	n/a	n/a	1	51	2
2302.2238	1	10	n/a	n/a	1	51	3
2303.507	1	21	n/a	n/a	1	51	0
2304.8236	1	10	n/a	n/a	1	51	1
2306.0736	1	10	n/a	n/a	1	51	2
2307.3568	1	10	n/a	n/a	1	51	3
2308.6734	1	10	n/a	n/a	1	51	4
