onset	duration	value	response	rt	good	TMS	seq
75.759	1	81	n/a	n/a	1	0	0
75.959	1	81	n/a	n/a	1	0	0
76.159	1	81	n/a	n/a	1	0	0
76.359	1	81	n/a	n/a	1	0	0
76.559	1	81	n/a	n/a	1	0	0
76.759	1	81	n/a	n/a	1	0	0
76.959	1	81	n/a	n/a	1	0	0
77.159	1	81	n/a	n/a	1	0	0
77.359	1	81	n/a	n/a	1	0	0
77.559	1	81	n/a	n/a	1	0	0
78.8598	1	10	n/a	n/a	1	51	1
80.0598	1	21	n/a	n/a	1	51	0
81.3764	1	10	n/a	n/a	1	51	1
82.6762	1	10	n/a	n/a	1	51	2
83.8928	1	10	n/a	n/a	1	51	3
85.0094	1	10	n/a	n/a	1	51	4
86.0428	1	10	n/a	n/a	1	51	5
87.076	1	21	n/a	n/a	1	51	0
88.3592	1	10	n/a	n/a	1	51	1
89.6426	1	21	n/a	n/a	1	51	0
90.8592	1	10	n/a	n/a	1	51	1
92.0424	1	10	n/a	n/a	1	51	2
93.109	1	10	n/a	n/a	1	51	3
94.209	1	10	n/a	n/a	1	51	4
95.4756	1	10	n/a	n/a	1	51	5
96.7422	1	21	n/a	n/a	1	51	0
97.7754	1	10	n/a	n/a	1	51	1
99.0586	1	10	n/a	n/a	1	51	2
100.1586	1	10	n/a	n/a	1	51	3
101.4584	1	10	n/a	n/a	1	51	4
102.5278	1	81	n/a	n/a	1	0	0
102.7278	1	81	n/a	n/a	1	0	0
102.9278	1	81	n/a	n/a	1	0	0
103.1278	1	81	n/a	n/a	1	0	0
103.3278	1	81	n/a	n/a	1	0	0
103.5278	1	81	n/a	n/a	1	0	0
103.7278	1	81	n/a	n/a	1	0	0
103.9278	1	81	n/a	n/a	1	0	0
104.1278	1	81	n/a	n/a	1	0	0
104.3278	1	81	n/a	n/a	1	0	0
105.525	1	10	n/a	n/a	1	51	1
106.6416	1	10	n/a	n/a	1	51	2
107.7582	1	10	n/a	n/a	1	51	3
108.858	1	10	n/a	n/a	1	51	4
110.1246	1	10	n/a	n/a	1	51	5
111.3912	1	21	n/a	n/a	1	51	0
112.4246	1	10	n/a	n/a	1	51	1
113.4744	1	10	n/a	n/a	1	51	2
114.6744	1	10	n/a	n/a	1	51	3
115.9744	1	10	n/a	n/a	1	51	4
117.2242	1	10	n/a	n/a	1	51	5
118.5242	1	10	n/a	n/a	1	51	6
119.5742	1	10	n/a	n/a	1	51	7
120.624	1	21	n/a	n/a	1	51	0
121.8906	1	10	n/a	n/a	1	51	1
123.1072	1	10	n/a	n/a	1	51	2
124.1906	1	10	n/a	n/a	1	51	3
125.2738	1	21	n/a	n/a	1	51	0
126.507	1	10	n/a	n/a	1	51	1
127.7402	1	21	n/a	n/a	1	51	0
128.648	1	81	n/a	n/a	1	0	0
128.848	1	81	n/a	n/a	1	0	0
129.048	1	81	n/a	n/a	1	0	0
129.248	1	81	n/a	n/a	1	0	0
129.448	1	81	n/a	n/a	1	0	0
129.648	1	81	n/a	n/a	1	0	0
129.848	1	81	n/a	n/a	1	0	0
130.048	1	81	n/a	n/a	1	0	0
130.248	1	81	n/a	n/a	1	0	0
130.448	1	81	n/a	n/a	1	0	0
131.7568	1	10	n/a	n/a	1	51	1
132.8734	1	10	n/a	n/a	1	51	2
134.0232	1	10	n/a	n/a	1	51	3
135.2398	1	10	n/a	n/a	1	51	4
136.2898	1	10	n/a	n/a	1	51	5
137.3398	1	21	n/a	n/a	1	51	0
138.6396	1	10	n/a	n/a	1	51	1
139.773	1	10	n/a	n/a	1	51	2
140.8728	1	10	n/a	n/a	1	51	3
142.1894	1	10	n/a	n/a	1	51	4
143.406	1	10	n/a	n/a	1	51	5
144.5894	1	10	n/a	n/a	1	51	6
145.656	1	10	n/a	n/a	1	51	7
146.7392	1	21	n/a	n/a	1	51	0
147.9892	1	10	n/a	n/a	1	51	1
149.2724	1	21	n/a	n/a	1	51	0
150.3224	1	10	n/a	n/a	1	51	1
151.4556	1	10	n/a	n/a	1	51	2
152.7056	1	10	n/a	n/a	1	51	3
153.9554	1	21	n/a	n/a	1	51	0
154.922	1	81	n/a	n/a	1	0	0
155.122	1	81	n/a	n/a	1	0	0
155.322	1	81	n/a	n/a	1	0	0
155.522	1	81	n/a	n/a	1	0	0
155.722	1	81	n/a	n/a	1	0	0
155.922	1	81	n/a	n/a	1	0	0
156.122	1	81	n/a	n/a	1	0	0
156.322	1	81	n/a	n/a	1	0	0
156.522	1	81	n/a	n/a	1	0	0
156.722	1	81	n/a	n/a	1	0	0
158.1052	1	10	n/a	n/a	1	51	1
159.2552	1	10	n/a	n/a	1	51	2
160.5718	1	10	n/a	n/a	1	51	3
161.8882	1	21	n/a	n/a	1	51	0
163.1048	1	10	n/a	n/a	1	51	1
164.3214	1	21	n/a	n/a	1	51	0
165.3714	1	10	n/a	n/a	1	51	1
166.4214	1	21	n/a	n/a	1	51	0
167.6546	1	10	n/a	n/a	1	51	1
168.6878	1	10	n/a	n/a	1	51	2
169.7546	1	10	n/a	n/a	1	51	3
170.921	1	10	n/a	n/a	1	51	4
172.221	1	10	n/a	n/a	1	51	5
173.4376	1	10	n/a	n/a	1	51	6
174.7708	1	10	n/a	n/a	1	51	7
176.1042	1	21	n/a	n/a	1	51	0
177.1708	1	10	n/a	n/a	1	51	1
178.3874	1	10	n/a	n/a	1	51	2
179.6706	1	10	n/a	n/a	1	51	3
180.8206	1	10	n/a	n/a	1	51	4
181.547	1	81	n/a	n/a	1	0	0
181.747	1	81	n/a	n/a	1	0	0
181.947	1	81	n/a	n/a	1	0	0
182.147	1	81	n/a	n/a	1	0	0
182.347	1	81	n/a	n/a	1	0	0
182.547	1	81	n/a	n/a	1	0	0
182.747	1	81	n/a	n/a	1	0	0
182.947	1	81	n/a	n/a	1	0	0
183.147	1	81	n/a	n/a	1	0	0
183.347	1	81	n/a	n/a	1	0	0
184.7536	1	10	n/a	n/a	1	51	1
185.9368	1	10	n/a	n/a	1	51	2
187.2034	1	10	n/a	n/a	1	51	3
188.4534	1	10	n/a	n/a	1	51	4
189.7534	1	10	n/a	n/a	1	51	5
191.0032	1	10	n/a	n/a	1	51	6
192.1532	1	10	n/a	n/a	1	51	7
193.3032	1	21	n/a	n/a	1	51	0
194.5198	1	10	n/a	n/a	1	51	1
195.553	1	10	n/a	n/a	1	51	2
196.853	1	10	n/a	n/a	1	51	3
198.1528	1	21	n/a	n/a	1	51	0
199.1862	1	10	n/a	n/a	1	51	1
200.2194	1	10	n/a	n/a	1	51	2
201.3526	1	10	n/a	n/a	1	51	3
202.4026	1	10	n/a	n/a	1	51	4
203.5192	1	10	n/a	n/a	1	51	5
204.6358	1	21	n/a	n/a	1	51	0
205.7858	1	10	n/a	n/a	1	51	1
207.0024	1	10	n/a	n/a	1	51	2
218.573	1	81	n/a	n/a	1	0	0
218.773	1	81	n/a	n/a	1	0	0
218.973	1	81	n/a	n/a	1	0	0
219.173	1	81	n/a	n/a	1	0	0
219.373	1	81	n/a	n/a	1	0	0
219.573	1	81	n/a	n/a	1	0	0
219.773	1	81	n/a	n/a	1	0	0
219.973	1	81	n/a	n/a	1	0	0
220.173	1	81	n/a	n/a	1	0	0
220.373	1	81	n/a	n/a	1	0	0
221.7682	1	10	n/a	n/a	1	50	1
223.0348	1	10	n/a	n/a	1	50	2
224.2846	1	10	n/a	n/a	1	50	3
225.418	1	10	n/a	n/a	1	50	4
226.7012	1	10	n/a	n/a	1	50	5
227.7344	1	10	n/a	n/a	1	50	6
228.9344	1	10	n/a	n/a	1	50	7
230.1344	1	21	n/a	n/a	1	50	0
231.4176	1	10	n/a	n/a	1	50	1
232.5508	1	10	n/a	n/a	1	50	2
233.8508	1	10	n/a	n/a	1	50	3
235.1506	1	21	n/a	n/a	1	50	0
236.3006	1	10	n/a	n/a	1	50	1
237.4506	1	21	n/a	n/a	1	50	0
238.4838	1	10	n/a	n/a	1	50	1
239.6004	1	10	n/a	n/a	1	50	2
240.867	1	10	n/a	n/a	1	50	3
242.167	1	10	n/a	n/a	1	50	4
243.4502	1	10	n/a	n/a	1	50	5
244.4834	1	10	n/a	n/a	1	50	6
245.433	1	81	n/a	n/a	1	0	0
245.633	1	81	n/a	n/a	1	0	0
245.833	1	81	n/a	n/a	1	0	0
246.033	1	81	n/a	n/a	1	0	0
246.233	1	81	n/a	n/a	1	0	0
246.433	1	81	n/a	n/a	1	0	0
246.633	1	81	n/a	n/a	1	0	0
246.833	1	81	n/a	n/a	1	0	0
247.033	1	81	n/a	n/a	1	0	0
247.233	1	81	n/a	n/a	1	0	0
248.4832	1	10	n/a	n/a	1	50	1
249.6332	1	21	n/a	n/a	1	50	0
250.9498	1	10	n/a	n/a	1	50	1
251.983	1	10	n/a	n/a	1	50	2
253.183	1	10	n/a	n/a	1	50	3
254.2828	1	10	n/a	n/a	1	50	4
255.4828	1	10	n/a	n/a	1	50	5
256.6828	1	21	n/a	n/a	1	50	0
257.966	1	10	n/a	n/a	1	50	1
259.2492	1	10	n/a	n/a	1	50	2
260.4826	1	10	n/a	n/a	1	50	3
261.7158	1	21	n/a	n/a	1	50	0
262.8824	1	10	n/a	n/a	1	50	1
263.9156	1	10	n/a	n/a	1	50	2
265.0322	1	10	n/a	n/a	1	50	3
266.1488	1	21	n/a	n/a	1	50	0
267.3988	1	10	n/a	n/a	1	50	1
268.732	1	10	n/a	n/a	1	50	2
269.8986	1	10	n/a	n/a	1	50	3
270.9986	1	10	n/a	n/a	1	50	4
271.736	1	81	n/a	n/a	1	0	0
271.936	1	81	n/a	n/a	1	0	0
272.136	1	81	n/a	n/a	1	0	0
272.336	1	81	n/a	n/a	1	0	0
272.536	1	81	n/a	n/a	1	0	0
272.736	1	81	n/a	n/a	1	0	0
272.936	1	81	n/a	n/a	1	0	0
273.136	1	81	n/a	n/a	1	0	0
273.336	1	81	n/a	n/a	1	0	0
273.536	1	81	n/a	n/a	1	0	0
274.6984	1	10	n/a	n/a	1	50	1
275.765	1	21	n/a	n/a	1	50	0
276.8982	1	10	n/a	n/a	1	50	1
278.1314	1	10	n/a	n/a	1	50	2
279.2814	1	10	n/a	n/a	1	50	3
280.4314	1	21	n/a	n/a	1	50	0
281.6812	1	10	n/a	n/a	1	50	1
282.9312	1	21	n/a	n/a	1	50	0
284.0978	1	10	n/a	n/a	1	50	1
285.381	1	10	n/a	n/a	1	50	2
286.6644	1	10	n/a	n/a	1	50	3
287.9642	1	10	n/a	n/a	1	50	4
289.2308	1	10	n/a	n/a	1	50	5
290.3308	1	10	n/a	n/a	1	50	6
291.5308	1	10	n/a	n/a	1	50	7
292.7306	1	21	n/a	n/a	1	50	0
293.9972	1	10	n/a	n/a	1	50	1
295.0306	1	10	n/a	n/a	1	50	2
296.2138	1	10	n/a	n/a	1	50	3
297.247	1	10	n/a	n/a	1	50	4
298.1814	1	81	n/a	n/a	1	0	0
298.3814	1	81	n/a	n/a	1	0	0
298.5814	1	81	n/a	n/a	1	0	0
298.7814	1	81	n/a	n/a	1	0	0
298.9814	1	81	n/a	n/a	1	0	0
299.1814	1	81	n/a	n/a	1	0	0
299.3814	1	81	n/a	n/a	1	0	0
299.5814	1	81	n/a	n/a	1	0	0
299.7814	1	81	n/a	n/a	1	0	0
299.9814	1	81	n/a	n/a	1	0	0
301.2634	1	10	n/a	n/a	1	50	1
302.5134	1	10	n/a	n/a	1	50	2
303.5634	1	10	n/a	n/a	1	50	3
304.6132	1	21	n/a	n/a	1	50	0
305.9132	1	10	n/a	n/a	1	50	1
307.0632	1	10	n/a	n/a	1	50	2
308.313	1	10	n/a	n/a	1	50	3
309.563	1	10	n/a	n/a	1	50	4
310.8796	1	10	n/a	n/a	1	50	5
312.1962	1	21	n/a	n/a	1	50	0
313.4462	1	10	n/a	n/a	1	50	1
314.6294	1	10	n/a	n/a	1	50	2
315.9126	1	10	n/a	n/a	1	50	3
317.1126	1	10	n/a	n/a	1	50	4
318.1792	1	10	n/a	n/a	1	50	5
319.4624	1	10	n/a	n/a	1	50	6
320.729	1	10	n/a	n/a	1	50	7
321.9956	1	21	n/a	n/a	1	50	0
323.2288	1	10	n/a	n/a	1	50	1
324.3954	1	10	n/a	n/a	1	50	2
325.501	1	81	n/a	n/a	1	0	0
325.701	1	81	n/a	n/a	1	0	0
325.901	1	81	n/a	n/a	1	0	0
326.1008	1	81	n/a	n/a	1	0	0
326.3008	1	81	n/a	n/a	1	0	0
326.501	1	81	n/a	n/a	1	0	0
326.701	1	81	n/a	n/a	1	0	0
326.901	1	81	n/a	n/a	1	0	0
327.101	1	81	n/a	n/a	1	0	0
327.301	1	81	n/a	n/a	1	0	0
328.5118	1	10	n/a	n/a	1	50	1
329.7452	1	10	n/a	n/a	1	50	2
330.995	1	10	n/a	n/a	1	50	3
332.3284	1	10	n/a	n/a	1	50	4
333.4282	1	10	n/a	n/a	1	50	5
334.7448	1	10	n/a	n/a	1	50	6
335.9614	1	10	n/a	n/a	1	50	7
337.178	1	21	n/a	n/a	1	50	0
338.4614	1	10	n/a	n/a	1	50	1
339.7446	1	21	n/a	n/a	1	50	0
340.7778	1	10	n/a	n/a	1	50	1
341.9278	1	10	n/a	n/a	1	50	2
343.1776	1	10	n/a	n/a	1	50	3
344.411	1	10	n/a	n/a	1	50	4
345.5442	1	10	n/a	n/a	1	50	5
346.6774	1	21	n/a	n/a	1	50	0
347.9774	1	10	n/a	n/a	1	50	1
349.2774	1	21	n/a	n/a	1	50	0
350.5272	1	10	n/a	n/a	1	50	1
351.6938	1	10	n/a	n/a	1	50	2
378.9858	1	82	n/a	n/a	1	0	0
379.0738	1	82	n/a	n/a	1	0	0
379.3796	1	82	n/a	n/a	1	0	0
379.7326	1	82	n/a	n/a	1	0	0
379.8418	1	82	n/a	n/a	1	0	0
379.9858	1	82	n/a	n/a	1	0	0
380.3058	1	82	n/a	n/a	1	0	0
380.3338	1	82	n/a	n/a	1	0	0
380.5878	1	82	n/a	n/a	1	0	0
380.6398	1	82	n/a	n/a	1	0	0
381.9754	1	10	n/a	n/a	1	52	1
383.242	1	10	n/a	n/a	1	52	2
384.3252	1	10	n/a	n/a	1	52	3
385.3586	1	10	n/a	n/a	1	52	4
386.5584	1	10	n/a	n/a	1	52	5
387.7918	1	10	n/a	n/a	1	52	6
389.0584	1	10	n/a	n/a	1	52	7
390.325	1	21	n/a	n/a	1	52	0
391.6082	1	10	n/a	n/a	1	52	1
392.9248	1	10	n/a	n/a	1	52	2
394.0748	1	10	n/a	n/a	1	52	3
395.2414	1	10	n/a	n/a	1	52	4
396.2912	1	10	n/a	n/a	1	52	5
397.3412	1	21	n/a	n/a	1	52	0
398.6078	1	10	n/a	n/a	1	52	1
399.7078	1	10	n/a	n/a	1	52	2
400.741	1	10	n/a	n/a	1	52	3
401.8076	1	10	n/a	n/a	1	52	4
402.9576	1	10	n/a	n/a	1	52	5
404.2242	1	10	n/a	n/a	1	52	6
405.1446	1	82	n/a	n/a	1	0	0
405.4816	1	82	n/a	n/a	1	0	0
405.8616	1	82	n/a	n/a	1	0	0
405.8946	1	82	n/a	n/a	1	0	0
406.0696	1	82	n/a	n/a	1	0	0
406.1446	1	82	n/a	n/a	1	0	0
406.2736	1	82	n/a	n/a	1	0	0
406.3066	1	82	n/a	n/a	1	0	0
406.6406	1	82	n/a	n/a	1	0	0
406.9286	1	82	n/a	n/a	1	0	0
408.2072	1	10	n/a	n/a	1	52	1
409.4072	1	10	n/a	n/a	1	52	2
410.6404	1	10	n/a	n/a	1	52	3
411.8736	1	21	n/a	n/a	1	52	0
413.057	1	10	n/a	n/a	1	52	1
414.2568	1	10	n/a	n/a	1	52	2
415.4568	1	10	n/a	n/a	1	52	3
416.69	1	10	n/a	n/a	1	52	4
417.9566	1	10	n/a	n/a	1	52	5
419.0066	1	10	n/a	n/a	1	52	6
420.2566	1	10	n/a	n/a	1	52	7
421.5064	1	21	n/a	n/a	1	52	0
422.5398	1	10	n/a	n/a	1	52	1
423.7564	1	10	n/a	n/a	1	52	2
424.9396	1	10	n/a	n/a	1	52	3
426.1228	1	10	n/a	n/a	1	52	4
427.1728	1	10	n/a	n/a	1	52	5
428.4728	1	10	n/a	n/a	1	52	6
429.5394	1	10	n/a	n/a	1	52	7
430.606	1	21	n/a	n/a	1	52	0
431.3246	1	82	n/a	n/a	1	0	0
431.3556	1	82	n/a	n/a	1	0	0
431.4576	1	82	n/a	n/a	1	0	0
431.7856	1	82	n/a	n/a	1	0	0
432.0216	1	82	n/a	n/a	1	0	0
432.3246	1	82	n/a	n/a	1	0	0
432.6136	1	82	n/a	n/a	1	0	0
432.9776	1	82	n/a	n/a	1	0	0
433.1286	1	82	n/a	n/a	1	0	0
433.1546	1	82	n/a	n/a	1	0	0
434.3724	1	10	n/a	n/a	1	52	1
435.5556	1	10	n/a	n/a	1	52	2
436.8056	1	10	n/a	n/a	1	52	3
437.9054	1	10	n/a	n/a	1	52	4
439.172	1	10	n/a	n/a	1	52	5
440.2054	1	10	n/a	n/a	1	52	6
441.2386	1	10	n/a	n/a	1	52	7
442.272	1	21	n/a	n/a	1	52	0
443.4386	1	10	n/a	n/a	1	52	1
444.5718	1	10	n/a	n/a	1	52	2
445.6718	1	10	n/a	n/a	1	52	3
446.7716	1	21	n/a	n/a	1	52	0
447.8216	1	10	n/a	n/a	1	52	1
448.9382	1	10	n/a	n/a	1	52	2
450.2214	1	10	n/a	n/a	1	52	3
451.4048	1	10	n/a	n/a	1	52	4
452.538	1	10	n/a	n/a	1	52	5
453.6212	1	21	n/a	n/a	1	52	0
454.8378	1	10	n/a	n/a	1	52	1
456.0544	1	21	n/a	n/a	1	52	0
456.9618	1	82	n/a	n/a	1	0	0
457.0168	1	82	n/a	n/a	1	0	0
457.3938	1	82	n/a	n/a	1	0	0
457.6368	1	82	n/a	n/a	1	0	0
457.7878	1	82	n/a	n/a	1	0	0
457.9618	1	82	n/a	n/a	1	0	0
458.0728	1	82	n/a	n/a	1	0	0
458.1298	1	82	n/a	n/a	1	0	0
458.2118	1	82	n/a	n/a	1	0	0
458.5768	1	82	n/a	n/a	1	0	0
459.8876	1	10	n/a	n/a	1	52	1
461.1374	1	10	n/a	n/a	1	52	2
462.3374	1	10	n/a	n/a	1	52	3
463.6374	1	10	n/a	n/a	1	52	4
464.804	1	10	n/a	n/a	1	52	5
465.9706	1	21	n/a	n/a	1	52	0
467.0872	1	10	n/a	n/a	1	52	1
468.2204	1	10	n/a	n/a	1	52	2
469.3204	1	10	n/a	n/a	1	52	3
470.5536	1	10	n/a	n/a	1	52	4
471.6868	1	10	n/a	n/a	1	52	5
472.7368	1	10	n/a	n/a	1	52	6
473.8868	1	10	n/a	n/a	1	52	7
475.0366	1	21	n/a	n/a	1	52	0
476.1366	1	10	n/a	n/a	1	52	1
477.2532	1	10	n/a	n/a	1	52	2
478.3864	1	10	n/a	n/a	1	52	3
479.5364	1	10	n/a	n/a	1	52	4
480.5696	1	10	n/a	n/a	1	52	5
481.603	1	21	n/a	n/a	1	52	0
482.4016	1	82	n/a	n/a	1	0	0
482.6706	1	82	n/a	n/a	1	0	0
482.8266	1	82	n/a	n/a	1	0	0
482.8496	1	82	n/a	n/a	1	0	0
483.1816	1	82	n/a	n/a	1	0	0
483.4016	1	82	n/a	n/a	1	0	0
483.7746	1	82	n/a	n/a	1	0	0
484.0896	1	82	n/a	n/a	1	0	0
484.2026	1	82	n/a	n/a	1	0	0
484.3516	1	82	n/a	n/a	1	0	0
485.3528	1	10	n/a	n/a	1	52	1
486.4526	1	10	n/a	n/a	1	52	2
487.7026	1	10	n/a	n/a	1	52	3
488.9358	1	10	n/a	n/a	1	52	4
490.0358	1	10	n/a	n/a	1	52	5
491.1358	1	21	n/a	n/a	1	52	0
492.319	1	10	n/a	n/a	1	52	1
493.519	1	21	n/a	n/a	1	52	0
494.6688	1	10	n/a	n/a	1	52	1
495.7354	1	10	n/a	n/a	1	52	2
496.9854	1	10	n/a	n/a	1	52	3
498.2352	1	21	n/a	n/a	1	52	0
499.3518	1	10	n/a	n/a	1	52	1
500.4684	1	21	n/a	n/a	1	52	0
501.585	1	10	n/a	n/a	1	52	1
502.7016	1	10	n/a	n/a	1	52	2
503.735	1	10	n/a	n/a	1	52	3
504.8182	1	10	n/a	n/a	1	52	4
506.0016	1	10	n/a	n/a	1	52	5
507.1348	1	10	n/a	n/a	1	52	6
732.575	1	81	n/a	n/a	1	0	0
732.775	1	81	n/a	n/a	1	0	0
732.975	1	81	n/a	n/a	1	0	0
733.175	1	81	n/a	n/a	1	0	0
733.375	1	81	n/a	n/a	1	0	0
733.575	1	81	n/a	n/a	1	0	0
733.775	1	81	n/a	n/a	1	0	0
733.975	1	81	n/a	n/a	1	0	0
734.175	1	81	n/a	n/a	1	0	0
734.375	1	81	n/a	n/a	1	0	0
735.6548	1	10	n/a	n/a	1	51	1
736.838	1	21	n/a	n/a	1	51	0
738.138	1	10	n/a	n/a	1	51	1
739.4378	1	21	n/a	n/a	1	51	0
740.6378	1	10	n/a	n/a	1	51	1
741.8876	1	10	n/a	n/a	1	51	2
743.2042	1	10	n/a	n/a	1	51	3
744.3208	1	10	n/a	n/a	1	51	4
745.4042	1	10	n/a	n/a	1	51	5
746.4374	1	21	n/a	n/a	1	51	0
747.5874	1	10	n/a	n/a	1	51	1
748.7874	1	10	n/a	n/a	1	51	2
749.9038	1	10	n/a	n/a	1	51	3
751.0204	1	21	n/a	n/a	1	51	0
752.2538	1	10	n/a	n/a	1	51	1
753.337	1	10	n/a	n/a	1	51	2
754.4702	1	10	n/a	n/a	1	51	3
755.6368	1	21	n/a	n/a	1	51	0
756.6868	1	10	n/a	n/a	1	51	1
757.7368	1	21	n/a	n/a	1	51	0
758.7904	1	81	n/a	n/a	1	0	0
758.9904	1	81	n/a	n/a	1	0	0
759.1904	1	81	n/a	n/a	1	0	0
759.3904	1	81	n/a	n/a	1	0	0
759.5904	1	81	n/a	n/a	1	0	0
759.7904	1	81	n/a	n/a	1	0	0
759.9904	1	81	n/a	n/a	1	0	0
760.1904	1	81	n/a	n/a	1	0	0
760.3904	1	81	n/a	n/a	1	0	0
760.5904	1	81	n/a	n/a	1	0	0
761.9366	1	10	n/a	n/a	1	51	1
763.2032	1	10	n/a	n/a	1	51	2
764.303	1	10	n/a	n/a	1	51	3
765.4864	1	10	n/a	n/a	1	51	4
766.8196	1	10	n/a	n/a	1	51	5
768.1528	1	21	n/a	n/a	1	51	0
769.2028	1	10	n/a	n/a	1	51	1
770.3026	1	10	n/a	n/a	1	51	2
771.6026	1	10	n/a	n/a	1	51	3
772.7026	1	10	n/a	n/a	1	51	4
773.9192	1	10	n/a	n/a	1	51	5
775.119	1	10	n/a	n/a	1	51	6
776.2524	1	10	n/a	n/a	1	51	7
777.3856	1	21	n/a	n/a	1	51	0
778.7022	1	10	n/a	n/a	1	51	1
780.0188	1	21	n/a	n/a	1	51	0
781.102	1	10	n/a	n/a	1	51	1
782.3186	1	10	n/a	n/a	1	51	2
783.3852	1	10	n/a	n/a	1	51	3
784.4518	1	21	n/a	n/a	1	51	0
785.3466	1	81	n/a	n/a	1	0	0
785.5466	1	81	n/a	n/a	1	0	0
785.7466	1	81	n/a	n/a	1	0	0
785.9466	1	81	n/a	n/a	1	0	0
786.1466	1	81	n/a	n/a	1	0	0
786.3466	1	81	n/a	n/a	1	0	0
786.5466	1	81	n/a	n/a	1	0	0
786.7466	1	81	n/a	n/a	1	0	0
786.9466	1	81	n/a	n/a	1	0	0
787.1466	1	81	n/a	n/a	1	0	0
788.385	1	10	n/a	n/a	1	51	1
789.5016	1	10	n/a	n/a	1	51	2
790.7348	1	10	n/a	n/a	1	51	3
791.9182	1	10	n/a	n/a	1	51	4
793.2014	1	10	n/a	n/a	1	51	5
794.4846	1	21	n/a	n/a	1	51	0
795.7012	1	10	n/a	n/a	1	51	1
796.9844	1	10	n/a	n/a	1	51	2
798.1678	1	10	n/a	n/a	1	51	3
799.351	1	21	n/a	n/a	1	51	0
800.601	1	10	n/a	n/a	1	51	1
801.8508	1	10	n/a	n/a	1	51	2
802.9674	1	10	n/a	n/a	1	51	3
804.1174	1	10	n/a	n/a	1	51	4
805.3006	1	10	n/a	n/a	1	51	5
806.484	1	21	n/a	n/a	1	51	0
807.7838	1	10	n/a	n/a	1	51	1
808.8672	1	10	n/a	n/a	1	51	2
810.0838	1	10	n/a	n/a	1	51	3
811.167	1	10	n/a	n/a	1	51	4
812.1544	1	81	n/a	n/a	1	0	0
812.3544	1	81	n/a	n/a	1	0	0
812.5544	1	81	n/a	n/a	1	0	0
812.7544	1	81	n/a	n/a	1	0	0
812.9544	1	81	n/a	n/a	1	0	0
813.1544	1	81	n/a	n/a	1	0	0
813.3544	1	81	n/a	n/a	1	0	0
813.5544	1	81	n/a	n/a	1	0	0
813.7544	1	81	n/a	n/a	1	0	0
813.9544	1	81	n/a	n/a	1	0	0
815.1668	1	10	n/a	n/a	1	51	1
816.2834	1	21	n/a	n/a	1	51	0
817.4832	1	10	n/a	n/a	1	51	1
818.7332	1	10	n/a	n/a	1	51	2
819.7664	1	10	n/a	n/a	1	51	3
820.883	1	10	n/a	n/a	1	51	4
822.0996	1	10	n/a	n/a	1	51	5
823.3662	1	10	n/a	n/a	1	51	6
824.4662	1	10	n/a	n/a	1	51	7
825.5662	1	21	n/a	n/a	1	51	0
826.5994	1	10	n/a	n/a	1	51	1
827.6326	1	21	n/a	n/a	1	51	0
828.666	1	10	n/a	n/a	1	51	1
829.8492	1	10	n/a	n/a	1	51	2
831.0158	1	10	n/a	n/a	1	51	3
832.1824	1	21	n/a	n/a	1	51	0
833.2324	1	10	n/a	n/a	1	51	1
834.2822	1	21	n/a	n/a	1	51	0
835.3656	1	10	n/a	n/a	1	51	1
836.4488	1	21	n/a	n/a	1	51	0
837.4074	1	81	n/a	n/a	1	0	0
837.6074	1	81	n/a	n/a	1	0	0
837.8074	1	81	n/a	n/a	1	0	0
838.0074	1	81	n/a	n/a	1	0	0
838.2074	1	81	n/a	n/a	1	0	0
838.4074	1	81	n/a	n/a	1	0	0
838.6074	1	81	n/a	n/a	1	0	0
838.8074	1	81	n/a	n/a	1	0	0
839.0074	1	81	n/a	n/a	1	0	0
839.2074	1	81	n/a	n/a	1	0	0
840.4152	1	10	n/a	n/a	1	51	1
841.7152	1	10	n/a	n/a	1	51	2
843.0152	1	10	n/a	n/a	1	51	3
844.2484	1	10	n/a	n/a	1	51	4
845.4816	1	10	n/a	n/a	1	51	5
846.7982	1	10	n/a	n/a	1	51	6
847.8482	1	10	n/a	n/a	1	51	7
848.8982	1	21	n/a	n/a	1	51	0
849.9814	1	10	n/a	n/a	1	51	1
851.098	1	10	n/a	n/a	1	51	2
852.2978	1	10	n/a	n/a	1	51	3
853.4146	1	10	n/a	n/a	1	51	4
854.5478	1	10	n/a	n/a	1	51	5
855.831	1	10	n/a	n/a	1	51	6
857.031	1	10	n/a	n/a	1	51	7
858.2308	1	21	n/a	n/a	1	51	0
859.2974	1	10	n/a	n/a	1	51	1
860.3974	1	10	n/a	n/a	1	51	2
861.464	1	10	n/a	n/a	1	51	3
862.5474	1	10	n/a	n/a	1	51	4
871.8142	1	81	n/a	n/a	1	0	0
872.0142	1	81	n/a	n/a	1	0	0
872.2142	1	81	n/a	n/a	1	0	0
872.4142	1	81	n/a	n/a	1	0	0
872.6142	1	81	n/a	n/a	1	0	0
872.8142	1	81	n/a	n/a	1	0	0
873.0142	1	81	n/a	n/a	1	0	0
873.2142	1	81	n/a	n/a	1	0	0
873.4142	1	81	n/a	n/a	1	0	0
873.6142	1	81	n/a	n/a	1	0	0
875.03	1	10	n/a	n/a	1	50	1
876.2798	1	10	n/a	n/a	1	50	2
877.3298	1	10	n/a	n/a	1	50	3
878.5796	1	10	n/a	n/a	1	50	4
879.7796	1	10	n/a	n/a	1	50	5
880.9796	1	21	n/a	n/a	1	50	0
882.0128	1	10	n/a	n/a	1	50	1
883.0462	1	21	n/a	n/a	1	50	0
884.1128	1	10	n/a	n/a	1	50	1
885.2294	1	10	n/a	n/a	1	50	2
886.346	1	10	n/a	n/a	1	50	3
887.4626	1	21	n/a	n/a	1	50	0
888.7124	1	10	n/a	n/a	1	50	1
889.779	1	10	n/a	n/a	1	50	2
890.8124	1	10	n/a	n/a	1	50	3
892.0956	1	10	n/a	n/a	1	50	4
893.2788	1	10	n/a	n/a	1	50	5
894.4122	1	10	n/a	n/a	1	50	6
895.712	1	10	n/a	n/a	1	50	7
897.012	1	21	n/a	n/a	1	50	0
897.9356	1	81	n/a	n/a	1	0	0
898.1356	1	81	n/a	n/a	1	0	0
898.3356	1	81	n/a	n/a	1	0	0
898.5356	1	81	n/a	n/a	1	0	0
898.7356	1	81	n/a	n/a	1	0	0
898.9356	1	81	n/a	n/a	1	0	0
899.1356	1	81	n/a	n/a	1	0	0
899.3356	1	81	n/a	n/a	1	0	0
899.5356	1	81	n/a	n/a	1	0	0
899.7356	1	81	n/a	n/a	1	0	0
900.895	1	10	n/a	n/a	1	50	1
902.045	1	10	n/a	n/a	1	50	2
903.3116	1	10	n/a	n/a	1	50	3
904.5616	1	10	n/a	n/a	1	50	4
905.7948	1	10	n/a	n/a	1	50	5
906.878	1	10	n/a	n/a	1	50	6
908.178	1	10	n/a	n/a	1	50	7
909.4778	1	21	n/a	n/a	1	50	0
910.5778	1	10	n/a	n/a	1	50	1
911.6778	1	21	n/a	n/a	1	50	0
912.8444	1	10	n/a	n/a	1	50	1
914.1442	1	10	n/a	n/a	1	50	2
915.4108	1	10	n/a	n/a	1	50	3
916.7108	1	10	n/a	n/a	1	50	4
917.944	1	10	n/a	n/a	1	50	5
919.1774	1	21	n/a	n/a	1	50	0
920.2272	1	10	n/a	n/a	1	50	1
921.3606	1	10	n/a	n/a	1	50	2
922.5938	1	10	n/a	n/a	1	50	3
923.8604	1	21	n/a	n/a	1	50	0
924.8488	1	81	n/a	n/a	1	0	0
925.0488	1	81	n/a	n/a	1	0	0
925.2488	1	81	n/a	n/a	1	0	0
925.4488	1	81	n/a	n/a	1	0	0
925.6488	1	81	n/a	n/a	1	0	0
925.8488	1	81	n/a	n/a	1	0	0
926.0488	1	81	n/a	n/a	1	0	0
926.2488	1	81	n/a	n/a	1	0	0
926.4488	1	81	n/a	n/a	1	0	0
926.6488	1	81	n/a	n/a	1	0	0
928.0268	1	10	n/a	n/a	1	50	1
929.1768	1	10	n/a	n/a	1	50	2
930.3934	1	10	n/a	n/a	1	50	3
931.46	1	10	n/a	n/a	1	50	4
932.7266	1	10	n/a	n/a	1	50	5
933.9932	1	21	n/a	n/a	1	50	0
935.0264	1	10	n/a	n/a	1	50	1
936.3264	1	10	n/a	n/a	1	50	2
937.5096	1	10	n/a	n/a	1	50	3
938.6928	1	21	n/a	n/a	1	50	0
939.9428	1	10	n/a	n/a	1	50	1
941.0594	1	10	n/a	n/a	1	50	2
942.126	1	10	n/a	n/a	1	50	3
943.3092	1	10	n/a	n/a	1	50	4
944.6258	1	10	n/a	n/a	1	50	5
945.7258	1	10	n/a	n/a	1	50	6
947.009	1	10	n/a	n/a	1	50	7
948.2922	1	21	n/a	n/a	1	50	0
949.5922	1	10	n/a	n/a	1	50	1
950.7588	1	10	n/a	n/a	1	50	2
951.6424	1	81	n/a	n/a	1	0	0
951.8424	1	81	n/a	n/a	1	0	0
952.0424	1	81	n/a	n/a	1	0	0
952.2424	1	81	n/a	n/a	1	0	0
952.4424	1	81	n/a	n/a	1	0	0
952.6424	1	81	n/a	n/a	1	0	0
952.8424	1	81	n/a	n/a	1	0	0
953.0424	1	81	n/a	n/a	1	0	0
953.2424	1	81	n/a	n/a	1	0	0
953.4424	1	81	n/a	n/a	1	0	0
954.7252	1	10	n/a	n/a	1	50	1
955.9086	1	10	n/a	n/a	1	50	2
957.0418	1	10	n/a	n/a	1	50	3
958.225	1	10	n/a	n/a	1	50	4
959.475	1	10	n/a	n/a	1	50	5
960.7248	1	21	n/a	n/a	1	50	0
961.9414	1	10	n/a	n/a	1	50	1
963.0248	1	10	n/a	n/a	1	50	2
964.1914	1	10	n/a	n/a	1	50	3
965.3246	1	10	n/a	n/a	1	50	4
966.3746	1	10	n/a	n/a	1	50	5
967.4244	1	21	n/a	n/a	1	50	0
968.6078	1	10	n/a	n/a	1	50	1
969.7076	1	10	n/a	n/a	1	50	2
970.841	1	10	n/a	n/a	1	50	3
971.9742	1	21	n/a	n/a	1	50	0
973.2742	1	10	n/a	n/a	1	50	1
974.4074	1	10	n/a	n/a	1	50	2
975.4906	1	10	n/a	n/a	1	50	3
976.724	1	10	n/a	n/a	1	50	4
977.4584	1	81	n/a	n/a	1	0	0
977.6584	1	81	n/a	n/a	1	0	0
977.8584	1	81	n/a	n/a	1	0	0
978.0584	1	81	n/a	n/a	1	0	0
978.2584	1	81	n/a	n/a	1	0	0
978.4584	1	81	n/a	n/a	1	0	0
978.6584	1	81	n/a	n/a	1	0	0
978.8584	1	81	n/a	n/a	1	0	0
979.0584	1	81	n/a	n/a	1	0	0
979.2584	1	81	n/a	n/a	1	0	0
980.4404	1	10	n/a	n/a	1	50	1
981.757	1	10	n/a	n/a	1	50	2
983.057	1	10	n/a	n/a	1	50	3
984.1402	1	10	n/a	n/a	1	50	4
985.2234	1	10	n/a	n/a	1	50	5
986.3068	1	21	n/a	n/a	1	50	0
987.4734	1	10	n/a	n/a	1	50	1
988.5232	1	10	n/a	n/a	1	50	2
989.7732	1	10	n/a	n/a	1	50	3
991.0232	1	10	n/a	n/a	1	50	4
992.173	1	10	n/a	n/a	1	50	5
993.323	1	21	n/a	n/a	1	50	0
994.473	1	10	n/a	n/a	1	50	1
995.6062	1	10	n/a	n/a	1	50	2
996.7728	1	10	n/a	n/a	1	50	3
997.806	1	10	n/a	n/a	1	50	4
998.9394	1	10	n/a	n/a	1	50	5
1000.1892	1	10	n/a	n/a	1	50	6
1001.4226	1	10	n/a	n/a	1	50	7
1002.6558	1	21	n/a	n/a	1	50	0
1034.0186	1	82	n/a	n/a	1	0	0
1034.1746	1	82	n/a	n/a	1	0	0
1034.4216	1	82	n/a	n/a	1	0	0
1034.7706	1	82	n/a	n/a	1	0	0
1034.8746	1	82	n/a	n/a	1	0	0
1035.0188	1	82	n/a	n/a	1	0	0
1035.3218	1	82	n/a	n/a	1	0	0
1035.4276	1	82	n/a	n/a	1	0	0
1035.5046	1	82	n/a	n/a	1	0	0
1035.7756	1	82	n/a	n/a	1	0	0
1037.0372	1	10	n/a	n/a	1	52	1
1038.0704	1	10	n/a	n/a	1	52	2
1039.2202	1	10	n/a	n/a	1	52	3
1040.4202	1	10	n/a	n/a	1	52	4
1041.7202	1	10	n/a	n/a	1	52	5
1043.0034	1	10	n/a	n/a	1	52	6
1044.27	1	10	n/a	n/a	1	52	7
1045.5366	1	21	n/a	n/a	1	52	0
1046.8366	1	10	n/a	n/a	1	52	1
1047.9364	1	10	n/a	n/a	1	52	2
1049.0364	1	10	n/a	n/a	1	52	3
1050.0864	1	10	n/a	n/a	1	52	4
1051.2696	1	10	n/a	n/a	1	52	5
1052.5028	1	10	n/a	n/a	1	52	6
1053.8028	1	10	n/a	n/a	1	52	7
1055.1026	1	21	n/a	n/a	1	52	0
1056.3192	1	10	n/a	n/a	1	52	1
1057.5192	1	10	n/a	n/a	1	52	2
1058.8192	1	10	n/a	n/a	1	52	3
1060.119	1	21	n/a	n/a	1	52	0
1060.8678	1	82	n/a	n/a	1	0	0
1061.1318	1	82	n/a	n/a	1	0	0
1061.2128	1	82	n/a	n/a	1	0	0
1061.3158	1	82	n/a	n/a	1	0	0
1061.3748	1	82	n/a	n/a	1	0	0
1061.8678	1	82	n/a	n/a	1	0	0
1062.1018	1	82	n/a	n/a	1	0	0
1062.1548	1	82	n/a	n/a	1	0	0
1062.4208	1	82	n/a	n/a	1	0	0
1062.7798	1	82	n/a	n/a	1	0	0
1064.0522	1	10	n/a	n/a	1	52	1
1065.2522	1	10	n/a	n/a	1	52	2
1066.352	1	10	n/a	n/a	1	52	3
1067.3854	1	10	n/a	n/a	1	52	4
1068.452	1	10	n/a	n/a	1	52	5
1069.5018	1	10	n/a	n/a	1	52	6
1070.7684	1	10	n/a	n/a	1	52	7
1072.035	1	21	n/a	n/a	1	52	0
1073.1516	1	10	n/a	n/a	1	52	1
1074.2682	1	21	n/a	n/a	1	52	0
1075.3516	1	10	n/a	n/a	1	52	1
1076.6514	1	10	n/a	n/a	1	52	2
1077.818	1	10	n/a	n/a	1	52	3
1078.968	1	21	n/a	n/a	1	52	0
1080.0846	1	10	n/a	n/a	1	52	1
1081.2012	1	21	n/a	n/a	1	52	0
1082.2844	1	10	n/a	n/a	1	52	1
1083.4178	1	10	n/a	n/a	1	52	2
1084.4676	1	10	n/a	n/a	1	52	3
1085.7176	1	10	n/a	n/a	1	52	4
1086.8032	1	82	n/a	n/a	1	0	0
1086.8882	1	82	n/a	n/a	1	0	0
1087.0422	1	82	n/a	n/a	1	0	0
1087.2222	1	82	n/a	n/a	1	0	0
1087.5782	1	82	n/a	n/a	1	0	0
1087.8032	1	82	n/a	n/a	1	0	0
1088.1402	1	82	n/a	n/a	1	0	0
1088.1872	1	82	n/a	n/a	1	0	0
1088.2592	1	82	n/a	n/a	1	0	0
1088.5042	1	82	n/a	n/a	1	0	0
1089.834	1	10	n/a	n/a	1	52	1
1090.9006	1	10	n/a	n/a	1	52	2
1092.0338	1	10	n/a	n/a	1	52	3
1093.1838	1	10	n/a	n/a	1	52	4
1094.5004	1	10	n/a	n/a	1	52	5
1095.6836	1	10	n/a	n/a	1	52	6
1096.9336	1	10	n/a	n/a	1	52	7
1098.1836	1	21	n/a	n/a	1	52	0
1099.3168	1	10	n/a	n/a	1	52	1
1100.6166	1	10	n/a	n/a	1	52	2
1101.75	1	10	n/a	n/a	1	52	3
1102.9998	1	10	n/a	n/a	1	52	4
1104.2832	1	10	n/a	n/a	1	52	5
1105.5664	1	21	n/a	n/a	1	52	0
1106.7164	1	10	n/a	n/a	1	52	1
1107.9496	1	10	n/a	n/a	1	52	2
1108.9828	1	10	n/a	n/a	1	52	3
1110.0162	1	21	n/a	n/a	1	52	0
1111.2494	1	10	n/a	n/a	1	52	1
1112.516	1	10	n/a	n/a	1	52	2
1113.2794	1	82	n/a	n/a	1	0	0
1113.6334	1	82	n/a	n/a	1	0	0
1113.8904	1	82	n/a	n/a	1	0	0
1114.0974	1	82	n/a	n/a	1	0	0
1114.1414	1	82	n/a	n/a	1	0	0
1114.2794	1	82	n/a	n/a	1	0	0
1114.3294	1	82	n/a	n/a	1	0	0
1114.6354	1	82	n/a	n/a	1	0	0
1114.6644	1	82	n/a	n/a	1	0	0
1114.7804	1	82	n/a	n/a	1	0	0
1116.3992	1	10	n/a	n/a	1	52	1
1117.6324	1	21	n/a	n/a	1	52	0
1118.699	1	10	n/a	n/a	1	52	1
1119.7656	1	21	n/a	n/a	1	52	0
1120.8156	1	10	n/a	n/a	1	52	1
1121.8654	1	21	n/a	n/a	1	52	0
1123.1488	1	10	n/a	n/a	1	52	1
1124.3154	1	10	n/a	n/a	1	52	2
1125.4986	1	10	n/a	n/a	1	52	3
1126.6818	1	21	n/a	n/a	1	52	0
1127.8984	1	10	n/a	n/a	1	52	1
1129.0984	1	10	n/a	n/a	1	52	2
1130.3482	1	10	n/a	n/a	1	52	3
1131.5648	1	10	n/a	n/a	1	52	4
1132.7314	1	10	n/a	n/a	1	52	5
1133.898	1	21	n/a	n/a	1	52	0
1135.1314	1	10	n/a	n/a	1	52	1
1136.448	1	10	n/a	n/a	1	52	2
1137.6312	1	10	n/a	n/a	1	52	3
1138.7812	1	10	n/a	n/a	1	52	4
1139.6636	1	82	n/a	n/a	1	0	0
1139.9946	1	82	n/a	n/a	1	0	0
1140.1016	1	82	n/a	n/a	1	0	0
1140.5056	1	82	n/a	n/a	1	0	0
1140.5546	1	82	n/a	n/a	1	0	0
1140.6636	1	82	n/a	n/a	1	0	0
1140.9256	1	82	n/a	n/a	1	0	0
1141.0556	1	82	n/a	n/a	1	0	0
1141.4006	1	82	n/a	n/a	1	0	0
1141.4596	1	82	n/a	n/a	1	0	0
1142.8642	1	10	n/a	n/a	1	52	1
1144.0642	1	10	n/a	n/a	1	52	2
1145.314	1	10	n/a	n/a	1	52	3
1146.3806	1	10	n/a	n/a	1	52	4
1147.714	1	10	n/a	n/a	1	52	5
1148.7638	1	10	n/a	n/a	1	52	6
1150.0638	1	10	n/a	n/a	1	52	7
1151.3638	1	21	n/a	n/a	1	52	0
1152.647	1	10	n/a	n/a	1	52	1
1153.7802	1	10	n/a	n/a	1	52	2
1155.0802	1	10	n/a	n/a	1	52	3
1156.2468	1	10	n/a	n/a	1	52	4
1157.43	1	10	n/a	n/a	1	52	5
1158.5466	1	10	n/a	n/a	1	52	6
1159.8632	1	10	n/a	n/a	1	52	7
1161.1798	1	21	n/a	n/a	1	52	0
1162.463	1	10	n/a	n/a	1	52	1
1163.7464	1	21	n/a	n/a	1	52	0
1164.8462	1	10	n/a	n/a	1	52	1
1165.9128	1	10	n/a	n/a	1	52	2
1243.6916	1	81	n/a	n/a	1	0	0
1243.8916	1	81	n/a	n/a	1	0	0
1244.0916	1	81	n/a	n/a	1	0	0
1244.2916	1	81	n/a	n/a	1	0	0
1244.4916	1	81	n/a	n/a	1	0	0
1244.6916	1	81	n/a	n/a	1	0	0
1244.8916	1	81	n/a	n/a	1	0	0
1245.0916	1	81	n/a	n/a	1	0	0
1245.2916	1	81	n/a	n/a	1	0	0
1245.4916	1	81	n/a	n/a	1	0	0
1246.6282	1	10	n/a	n/a	1	51	1
1247.678	1	21	n/a	n/a	1	51	0
1248.9114	1	10	n/a	n/a	1	51	1
1250.0446	1	10	n/a	n/a	1	51	2
1251.3278	1	10	n/a	n/a	1	51	3
1252.4778	1	10	n/a	n/a	1	51	4
1253.661	1	10	n/a	n/a	1	51	5
1254.811	1	10	n/a	n/a	1	51	6
1256.0108	1	10	n/a	n/a	1	51	7
1257.2108	1	21	n/a	n/a	1	51	0
1258.2774	1	10	n/a	n/a	1	51	1
1259.3106	1	10	n/a	n/a	1	51	2
1260.644	1	10	n/a	n/a	1	51	3
1261.7938	1	10	n/a	n/a	1	51	4
1262.9772	1	10	n/a	n/a	1	51	5
1264.1604	1	21	n/a	n/a	1	51	0
1265.2104	1	10	n/a	n/a	1	51	1
1266.4936	1	10	n/a	n/a	1	51	2
1267.6102	1	10	n/a	n/a	1	51	3
1268.8934	1	10	n/a	n/a	1	51	4
1269.9158	1	81	n/a	n/a	1	0	0
1270.1158	1	81	n/a	n/a	1	0	0
1270.3158	1	81	n/a	n/a	1	0	0
1270.5158	1	81	n/a	n/a	1	0	0
1270.7158	1	81	n/a	n/a	1	0	0
1270.9158	1	81	n/a	n/a	1	0	0
1271.1158	1	81	n/a	n/a	1	0	0
1271.3158	1	81	n/a	n/a	1	0	0
1271.5158	1	81	n/a	n/a	1	0	0
1271.7158	1	81	n/a	n/a	1	0	0
1272.9098	1	10	n/a	n/a	1	51	1
1274.0098	1	21	n/a	n/a	1	51	0
1275.1098	1	10	n/a	n/a	1	51	1
1276.3264	1	10	n/a	n/a	1	51	2
1277.4596	1	10	n/a	n/a	1	51	3
1278.6428	1	10	n/a	n/a	1	51	4
1279.8262	1	10	n/a	n/a	1	51	5
1280.9428	1	10	n/a	n/a	1	51	6
1282.2426	1	10	n/a	n/a	1	51	7
1283.5426	1	21	n/a	n/a	1	51	0
1284.6592	1	10	n/a	n/a	1	51	1
1285.9758	1	10	n/a	n/a	1	51	2
1287.009	1	10	n/a	n/a	1	51	3
1288.1756	1	10	n/a	n/a	1	51	4
1289.209	1	10	n/a	n/a	1	51	5
1290.2422	1	21	n/a	n/a	1	51	0
1291.4922	1	10	n/a	n/a	1	51	1
1292.7754	1	10	n/a	n/a	1	51	2
1293.942	1	10	n/a	n/a	1	51	3
1295.1086	1	21	n/a	n/a	1	51	0
1296.2212	1	81	n/a	n/a	1	0	0
1296.4212	1	81	n/a	n/a	1	0	0
1296.6212	1	81	n/a	n/a	1	0	0
1296.8212	1	81	n/a	n/a	1	0	0
1297.0212	1	81	n/a	n/a	1	0	0
1297.2212	1	81	n/a	n/a	1	0	0
1297.4212	1	81	n/a	n/a	1	0	0
1297.6212	1	81	n/a	n/a	1	0	0
1297.8212	1	81	n/a	n/a	1	0	0
1298.0212	1	81	n/a	n/a	1	0	0
1299.3084	1	10	n/a	n/a	1	51	1
1300.425	1	10	n/a	n/a	1	51	2
1301.7416	1	10	n/a	n/a	1	51	3
1303.0582	1	10	n/a	n/a	1	51	4
1304.3414	1	10	n/a	n/a	1	51	5
1305.6246	1	21	n/a	n/a	1	51	0
1306.8912	1	10	n/a	n/a	1	51	1
1307.9746	1	10	n/a	n/a	1	51	2
1309.0244	1	10	n/a	n/a	1	51	3
1310.291	1	10	n/a	n/a	1	51	4
1311.391	1	10	n/a	n/a	1	51	5
1312.641	1	10	n/a	n/a	1	51	6
1313.7076	1	10	n/a	n/a	1	51	7
1314.7742	1	21	n/a	n/a	1	51	0
1316.0908	1	10	n/a	n/a	1	51	1
1317.324	1	10	n/a	n/a	1	51	2
1318.4906	1	10	n/a	n/a	1	51	3
1319.5738	1	10	n/a	n/a	1	51	4
1320.7572	1	10	n/a	n/a	1	51	5
1321.8238	1	10	n/a	n/a	1	51	6
1322.738	1	81	n/a	n/a	1	0	0
1322.938	1	81	n/a	n/a	1	0	0
1323.138	1	81	n/a	n/a	1	0	0
1323.338	1	81	n/a	n/a	1	0	0
1323.538	1	81	n/a	n/a	1	0	0
1323.7382	1	81	n/a	n/a	1	0	0
1323.9382	1	81	n/a	n/a	1	0	0
1324.1382	1	81	n/a	n/a	1	0	0
1324.3382	1	81	n/a	n/a	1	0	0
1324.5382	1	81	n/a	n/a	1	0	0
1325.7734	1	10	n/a	n/a	1	51	1
1327.04	1	10	n/a	n/a	1	51	2
1328.2734	1	10	n/a	n/a	1	51	3
1329.4066	1	10	n/a	n/a	1	51	4
1330.5898	1	10	n/a	n/a	1	51	5
1331.7064	1	10	n/a	n/a	1	51	6
1332.8064	1	10	n/a	n/a	1	51	7
1333.9064	1	21	n/a	n/a	1	51	0
1335.0396	1	10	n/a	n/a	1	51	1
1336.2896	1	10	n/a	n/a	1	51	2
1337.3394	1	10	n/a	n/a	1	51	3
1338.3894	1	21	n/a	n/a	1	51	0
1339.656	1	10	n/a	n/a	1	51	1
1340.9226	1	21	n/a	n/a	1	51	0
1342.2392	1	10	n/a	n/a	1	51	1
1343.4724	1	10	n/a	n/a	1	51	2
1344.7724	1	10	n/a	n/a	1	51	3
1345.8222	1	10	n/a	n/a	1	51	4
1346.8556	1	10	n/a	n/a	1	51	5
1347.8888	1	21	n/a	n/a	1	51	0
1348.6566	1	81	n/a	n/a	1	0	0
1348.8566	1	81	n/a	n/a	1	0	0
1349.0564	1	81	n/a	n/a	1	0	0
1349.2566	1	81	n/a	n/a	1	0	0
1349.4564	1	81	n/a	n/a	1	0	0
1349.6566	1	81	n/a	n/a	1	0	0
1349.8566	1	81	n/a	n/a	1	0	0
1350.0566	1	81	n/a	n/a	1	0	0
1350.2566	1	81	n/a	n/a	1	0	0
1350.4566	1	81	n/a	n/a	1	0	0
1351.7052	1	10	n/a	n/a	1	51	1
1352.8552	1	21	n/a	n/a	1	51	0
1354.1718	1	10	n/a	n/a	1	51	1
1355.455	1	10	n/a	n/a	1	51	2
1356.4884	1	10	n/a	n/a	1	51	3
1357.705	1	10	n/a	n/a	1	51	4
1359.0048	1	10	n/a	n/a	1	51	5
1360.0382	1	10	n/a	n/a	1	51	6
1361.2214	1	10	n/a	n/a	1	51	7
1362.4046	1	21	n/a	n/a	1	51	0
1363.7212	1	10	n/a	n/a	1	51	1
1364.8712	1	10	n/a	n/a	1	51	2
1366.1212	1	10	n/a	n/a	1	51	3
1367.3044	1	10	n/a	n/a	1	51	4
1368.5376	1	10	n/a	n/a	1	51	5
1369.721	1	21	n/a	n/a	1	51	0
1370.9708	1	10	n/a	n/a	1	51	1
1372.2208	1	21	n/a	n/a	1	51	0
1373.354	1	10	n/a	n/a	1	51	1
1374.554	1	10	n/a	n/a	1	51	2
1384.1172	1	82	n/a	n/a	1	0	0
1384.5142	1	82	n/a	n/a	1	0	0
1384.8602	1	82	n/a	n/a	1	0	0
1385.0262	1	82	n/a	n/a	1	0	0
1385.0812	1	82	n/a	n/a	1	0	0
1385.1172	1	82	n/a	n/a	1	0	0
1385.3772	1	82	n/a	n/a	1	0	0
1385.7382	1	82	n/a	n/a	1	0	0
1385.8442	1	82	n/a	n/a	1	0	0
1386.0122	1	82	n/a	n/a	1	0	0
1387.0532	1	10	n/a	n/a	1	50	1
1388.1032	1	21	n/a	n/a	1	50	0
1389.2698	1	10	n/a	n/a	1	50	1
1390.5196	1	10	n/a	n/a	1	50	2
1391.803	1	10	n/a	n/a	1	50	3
1392.8862	1	10	n/a	n/a	1	50	4
1393.9528	1	10	n/a	n/a	1	50	5
1395.0194	1	21	n/a	n/a	1	50	0
1396.1526	1	10	n/a	n/a	1	50	1
1397.2026	1	10	n/a	n/a	1	50	2
1398.236	1	10	n/a	n/a	1	50	3
1399.5192	1	10	n/a	n/a	1	50	4
1400.769	1	10	n/a	n/a	1	50	5
1401.9524	1	10	n/a	n/a	1	50	6
1403.019	1	10	n/a	n/a	1	50	7
1404.0856	1	21	n/a	n/a	1	50	0
1405.3688	1	10	n/a	n/a	1	50	1
1406.652	1	21	n/a	n/a	1	50	0
1407.8186	1	10	n/a	n/a	1	50	1
1409.1186	1	10	n/a	n/a	1	50	2
1409.924	1	82	n/a	n/a	1	0	0
1410.194	1	82	n/a	n/a	1	0	0
1410.416	1	82	n/a	n/a	1	0	0
1410.828	1	82	n/a	n/a	1	0	0
1410.86	1	82	n/a	n/a	1	0	0
1410.924	1	82	n/a	n/a	1	0	0
1411.204	1	82	n/a	n/a	1	0	0
1411.323	1	82	n/a	n/a	1	0	0
1411.379	1	82	n/a	n/a	1	0	0
1411.618	1	82	n/a	n/a	1	0	0
1413.0516	1	10	n/a	n/a	1	50	1
1414.2182	1	10	n/a	n/a	1	50	2
1415.3848	1	10	n/a	n/a	1	50	3
1416.5514	1	21	n/a	n/a	1	50	0
1417.7348	1	10	n/a	n/a	1	50	1
1419.0014	1	10	n/a	n/a	1	50	2
1420.2012	1	10	n/a	n/a	1	50	3
1421.4846	1	10	n/a	n/a	1	50	4
1422.7344	1	10	n/a	n/a	1	50	5
1423.7678	1	10	n/a	n/a	1	50	6
1424.951	1	10	n/a	n/a	1	50	7
1426.1342	1	21	n/a	n/a	1	50	0
1427.2508	1	10	n/a	n/a	1	50	1
1428.3674	1	21	n/a	n/a	1	50	0
1429.5008	1	10	n/a	n/a	1	50	1
1430.634	1	21	n/a	n/a	1	50	0
1431.8006	1	10	n/a	n/a	1	50	1
1432.8338	1	10	n/a	n/a	1	50	2
1434.1172	1	10	n/a	n/a	1	50	3
1435.3004	1	10	n/a	n/a	1	50	4
1436.4078	1	82	n/a	n/a	1	0	0
1436.5788	1	82	n/a	n/a	1	0	0
1436.9088	1	82	n/a	n/a	1	0	0
1437.1268	1	82	n/a	n/a	1	0	0
1437.1638	1	82	n/a	n/a	1	0	0
1437.4078	1	82	n/a	n/a	1	0	0
1437.5228	1	82	n/a	n/a	1	0	0
1437.5758	1	82	n/a	n/a	1	0	0
1437.8538	1	82	n/a	n/a	1	0	0
1438.2178	1	82	n/a	n/a	1	0	0
1439.4502	1	10	n/a	n/a	1	50	1
1440.7	1	10	n/a	n/a	1	50	2
1441.9666	1	10	n/a	n/a	1	50	3
1443.1666	1	10	n/a	n/a	1	50	4
1444.3832	1	10	n/a	n/a	1	50	5
1445.6498	1	10	n/a	n/a	1	50	6
1446.733	1	10	n/a	n/a	1	50	7
1447.8164	1	21	n/a	n/a	1	50	0
1449.1162	1	10	n/a	n/a	1	50	1
1450.3328	1	10	n/a	n/a	1	50	2
1451.3828	1	10	n/a	n/a	1	50	3
1452.416	1	10	n/a	n/a	1	50	4
1453.5826	1	10	n/a	n/a	1	50	5
1454.6992	1	10	n/a	n/a	1	50	6
1455.9992	1	10	n/a	n/a	1	50	7
1457.2992	1	21	n/a	n/a	1	50	0
1458.4324	1	10	n/a	n/a	1	50	1
1459.749	1	10	n/a	n/a	1	50	2
1460.849	1	10	n/a	n/a	1	50	3
1461.9488	1	21	n/a	n/a	1	50	0
1463.0286	1	82	n/a	n/a	1	0	0
1463.2586	1	82	n/a	n/a	1	0	0
1463.5096	1	82	n/a	n/a	1	0	0
1463.8026	1	82	n/a	n/a	1	0	0
1463.9116	1	82	n/a	n/a	1	0	0
1464.0286	1	82	n/a	n/a	1	0	0
1464.1736	1	82	n/a	n/a	1	0	0
1464.2356	1	82	n/a	n/a	1	0	0
1464.4116	1	82	n/a	n/a	1	0	0
1464.6926	1	82	n/a	n/a	1	0	0
1466.0652	1	10	n/a	n/a	1	50	1
1467.2152	1	21	n/a	n/a	1	50	0
1468.3318	1	10	n/a	n/a	1	50	1
1469.4484	1	21	n/a	n/a	1	50	0
1470.565	1	10	n/a	n/a	1	50	1
1471.8816	1	10	n/a	n/a	1	50	2
1472.9482	1	10	n/a	n/a	1	50	3
1474.0148	1	21	n/a	n/a	1	50	0
1475.0648	1	10	n/a	n/a	1	50	1
1476.1146	1	21	n/a	n/a	1	50	0
1477.298	1	10	n/a	n/a	1	50	1
1478.4812	1	21	n/a	n/a	1	50	0
1479.5978	1	10	n/a	n/a	1	50	1
1480.8478	1	10	n/a	n/a	1	50	2
1481.9144	1	10	n/a	n/a	1	50	3
1483.2142	1	10	n/a	n/a	1	50	4
1484.4976	1	10	n/a	n/a	1	50	5
1485.7308	1	21	n/a	n/a	1	50	0
1486.9974	1	10	n/a	n/a	1	50	1
1488.264	1	21	n/a	n/a	1	50	0
1489.1004	1	82	n/a	n/a	1	0	0
1489.3594	1	82	n/a	n/a	1	0	0
1489.7044	1	82	n/a	n/a	1	0	0
1489.9254	1	82	n/a	n/a	1	0	0
1490.0194	1	82	n/a	n/a	1	0	0
1490.1004	1	82	n/a	n/a	1	0	0
1490.1204	1	82	n/a	n/a	1	0	0
1490.4104	1	82	n/a	n/a	1	0	0
1490.7894	1	82	n/a	n/a	1	0	0
1490.8324	1	82	n/a	n/a	1	0	0
1492.0804	1	10	n/a	n/a	1	50	1
1493.1636	1	21	n/a	n/a	1	50	0
1494.247	1	10	n/a	n/a	1	50	1
1495.4968	1	10	n/a	n/a	1	50	2
1496.5802	1	10	n/a	n/a	1	50	3
1497.6968	1	10	n/a	n/a	1	50	4
1498.73	1	10	n/a	n/a	1	50	5
1499.7632	1	21	n/a	n/a	1	50	0
1501.0632	1	10	n/a	n/a	1	50	1
1502.3632	1	21	n/a	n/a	1	50	0
1503.5798	1	10	n/a	n/a	1	50	1
1504.6464	1	10	n/a	n/a	1	50	2
1505.8962	1	10	n/a	n/a	1	50	3
1507.1462	1	21	n/a	n/a	1	50	0
1508.2794	1	10	n/a	n/a	1	50	1
1509.446	1	10	n/a	n/a	1	50	2
1510.646	1	10	n/a	n/a	1	50	3
1511.8626	1	10	n/a	n/a	1	50	4
1513.1458	1	10	n/a	n/a	1	50	5
1514.429	1	21	n/a	n/a	1	50	0
1536.9318	1	82	n/a	n/a	1	0	0
1537.2158	1	82	n/a	n/a	1	0	0
1537.4548	1	82	n/a	n/a	1	0	0
1537.4938	1	82	n/a	n/a	1	0	0
1537.5818	1	82	n/a	n/a	1	0	0
1537.9318	1	82	n/a	n/a	1	0	0
1538.1048	1	82	n/a	n/a	1	0	0
1538.2558	1	82	n/a	n/a	1	0	0
1538.3818	1	82	n/a	n/a	1	0	0
1538.7358	1	82	n/a	n/a	1	0	0
1540.0276	1	10	n/a	n/a	1	52	1
1541.2942	1	10	n/a	n/a	1	52	2
1542.4108	1	10	n/a	n/a	1	52	3
1543.5108	1	10	n/a	n/a	1	52	4
1544.6606	1	10	n/a	n/a	1	52	5
1545.9272	1	10	n/a	n/a	1	52	6
1546.9938	1	10	n/a	n/a	1	52	7
1548.0604	1	21	n/a	n/a	1	52	0
1549.327	1	10	n/a	n/a	1	52	1
1550.5104	1	10	n/a	n/a	1	52	2
1551.7602	1	10	n/a	n/a	1	52	3
1553.0102	1	21	n/a	n/a	1	52	0
1554.1268	1	10	n/a	n/a	1	52	1
1555.2434	1	21	n/a	n/a	1	52	0
1556.36	1	10	n/a	n/a	1	52	1
1557.5932	1	10	n/a	n/a	1	52	2
1558.7266	1	10	n/a	n/a	1	52	3
1559.9764	1	10	n/a	n/a	1	52	4
1561.2264	1	10	n/a	n/a	1	52	5
1562.3762	1	10	n/a	n/a	1	52	6
1563.2768	1	82	n/a	n/a	1	0	0
1563.4158	1	82	n/a	n/a	1	0	0
1563.7698	1	82	n/a	n/a	1	0	0
1563.9558	1	82	n/a	n/a	1	0	0
1564.2328	1	82	n/a	n/a	1	0	0
1564.2768	1	82	n/a	n/a	1	0	0
1564.3788	1	82	n/a	n/a	1	0	0
1564.5578	1	82	n/a	n/a	1	0	0
1564.9348	1	82	n/a	n/a	1	0	0
1565.2018	1	82	n/a	n/a	1	0	0
1566.2428	1	10	n/a	n/a	1	52	1
1567.3094	1	10	n/a	n/a	1	52	2
1568.4926	1	10	n/a	n/a	1	52	3
1569.7258	1	10	n/a	n/a	1	52	4
1570.9424	1	10	n/a	n/a	1	52	5
1572.0758	1	10	n/a	n/a	1	52	6
1573.1424	1	10	n/a	n/a	1	52	7
1574.209	1	21	n/a	n/a	1	52	0
1575.3922	1	10	n/a	n/a	1	52	1
1576.6088	1	10	n/a	n/a	1	52	2
1577.742	1	10	n/a	n/a	1	52	3
1578.8754	1	21	n/a	n/a	1	52	0
1580.1752	1	10	n/a	n/a	1	52	1
1581.4752	1	21	n/a	n/a	1	52	0
1582.7084	1	10	n/a	n/a	1	52	1
1583.9416	1	21	n/a	n/a	1	52	0
1585.1582	1	10	n/a	n/a	1	52	1
1586.3082	1	10	n/a	n/a	1	52	2
1587.3914	1	10	n/a	n/a	1	52	3
1588.4248	1	10	n/a	n/a	1	52	4
1589.5002	1	82	n/a	n/a	1	0	0
1589.7652	1	82	n/a	n/a	1	0	0
1589.8682	1	82	n/a	n/a	1	0	0
1590.0062	1	82	n/a	n/a	1	0	0
1590.4172	1	82	n/a	n/a	1	0	0
1590.5002	1	82	n/a	n/a	1	0	0
1590.9022	1	82	n/a	n/a	1	0	0
1590.9232	1	82	n/a	n/a	1	0	0
1591.2702	1	82	n/a	n/a	1	0	0
1591.3582	1	82	n/a	n/a	1	0	0
1592.6746	1	10	n/a	n/a	1	52	1
1593.9412	1	10	n/a	n/a	1	52	2
1594.9744	1	10	n/a	n/a	1	52	3
1596.0076	1	21	n/a	n/a	1	52	0
1597.2576	1	10	n/a	n/a	1	52	1
1598.5076	1	21	n/a	n/a	1	52	0
1599.5408	1	10	n/a	n/a	1	52	1
1600.624	1	10	n/a	n/a	1	52	2
1601.7074	1	10	n/a	n/a	1	52	3
1602.9572	1	10	n/a	n/a	1	52	4
1604.1406	1	10	n/a	n/a	1	52	5
1605.3572	1	10	n/a	n/a	1	52	6
1606.5904	1	10	n/a	n/a	1	52	7
1607.8236	1	21	n/a	n/a	1	52	0
1609.1068	1	10	n/a	n/a	1	52	1
1610.2734	1	10	n/a	n/a	1	52	2
1611.3068	1	10	n/a	n/a	1	52	3
1612.5734	1	10	n/a	n/a	1	52	4
1613.8566	1	10	n/a	n/a	1	52	5
1615.1398	1	21	n/a	n/a	1	52	0
1615.9766	1	82	n/a	n/a	1	0	0
1616.1366	1	82	n/a	n/a	1	0	0
1616.2546	1	82	n/a	n/a	1	0	0
1616.4896	1	82	n/a	n/a	1	0	0
1616.8106	1	82	n/a	n/a	1	0	0
1616.9766	1	82	n/a	n/a	1	0	0
1617.1446	1	82	n/a	n/a	1	0	0
1617.5316	1	82	n/a	n/a	1	0	0
1617.7296	1	82	n/a	n/a	1	0	0
1617.8556	1	82	n/a	n/a	1	0	0
1619.023	1	10	n/a	n/a	1	52	1
1620.0896	1	10	n/a	n/a	1	52	2
1621.1396	1	10	n/a	n/a	1	52	3
1622.3062	1	10	n/a	n/a	1	52	4
1623.5728	1	10	n/a	n/a	1	52	5
1624.8394	1	21	n/a	n/a	1	52	0
1625.9392	1	10	n/a	n/a	1	52	1
1627.0392	1	10	n/a	n/a	1	52	2
1628.2058	1	10	n/a	n/a	1	52	3
1629.5056	1	10	n/a	n/a	1	52	4
1630.7056	1	10	n/a	n/a	1	52	5
1631.9056	1	21	n/a	n/a	1	52	0
1632.9388	1	10	n/a	n/a	1	52	1
1633.9722	1	21	n/a	n/a	1	52	0
1635.1386	1	10	n/a	n/a	1	52	1
1636.3052	1	21	n/a	n/a	1	52	0
1637.372	1	10	n/a	n/a	1	52	1
1638.5718	1	10	n/a	n/a	1	52	2
1639.705	1	10	n/a	n/a	1	52	3
1640.8384	1	21	n/a	n/a	1	52	0
1641.568	1	82	n/a	n/a	1	0	0
1641.723	1	82	n/a	n/a	1	0	0
1641.786	1	82	n/a	n/a	1	0	0
1641.878	1	82	n/a	n/a	1	0	0
1641.906	1	82	n/a	n/a	1	0	0
1642.5682	1	82	n/a	n/a	1	0	0
1642.6722	1	82	n/a	n/a	1	0	0
1643.096	1	82	n/a	n/a	1	0	0
1643.128	1	82	n/a	n/a	1	0	0
1643.448	1	82	n/a	n/a	1	0	0
1644.4882	1	10	n/a	n/a	1	52	1
1645.6214	1	10	n/a	n/a	1	52	2
1646.7046	1	10	n/a	n/a	1	52	3
1647.8212	1	10	n/a	n/a	1	52	4
1648.9546	1	10	n/a	n/a	1	52	5
1650.0878	1	21	n/a	n/a	1	52	0
1651.221	1	10	n/a	n/a	1	52	1
1652.3544	1	21	n/a	n/a	1	52	0
1653.671	1	10	n/a	n/a	1	52	1
1654.8208	1	10	n/a	n/a	1	52	2
1655.8542	1	10	n/a	n/a	1	52	3
1657.104	1	10	n/a	n/a	1	52	4
1658.1874	1	10	n/a	n/a	1	52	5
1659.3206	1	10	n/a	n/a	1	52	6
1660.3706	1	10	n/a	n/a	1	52	7
1661.4204	1	21	n/a	n/a	1	52	0
1662.5704	1	10	n/a	n/a	1	52	1
1663.8704	1	10	n/a	n/a	1	52	2
1665.0036	1	10	n/a	n/a	1	52	3
1666.1702	1	10	n/a	n/a	1	52	4
1728.669	1	81	n/a	n/a	1	0	0
1728.869	1	81	n/a	n/a	1	0	0
1729.069	1	81	n/a	n/a	1	0	0
1729.269	1	81	n/a	n/a	1	0	0
1729.469	1	81	n/a	n/a	1	0	0
1729.669	1	81	n/a	n/a	1	0	0
1729.869	1	81	n/a	n/a	1	0	0
1730.069	1	81	n/a	n/a	1	0	0
1730.269	1	81	n/a	n/a	1	0	0
1730.469	1	81	n/a	n/a	1	0	0
1731.8496	1	10	n/a	n/a	1	51	1
1733.0164	1	10	n/a	n/a	1	51	2
1734.2496	1	10	n/a	n/a	1	51	3
1735.4328	1	10	n/a	n/a	1	51	4
1736.6328	1	10	n/a	n/a	1	51	5
1737.8326	1	21	n/a	n/a	1	51	0
1738.8992	1	10	n/a	n/a	1	51	1
1740.1326	1	10	n/a	n/a	1	51	2
1741.1824	1	10	n/a	n/a	1	51	3
1742.4324	1	10	n/a	n/a	1	51	4
1743.4824	1	10	n/a	n/a	1	51	5
1744.5322	1	21	n/a	n/a	1	51	0
1745.7656	1	10	n/a	n/a	1	51	1
1746.8488	1	10	n/a	n/a	1	51	2
1748.0988	1	10	n/a	n/a	1	51	3
1749.2154	1	10	n/a	n/a	1	51	4
1750.5152	1	10	n/a	n/a	1	51	5
1751.8152	1	21	n/a	n/a	1	51	0
1752.9984	1	10	n/a	n/a	1	51	1
1754.0818	1	10	n/a	n/a	1	51	2
1754.8682	1	81	n/a	n/a	1	0	0
1755.0682	1	81	n/a	n/a	1	0	0
1755.2682	1	81	n/a	n/a	1	0	0
1755.4682	1	81	n/a	n/a	1	0	0
1755.6682	1	81	n/a	n/a	1	0	0
1755.8682	1	81	n/a	n/a	1	0	0
1756.0682	1	81	n/a	n/a	1	0	0
1756.2682	1	81	n/a	n/a	1	0	0
1756.4682	1	81	n/a	n/a	1	0	0
1756.6682	1	81	n/a	n/a	1	0	0
1757.7982	1	10	n/a	n/a	1	51	1
1758.8314	1	21	n/a	n/a	1	51	0
1759.9148	1	10	n/a	n/a	1	51	1
1761.198	1	10	n/a	n/a	1	51	2
1762.2812	1	10	n/a	n/a	1	51	3
1763.3646	1	21	n/a	n/a	1	51	0
1764.4144	1	10	n/a	n/a	1	51	1
1765.5644	1	10	n/a	n/a	1	51	2
1766.631	1	10	n/a	n/a	1	51	3
1767.931	1	10	n/a	n/a	1	51	4
1769.0476	1	10	n/a	n/a	1	51	5
1770.1642	1	10	n/a	n/a	1	51	6
1771.414	1	10	n/a	n/a	1	51	7
1772.664	1	21	n/a	n/a	1	51	0
1773.9638	1	10	n/a	n/a	1	51	1
1775.0638	1	10	n/a	n/a	1	51	2
1776.1472	1	10	n/a	n/a	1	51	3
1777.197	1	10	n/a	n/a	1	51	4
1778.3304	1	10	n/a	n/a	1	51	5
1779.4636	1	10	n/a	n/a	1	51	6
1780.257	1	81	n/a	n/a	1	0	0
1780.457	1	81	n/a	n/a	1	0	0
1780.657	1	81	n/a	n/a	1	0	0
1780.857	1	81	n/a	n/a	1	0	0
1781.057	1	81	n/a	n/a	1	0	0
1781.257	1	81	n/a	n/a	1	0	0
1781.457	1	81	n/a	n/a	1	0	0
1781.657	1	81	n/a	n/a	1	0	0
1781.857	1	81	n/a	n/a	1	0	0
1782.057	1	81	n/a	n/a	1	0	0
1783.2634	1	10	n/a	n/a	1	51	1
1784.5132	1	10	n/a	n/a	1	51	2
1785.7466	1	10	n/a	n/a	1	51	3
1786.8798	1	10	n/a	n/a	1	51	4
1787.963	1	10	n/a	n/a	1	51	5
1789.2464	1	10	n/a	n/a	1	51	6
1790.563	1	10	n/a	n/a	1	51	7
1791.8796	1	21	n/a	n/a	1	51	0
1792.9794	1	10	n/a	n/a	1	51	1
1794.0794	1	21	n/a	n/a	1	51	0
1795.1626	1	10	n/a	n/a	1	51	1
1796.246	1	21	n/a	n/a	1	51	0
1797.4292	1	10	n/a	n/a	1	51	1
1798.5124	1	10	n/a	n/a	1	51	2
1799.5458	1	10	n/a	n/a	1	51	3
1800.829	1	10	n/a	n/a	1	51	4
1802.0122	1	10	n/a	n/a	1	51	5
1803.1788	1	10	n/a	n/a	1	51	6
1804.2788	1	10	n/a	n/a	1	51	7
1805.3788	1	21	n/a	n/a	1	51	0
1806.1874	1	81	n/a	n/a	1	0	0
1806.3874	1	81	n/a	n/a	1	0	0
1806.5874	1	81	n/a	n/a	1	0	0
1806.7874	1	81	n/a	n/a	1	0	0
1806.9874	1	81	n/a	n/a	1	0	0
1807.1874	1	81	n/a	n/a	1	0	0
1807.3874	1	81	n/a	n/a	1	0	0
1807.5874	1	81	n/a	n/a	1	0	0
1807.7874	1	81	n/a	n/a	1	0	0
1807.9874	1	81	n/a	n/a	1	0	0
1809.3118	1	10	n/a	n/a	1	51	1
1810.3452	1	10	n/a	n/a	1	51	2
1811.395	1	10	n/a	n/a	1	51	3
1812.445	1	21	n/a	n/a	1	51	0
1813.7616	1	10	n/a	n/a	1	51	1
1815.0782	1	21	n/a	n/a	1	51	0
1816.3614	1	10	n/a	n/a	1	51	1
1817.5446	1	10	n/a	n/a	1	51	2
1818.778	1	10	n/a	n/a	1	51	3
1820.0778	1	10	n/a	n/a	1	51	4
1821.2444	1	10	n/a	n/a	1	51	5
1822.411	1	21	n/a	n/a	1	51	0
1823.511	1	10	n/a	n/a	1	51	1
1824.5442	1	10	n/a	n/a	1	51	2
1825.6608	1	10	n/a	n/a	1	51	3
1826.8608	1	10	n/a	n/a	1	51	4
1828.0108	1	10	n/a	n/a	1	51	5
1829.0606	1	10	n/a	n/a	1	51	6
1830.2772	1	10	n/a	n/a	1	51	7
1831.4938	1	21	n/a	n/a	1	51	0
1832.2496	1	81	n/a	n/a	1	0	0
1832.4496	1	81	n/a	n/a	1	0	0
1832.6496	1	81	n/a	n/a	1	0	0
1832.8496	1	81	n/a	n/a	1	0	0
1833.0496	1	81	n/a	n/a	1	0	0
1833.2496	1	81	n/a	n/a	1	0	0
1833.4496	1	81	n/a	n/a	1	0	0
1833.6496	1	81	n/a	n/a	1	0	0
1833.8496	1	81	n/a	n/a	1	0	0
1834.0496	1	81	n/a	n/a	1	0	0
1835.2436	1	10	n/a	n/a	1	51	1
1836.527	1	10	n/a	n/a	1	51	2
1837.5936	1	10	n/a	n/a	1	51	3
1838.7768	1	10	n/a	n/a	1	51	4
1840.0434	1	10	n/a	n/a	1	51	5
1841.31	1	10	n/a	n/a	1	51	6
1842.3598	1	10	n/a	n/a	1	51	7
1843.4098	1	21	n/a	n/a	1	51	0
1844.5098	1	10	n/a	n/a	1	51	1
1845.693	1	10	n/a	n/a	1	51	2
1846.7596	1	10	n/a	n/a	1	51	3
1848.0762	1	10	n/a	n/a	1	51	4
1849.1262	1	10	n/a	n/a	1	51	5
1850.176	1	21	n/a	n/a	1	51	0
1851.2094	1	10	n/a	n/a	1	51	1
1852.2426	1	21	n/a	n/a	1	51	0
1853.376	1	10	n/a	n/a	1	51	1
1854.5758	1	10	n/a	n/a	1	51	2
1855.8092	1	10	n/a	n/a	1	51	3
1857.109	1	10	n/a	n/a	1	51	4
1866.9688	1	82	n/a	n/a	1	0	0
1867.0628	1	82	n/a	n/a	1	0	0
1867.5018	1	82	n/a	n/a	1	0	0
1867.8728	1	82	n/a	n/a	1	0	0
1867.9358	1	82	n/a	n/a	1	0	0
1867.9688	1	82	n/a	n/a	1	0	0
1868.0568	1	82	n/a	n/a	1	0	0
1868.0778	1	82	n/a	n/a	1	0	0
1868.2308	1	82	n/a	n/a	1	0	0
1868.5828	1	82	n/a	n/a	1	0	0
1870.025	1	10	n/a	n/a	1	50	1
1871.0916	1	10	n/a	n/a	1	50	2
1872.2414	1	10	n/a	n/a	1	50	3
1873.408	1	10	n/a	n/a	1	50	4
1874.4746	1	10	n/a	n/a	1	50	5
1875.5412	1	21	n/a	n/a	1	50	0
1876.7246	1	10	n/a	n/a	1	50	1
1877.9912	1	10	n/a	n/a	1	50	2
1879.2578	1	10	n/a	n/a	1	50	3
1880.5244	1	21	n/a	n/a	1	50	0
1881.5576	1	10	n/a	n/a	1	50	1
1882.5908	1	21	n/a	n/a	1	50	0
1883.8908	1	10	n/a	n/a	1	50	1
1885.074	1	10	n/a	n/a	1	50	2
1886.3406	1	10	n/a	n/a	1	50	3
1887.6072	1	21	n/a	n/a	1	50	0
1888.6406	1	10	n/a	n/a	1	50	1
1889.6738	1	21	n/a	n/a	1	50	0
1890.907	1	10	n/a	n/a	1	50	1
1892.157	1	10	n/a	n/a	1	50	2
1892.9484	1	82	n/a	n/a	1	0	0
1893.3314	1	82	n/a	n/a	1	0	0
1893.5934	1	82	n/a	n/a	1	0	0
1893.7224	1	82	n/a	n/a	1	0	0
1893.8794	1	82	n/a	n/a	1	0	0
1893.9484	1	82	n/a	n/a	1	0	0
1894.0084	1	82	n/a	n/a	1	0	0
1894.4484	1	82	n/a	n/a	1	0	0
1894.7784	1	82	n/a	n/a	1	0	0
1894.8104	1	82	n/a	n/a	1	0	0
1896.09	1	10	n/a	n/a	1	50	1
1897.1566	1	10	n/a	n/a	1	50	2
1898.3732	1	10	n/a	n/a	1	50	3
1899.6566	1	10	n/a	n/a	1	50	4
1900.7898	1	10	n/a	n/a	1	50	5
1901.923	1	21	n/a	n/a	1	50	0
1903.2064	1	10	n/a	n/a	1	50	1
1904.4896	1	21	n/a	n/a	1	50	0
1905.7896	1	10	n/a	n/a	1	50	1
1907.0228	1	10	n/a	n/a	1	50	2
1908.2394	1	10	n/a	n/a	1	50	3
1909.3892	1	10	n/a	n/a	1	50	4
1910.5226	1	10	n/a	n/a	1	50	5
1911.6558	1	21	n/a	n/a	1	50	0
1912.8724	1	10	n/a	n/a	1	50	1
1914.189	1	10	n/a	n/a	1	50	2
1915.289	1	10	n/a	n/a	1	50	3
1916.5056	1	10	n/a	n/a	1	50	4
1917.8222	1	10	n/a	n/a	1	50	5
1919.0054	1	10	n/a	n/a	1	50	6
1919.7418	1	82	n/a	n/a	1	0	0
1919.7738	1	82	n/a	n/a	1	0	0
1920.0398	1	82	n/a	n/a	1	0	0
1920.3468	1	82	n/a	n/a	1	0	0
1920.4928	1	82	n/a	n/a	1	0	0
1920.7418	1	82	n/a	n/a	1	0	0
1921.1658	1	82	n/a	n/a	1	0	0
1921.2568	1	82	n/a	n/a	1	0	0
1921.4048	1	82	n/a	n/a	1	0	0
1921.7028	1	82	n/a	n/a	1	0	0
1922.9552	1	10	n/a	n/a	1	50	1
1924.2218	1	10	n/a	n/a	1	50	2
1925.2884	1	10	n/a	n/a	1	50	3
1926.5216	1	10	n/a	n/a	1	50	4
1927.5716	1	10	n/a	n/a	1	50	5
1928.6214	1	21	n/a	n/a	1	50	0
1929.7048	1	10	n/a	n/a	1	50	1
1930.788	1	21	n/a	n/a	1	50	0
1932.0546	1	10	n/a	n/a	1	50	1
1933.138	1	10	n/a	n/a	1	50	2
1934.3212	1	10	n/a	n/a	1	50	3
1935.5378	1	10	n/a	n/a	1	50	4
1936.7876	1	10	n/a	n/a	1	50	5
1937.9042	1	10	n/a	n/a	1	50	6
1939.0708	1	10	n/a	n/a	1	50	7
1940.2374	1	21	n/a	n/a	1	50	0
1941.4874	1	10	n/a	n/a	1	50	1
1942.7374	1	21	n/a	n/a	1	50	0
1943.9872	1	10	n/a	n/a	1	50	1
1945.1706	1	10	n/a	n/a	1	50	2
1946.031	1	82	n/a	n/a	1	0	0
1946.15	1	82	n/a	n/a	1	0	0
1946.457	1	82	n/a	n/a	1	0	0
1946.53	1	82	n/a	n/a	1	0	0
1946.578	1	82	n/a	n/a	1	0	0
1947.031	1	82	n/a	n/a	1	0	0
1947.185	1	82	n/a	n/a	1	0	0
1947.565	1	82	n/a	n/a	1	0	0
1947.746	1	82	n/a	n/a	1	0	0
1947.773	1	82	n/a	n/a	1	0	0
1949.1704	1	10	n/a	n/a	1	50	1
1950.3202	1	10	n/a	n/a	1	50	2
1951.4702	1	10	n/a	n/a	1	50	3
1952.62	1	21	n/a	n/a	1	50	0
1953.77	1	10	n/a	n/a	1	50	1
1954.8532	1	10	n/a	n/a	1	50	2
1955.9866	1	10	n/a	n/a	1	50	3
1957.1198	1	21	n/a	n/a	1	50	0
1958.3364	1	10	n/a	n/a	1	50	1
1959.403	1	10	n/a	n/a	1	50	2
1960.553	1	10	n/a	n/a	1	50	3
1961.8528	1	10	n/a	n/a	1	50	4
1962.9362	1	10	n/a	n/a	1	50	5
1964.0194	1	21	n/a	n/a	1	50	0
1965.286	1	10	n/a	n/a	1	50	1
1966.6026	1	10	n/a	n/a	1	50	2
1967.7358	1	10	n/a	n/a	1	50	3
1968.8692	1	21	n/a	n/a	1	50	0
1970.0858	1	10	n/a	n/a	1	50	1
1971.319	1	10	n/a	n/a	1	50	2
1972.3164	1	82	n/a	n/a	1	0	0
1972.3864	1	82	n/a	n/a	1	0	0
1972.6104	1	82	n/a	n/a	1	0	0
1972.8964	1	82	n/a	n/a	1	0	0
1972.9184	1	82	n/a	n/a	1	0	0
1973.3164	1	82	n/a	n/a	1	0	0
1973.6814	1	82	n/a	n/a	1	0	0
1973.8454	1	82	n/a	n/a	1	0	0
1974.1584	1	82	n/a	n/a	1	0	0
1974.2854	1	82	n/a	n/a	1	0	0
1975.502	1	10	n/a	n/a	1	50	1
1976.802	1	21	n/a	n/a	1	50	0
1978.102	1	10	n/a	n/a	1	50	1
1979.4186	1	21	n/a	n/a	1	50	0
1980.6684	1	10	n/a	n/a	1	50	1
1981.7184	1	10	n/a	n/a	1	50	2
1983.0016	1	10	n/a	n/a	1	50	3
1984.1682	1	10	n/a	n/a	1	50	4
1985.2848	1	10	n/a	n/a	1	50	5
1986.5014	1	10	n/a	n/a	1	50	6
1987.618	1	10	n/a	n/a	1	50	7
1988.7346	1	21	n/a	n/a	1	50	0
1990.0346	1	10	n/a	n/a	1	50	1
1991.0846	1	10	n/a	n/a	1	50	2
1992.3344	1	10	n/a	n/a	1	50	3
1993.401	1	10	n/a	n/a	1	50	4
1994.4844	1	10	n/a	n/a	1	50	5
1995.5676	1	21	n/a	n/a	1	50	0
1996.6508	1	10	n/a	n/a	1	50	1
1997.9342	1	10	n/a	n/a	1	50	2
2024.0314	1	82	n/a	n/a	1	0	0
2024.4084	1	82	n/a	n/a	1	0	0
2024.5034	1	82	n/a	n/a	1	0	0
2024.6844	1	82	n/a	n/a	1	0	0
2024.9284	1	82	n/a	n/a	1	0	0
2025.0314	1	82	n/a	n/a	1	0	0
2025.1124	1	82	n/a	n/a	1	0	0
2025.1714	1	82	n/a	n/a	1	0	0
2025.5584	1	82	n/a	n/a	1	0	0
2025.9174	1	82	n/a	n/a	1	0	0
2026.949	1	10	n/a	n/a	1	52	1
2028.149	1	10	n/a	n/a	1	52	2
2029.1822	1	10	n/a	n/a	1	52	3
2030.2322	1	10	n/a	n/a	1	52	4
2031.3322	1	10	n/a	n/a	1	52	5
2032.432	1	21	n/a	n/a	1	52	0
2033.7154	1	10	n/a	n/a	1	52	1
2034.9986	1	10	n/a	n/a	1	52	2
2036.2652	1	10	n/a	n/a	1	52	3
2037.4318	1	10	n/a	n/a	1	52	4
2038.565	1	10	n/a	n/a	1	52	5
2039.6984	1	21	n/a	n/a	1	52	0
2040.7482	1	10	n/a	n/a	1	52	1
2041.8982	1	10	n/a	n/a	1	52	2
2043.1982	1	10	n/a	n/a	1	52	3
2044.498	1	21	n/a	n/a	1	52	0
2045.8146	1	10	n/a	n/a	1	52	1
2046.948	1	10	n/a	n/a	1	52	2
2048.1978	1	10	n/a	n/a	1	52	3
2049.4478	1	21	n/a	n/a	1	52	0
2050.2174	1	82	n/a	n/a	1	0	0
2050.2844	1	82	n/a	n/a	1	0	0
2050.4234	1	82	n/a	n/a	1	0	0
2050.6064	1	82	n/a	n/a	1	0	0
2050.6314	1	82	n/a	n/a	1	0	0
2051.2174	1	82	n/a	n/a	1	0	0
2051.3644	1	82	n/a	n/a	1	0	0
2051.6454	1	82	n/a	n/a	1	0	0
2051.6754	1	82	n/a	n/a	1	0	0
2052.0334	1	82	n/a	n/a	1	0	0
2053.2142	1	10	n/a	n/a	1	52	1
2054.4474	1	10	n/a	n/a	1	52	2
2055.5308	1	10	n/a	n/a	1	52	3
2056.614	1	21	n/a	n/a	1	52	0
2057.8472	1	10	n/a	n/a	1	52	1
2059.0806	1	21	n/a	n/a	1	52	0
2060.1638	1	10	n/a	n/a	1	52	1
2061.2638	1	10	n/a	n/a	1	52	2
2062.447	1	10	n/a	n/a	1	52	3
2063.5136	1	10	n/a	n/a	1	52	4
2064.6136	1	10	n/a	n/a	1	52	5
2065.7302	1	10	n/a	n/a	1	52	6
2066.7968	1	10	n/a	n/a	1	52	7
2067.8634	1	21	n/a	n/a	1	52	0
2069.1466	1	10	n/a	n/a	1	52	1
2070.2466	1	10	n/a	n/a	1	52	2
2071.3298	1	10	n/a	n/a	1	52	3
2072.5798	1	10	n/a	n/a	1	52	4
2073.6296	1	10	n/a	n/a	1	52	5
2074.6796	1	21	n/a	n/a	1	52	0
2075.5824	1	82	n/a	n/a	1	0	0
2075.8524	1	82	n/a	n/a	1	0	0
2075.9924	1	82	n/a	n/a	1	0	0
2076.3924	1	82	n/a	n/a	1	0	0
2076.4654	1	82	n/a	n/a	1	0	0
2076.5824	1	82	n/a	n/a	1	0	0
2076.6604	1	82	n/a	n/a	1	0	0
2077.0054	1	82	n/a	n/a	1	0	0
2077.1054	1	82	n/a	n/a	1	0	0
2077.4724	1	82	n/a	n/a	1	0	0
2078.746	1	10	n/a	n/a	1	52	1
2080.0126	1	21	n/a	n/a	1	52	0
2081.0792	1	10	n/a	n/a	1	52	1
2082.1458	1	21	n/a	n/a	1	52	0
2083.2792	1	10	n/a	n/a	1	52	1
2084.4624	1	10	n/a	n/a	1	52	2
2085.729	1	10	n/a	n/a	1	52	3
2086.9956	1	21	n/a	n/a	1	52	0
2088.1288	1	10	n/a	n/a	1	52	1
2089.262	1	21	n/a	n/a	1	52	0
2090.3954	1	10	n/a	n/a	1	52	1
2091.4452	1	10	n/a	n/a	1	52	2
2092.5118	1	10	n/a	n/a	1	52	3
2093.5786	1	21	n/a	n/a	1	52	0
2094.6118	1	10	n/a	n/a	1	52	1
2095.7284	1	10	n/a	n/a	1	52	2
2096.995	1	10	n/a	n/a	1	52	3
2098.0282	1	10	n/a	n/a	1	52	4
2099.3116	1	10	n/a	n/a	1	52	5
2100.578	1	10	n/a	n/a	1	52	6
2101.3656	1	82	n/a	n/a	1	0	0
2101.6706	1	82	n/a	n/a	1	0	0
2101.7376	1	82	n/a	n/a	1	0	0
2101.9186	1	82	n/a	n/a	1	0	0
2102.1846	1	82	n/a	n/a	1	0	0
2102.3656	1	82	n/a	n/a	1	0	0
2102.6016	1	82	n/a	n/a	1	0	0
2102.6586	1	82	n/a	n/a	1	0	0
2102.9226	1	82	n/a	n/a	1	0	0
2103.2136	1	82	n/a	n/a	1	0	0
2104.4446	1	10	n/a	n/a	1	52	1
2105.6278	1	21	n/a	n/a	1	52	0
2106.6944	1	10	n/a	n/a	1	52	1
2107.7276	1	10	n/a	n/a	1	52	2
2108.8442	1	10	n/a	n/a	1	52	3
2110.0108	1	10	n/a	n/a	1	52	4
2111.2608	1	10	n/a	n/a	1	52	5
2112.5108	1	21	n/a	n/a	1	52	0
2113.7106	1	10	n/a	n/a	1	52	1
2114.744	1	10	n/a	n/a	1	52	2
2115.9438	1	10	n/a	n/a	1	52	3
2117.1272	1	10	n/a	n/a	1	52	4
2118.4604	1	10	n/a	n/a	1	52	5
2119.7604	1	21	n/a	n/a	1	52	0
2120.9436	1	10	n/a	n/a	1	52	1
2122.2768	1	10	n/a	n/a	1	52	2
2123.5268	1	10	n/a	n/a	1	52	3
2124.7766	1	21	n/a	n/a	1	52	0
2125.81	1	10	n/a	n/a	1	52	1
2126.8432	1	21	n/a	n/a	1	52	0
2127.781	1	82	n/a	n/a	1	0	0
2127.801	1	82	n/a	n/a	1	0	0
2127.97	1	82	n/a	n/a	1	0	0
2128.348	1	82	n/a	n/a	1	0	0
2128.696	1	82	n/a	n/a	1	0	0
2128.781	1	82	n/a	n/a	1	0	0
2128.874	1	82	n/a	n/a	1	0	0
2129.231	1	82	n/a	n/a	1	0	0
2129.288	1	82	n/a	n/a	1	0	0
2129.588	1	82	n/a	n/a	1	0	0
2130.943	1	10	n/a	n/a	1	52	1
2132.2096	1	10	n/a	n/a	1	52	2
2133.3596	1	10	n/a	n/a	1	52	3
2134.4094	1	10	n/a	n/a	1	52	4
2135.576	1	10	n/a	n/a	1	52	5
2136.7426	1	21	n/a	n/a	1	52	0
2137.9426	1	10	n/a	n/a	1	52	1
2139.0758	1	10	n/a	n/a	1	52	2
2140.359	1	10	n/a	n/a	1	52	3
2141.6424	1	21	n/a	n/a	1	52	0
2142.809	1	10	n/a	n/a	1	52	1
2143.9756	1	21	n/a	n/a	1	52	0
2145.0754	1	10	n/a	n/a	1	52	1
2146.1754	1	21	n/a	n/a	1	52	0
2147.3754	1	10	n/a	n/a	1	52	1
2148.5752	1	21	n/a	n/a	1	52	0
2149.7252	1	10	n/a	n/a	1	52	1
2150.9252	1	10	n/a	n/a	1	52	2
2152.2084	1	10	n/a	n/a	1	52	3
2153.3084	1	10	n/a	n/a	1	52	4
