onset	duration	value	response	rt	good	TMS	seq
74.2822	1	82	n/a	n/a	1	0	0
74.3832	1	82	n/a	n/a	1	0	0
74.4242	1	82	n/a	n/a	1	0	0
74.6782	1	82	n/a	n/a	1	0	0
74.8172	1	82	n/a	n/a	1	0	0
75.2822	1	82	n/a	n/a	1	0	0
75.5152	1	82	n/a	n/a	1	0	0
75.5432	1	82	n/a	n/a	1	0	0
75.8702	1	82	n/a	n/a	1	0	0
76.0032	1	82	n/a	n/a	1	0	0
77.4608	1	10	n/a	n/a	1	52	1
78.6274	1	10	n/a	n/a	1	52	2
79.8608	1	10	n/a	n/a	1	52	3
81.094	1	21	n/a	n/a	1	52	0
82.3272	1	10	n/a	n/a	1	52	1
83.5272	1	10	n/a	n/a	1	52	2
84.5772	1	10	n/a	n/a	1	52	3
85.627	1	21	n/a	n/a	1	52	0
86.7104	1	10	n/a	n/a	1	52	1
87.8436	1	10	n/a	n/a	1	52	2
89.1268	1	10	n/a	n/a	1	52	3
90.4102	1	21	n/a	n/a	1	52	0
91.6268	1	10	n/a	n/a	1	52	1
92.6934	1	10	n/a	n/a	1	52	2
93.7766	1	10	n/a	n/a	1	52	3
94.8598	1	21	n/a	n/a	1	52	0
95.9764	1	10	n/a	n/a	1	52	1
97.2764	1	10	n/a	n/a	1	52	2
98.443	1	10	n/a	n/a	1	52	3
99.5096	1	10	n/a	n/a	1	52	4
100.561	1	82	n/a	n/a	1	0	0
100.593	1	82	n/a	n/a	1	0	0
101.018	1	82	n/a	n/a	1	0	0
101.087	1	82	n/a	n/a	1	0	0
101.491	1	82	n/a	n/a	1	0	0
101.561	1	82	n/a	n/a	1	0	0
101.997	1	82	n/a	n/a	1	0	0
102.328	1	82	n/a	n/a	1	0	0
102.458	1	82	n/a	n/a	1	0	0
102.53	1	82	n/a	n/a	1	0	0
103.6426	1	10	n/a	n/a	1	52	1
104.8592	1	10	n/a	n/a	1	52	2
106.0758	1	10	n/a	n/a	1	52	3
107.3592	1	10	n/a	n/a	1	52	4
108.6756	1	10	n/a	n/a	1	52	5
109.9922	1	21	n/a	n/a	1	52	0
111.2588	1	10	n/a	n/a	1	52	1
112.5254	1	21	n/a	n/a	1	52	0
113.7088	1	10	n/a	n/a	1	52	1
114.792	1	10	n/a	n/a	1	52	2
115.892	1	10	n/a	n/a	1	52	3
116.9752	1	10	n/a	n/a	1	52	4
118.2252	1	10	n/a	n/a	1	52	5
119.3418	1	10	n/a	n/a	1	52	6
120.6084	1	10	n/a	n/a	1	52	7
121.875	1	21	n/a	n/a	1	52	0
123.0082	1	10	n/a	n/a	1	52	1
124.0414	1	10	n/a	n/a	1	52	2
125.1748	1	10	n/a	n/a	1	52	3
126.4414	1	10	n/a	n/a	1	52	4
127.2118	1	82	n/a	n/a	1	0	0
127.4838	1	82	n/a	n/a	1	0	0
127.8138	1	82	n/a	n/a	1	0	0
127.8388	1	82	n/a	n/a	1	0	0
128.0748	1	82	n/a	n/a	1	0	0
128.2118	1	82	n/a	n/a	1	0	0
128.3548	1	82	n/a	n/a	1	0	0
128.4438	1	82	n/a	n/a	1	0	0
128.7878	1	82	n/a	n/a	1	0	0
129.0398	1	82	n/a	n/a	1	0	0
130.4244	1	10	n/a	n/a	1	52	1
131.741	1	10	n/a	n/a	1	52	2
132.8242	1	10	n/a	n/a	1	52	3
133.9076	1	21	n/a	n/a	1	52	0
134.9408	1	10	n/a	n/a	1	52	1
135.9908	1	21	n/a	n/a	1	52	0
137.2074	1	10	n/a	n/a	1	52	1
138.324	1	10	n/a	n/a	1	52	2
139.4072	1	10	n/a	n/a	1	52	3
140.5072	1	10	n/a	n/a	1	52	4
141.657	1	10	n/a	n/a	1	52	5
142.807	1	21	n/a	n/a	1	52	0
144.107	1	10	n/a	n/a	1	52	1
145.3736	1	10	n/a	n/a	1	52	2
146.4734	1	10	n/a	n/a	1	52	3
147.5734	1	21	n/a	n/a	1	52	0
148.69	1	10	n/a	n/a	1	52	1
149.9566	1	10	n/a	n/a	1	52	2
151.2566	1	10	n/a	n/a	1	52	3
152.4898	1	10	n/a	n/a	1	52	4
153.3234	1	82	n/a	n/a	1	0	0
153.6074	1	82	n/a	n/a	1	0	0
153.7354	1	82	n/a	n/a	1	0	0
154.1424	1	82	n/a	n/a	1	0	0
154.1704	1	82	n/a	n/a	1	0	0
154.3234	1	82	n/a	n/a	1	0	0
154.4014	1	82	n/a	n/a	1	0	0
154.6694	1	82	n/a	n/a	1	0	0
155.0304	1	82	n/a	n/a	1	0	0
155.1934	1	82	n/a	n/a	1	0	0
156.3728	1	10	n/a	n/a	1	52	1
157.4894	1	10	n/a	n/a	1	52	2
158.606	1	10	n/a	n/a	1	52	3
159.7226	1	10	n/a	n/a	1	52	4
160.9892	1	10	n/a	n/a	1	52	5
162.2226	1	10	n/a	n/a	1	52	6
163.3892	1	10	n/a	n/a	1	52	7
164.5558	1	21	n/a	n/a	1	52	0
165.6056	1	10	n/a	n/a	1	52	1
166.7722	1	10	n/a	n/a	1	52	2
167.8388	1	10	n/a	n/a	1	52	3
169.1054	1	10	n/a	n/a	1	52	4
170.2888	1	10	n/a	n/a	1	52	5
171.472	1	21	n/a	n/a	1	52	0
172.5386	1	10	n/a	n/a	1	52	1
173.8218	1	10	n/a	n/a	1	52	2
175.0052	1	10	n/a	n/a	1	52	3
176.055	1	10	n/a	n/a	1	52	4
177.2884	1	10	n/a	n/a	1	52	5
178.5882	1	10	n/a	n/a	1	52	6
179.6368	1	82	n/a	n/a	1	0	0
179.7146	1	82	n/a	n/a	1	0	0
180.1016	1	82	n/a	n/a	1	0	0
180.3566	1	82	n/a	n/a	1	0	0
180.4576	1	82	n/a	n/a	1	0	0
180.6368	1	82	n/a	n/a	1	0	0
181.0738	1	82	n/a	n/a	1	0	0
181.1386	1	82	n/a	n/a	1	0	0
181.3616	1	82	n/a	n/a	1	0	0
181.4666	1	82	n/a	n/a	1	0	0
182.8214	1	10	n/a	n/a	1	52	1
184.0378	1	10	n/a	n/a	1	52	2
185.0878	1	10	n/a	n/a	1	52	3
186.1378	1	21	n/a	n/a	1	52	0
187.4044	1	10	n/a	n/a	1	52	1
188.4376	1	10	n/a	n/a	1	52	2
189.7208	1	10	n/a	n/a	1	52	3
191.0208	1	10	n/a	n/a	1	52	4
192.1208	1	10	n/a	n/a	1	52	5
193.254	1	10	n/a	n/a	1	52	6
194.2872	1	10	n/a	n/a	1	52	7
195.3206	1	21	n/a	n/a	1	52	0
196.5872	1	10	n/a	n/a	1	52	1
197.7538	1	10	n/a	n/a	1	52	2
199.0036	1	10	n/a	n/a	1	52	3
200.2536	1	21	n/a	n/a	1	52	0
201.3368	1	10	n/a	n/a	1	52	1
202.4202	1	10	n/a	n/a	1	52	2
203.5368	1	10	n/a	n/a	1	52	3
204.6534	1	10	n/a	n/a	1	52	4
227.2554	1	81	n/a	n/a	1	0	0
227.4554	1	81	n/a	n/a	1	0	0
227.6554	1	81	n/a	n/a	1	0	0
227.8554	1	81	n/a	n/a	1	0	0
228.0554	1	81	n/a	n/a	1	0	0
228.2554	1	81	n/a	n/a	1	0	0
228.4554	1	81	n/a	n/a	1	0	0
228.6554	1	81	n/a	n/a	1	0	0
228.8554	1	81	n/a	n/a	1	0	0
229.0554	1	81	n/a	n/a	1	0	0
230.4518	1	10	n/a	n/a	1	50	1
231.735	1	10	n/a	n/a	1	50	2
232.785	1	10	n/a	n/a	1	50	3
234.1016	1	10	n/a	n/a	1	50	4
235.3016	1	10	n/a	n/a	1	50	5
236.5848	1	10	n/a	n/a	1	50	6
237.718	1	10	n/a	n/a	1	50	7
238.8514	1	21	n/a	n/a	1	50	0
239.8846	1	10	n/a	n/a	1	50	1
240.9512	1	10	n/a	n/a	1	50	2
241.9844	1	10	n/a	n/a	1	50	3
243.0178	1	21	n/a	n/a	1	50	0
244.2176	1	10	n/a	n/a	1	50	1
245.2842	1	10	n/a	n/a	1	50	2
246.3508	1	10	n/a	n/a	1	50	3
247.6342	1	10	n/a	n/a	1	50	4
248.8508	1	10	n/a	n/a	1	50	5
250.0674	1	21	n/a	n/a	1	50	0
251.4006	1	10	n/a	n/a	1	50	1
252.5172	1	10	n/a	n/a	1	50	2
253.3356	1	81	n/a	n/a	1	0	0
253.5356	1	81	n/a	n/a	1	0	0
253.7356	1	81	n/a	n/a	1	0	0
253.9356	1	81	n/a	n/a	1	0	0
254.1356	1	81	n/a	n/a	1	0	0
254.3356	1	81	n/a	n/a	1	0	0
254.5356	1	81	n/a	n/a	1	0	0
254.7356	1	81	n/a	n/a	1	0	0
254.9356	1	81	n/a	n/a	1	0	0
255.1356	1	81	n/a	n/a	1	0	0
256.3836	1	10	n/a	n/a	1	50	1
257.5502	1	10	n/a	n/a	1	50	2
258.6834	1	10	n/a	n/a	1	50	3
259.8168	1	10	n/a	n/a	1	50	4
260.9	1	10	n/a	n/a	1	50	5
261.9832	1	21	n/a	n/a	1	50	0
263.2666	1	10	n/a	n/a	1	50	1
264.3832	1	10	n/a	n/a	1	50	2
265.6998	1	10	n/a	n/a	1	50	3
266.783	1	10	n/a	n/a	1	50	4
267.8662	1	10	n/a	n/a	1	50	5
268.9496	1	21	n/a	n/a	1	50	0
270.0328	1	10	n/a	n/a	1	50	1
271.0828	1	10	n/a	n/a	1	50	2
272.2994	1	10	n/a	n/a	1	50	3
273.3992	1	10	n/a	n/a	1	50	4
274.7158	1	10	n/a	n/a	1	50	5
276.0324	1	21	n/a	n/a	1	50	0
277.1158	1	10	n/a	n/a	1	50	1
278.3656	1	10	n/a	n/a	1	50	2
279.244	1	81	n/a	n/a	1	0	0
279.444	1	81	n/a	n/a	1	0	0
279.644	1	81	n/a	n/a	1	0	0
279.844	1	81	n/a	n/a	1	0	0
280.044	1	81	n/a	n/a	1	0	0
280.244	1	81	n/a	n/a	1	0	0
280.444	1	81	n/a	n/a	1	0	0
280.644	1	81	n/a	n/a	1	0	0
280.844	1	81	n/a	n/a	1	0	0
281.044	1	81	n/a	n/a	1	0	0
282.282	1	10	n/a	n/a	1	50	1
283.432	1	10	n/a	n/a	1	50	2
284.532	1	10	n/a	n/a	1	50	3
285.6486	1	10	n/a	n/a	1	50	4
286.8818	1	10	n/a	n/a	1	50	5
287.9818	1	10	n/a	n/a	1	50	6
289.265	1	10	n/a	n/a	1	50	7
290.5482	1	21	n/a	n/a	1	50	0
291.6482	1	10	n/a	n/a	1	50	1
292.7648	1	10	n/a	n/a	1	50	2
294.048	1	10	n/a	n/a	1	50	3
295.1314	1	10	n/a	n/a	1	50	4
296.2312	1	10	n/a	n/a	1	50	5
297.4978	1	10	n/a	n/a	1	50	6
298.5644	1	10	n/a	n/a	1	50	7
299.631	1	21	n/a	n/a	1	50	0
300.681	1	10	n/a	n/a	1	50	1
301.731	1	21	n/a	n/a	1	50	0
302.8142	1	10	n/a	n/a	1	50	1
303.8974	1	21	n/a	n/a	1	50	0
304.7142	1	81	n/a	n/a	1	0	0
304.9142	1	81	n/a	n/a	1	0	0
305.1142	1	81	n/a	n/a	1	0	0
305.3142	1	81	n/a	n/a	1	0	0
305.5142	1	81	n/a	n/a	1	0	0
305.7142	1	81	n/a	n/a	1	0	0
305.9142	1	81	n/a	n/a	1	0	0
306.1142	1	81	n/a	n/a	1	0	0
306.3142	1	81	n/a	n/a	1	0	0
306.5142	1	81	n/a	n/a	1	0	0
307.7472	1	10	n/a	n/a	1	50	1
309.0306	1	10	n/a	n/a	1	50	2
310.3138	1	10	n/a	n/a	1	50	3
311.497	1	10	n/a	n/a	1	50	4
312.7802	1	10	n/a	n/a	1	50	5
314.0636	1	21	n/a	n/a	1	50	0
315.1468	1	10	n/a	n/a	1	50	1
316.18	1	10	n/a	n/a	1	50	2
317.4134	1	10	n/a	n/a	1	50	3
318.6466	1	21	n/a	n/a	1	50	0
319.7298	1	10	n/a	n/a	1	50	1
320.8298	1	21	n/a	n/a	1	50	0
321.913	1	10	n/a	n/a	1	50	1
322.9964	1	10	n/a	n/a	1	50	2
324.0796	1	10	n/a	n/a	1	50	3
325.3296	1	10	n/a	n/a	1	50	4
326.6294	1	10	n/a	n/a	1	50	5
327.896	1	10	n/a	n/a	1	50	6
328.9294	1	10	n/a	n/a	1	50	7
329.9626	1	21	n/a	n/a	1	50	0
331.0722	1	81	n/a	n/a	1	0	0
331.2722	1	81	n/a	n/a	1	0	0
331.4722	1	81	n/a	n/a	1	0	0
331.6722	1	81	n/a	n/a	1	0	0
331.8722	1	81	n/a	n/a	1	0	0
332.0722	1	81	n/a	n/a	1	0	0
332.2722	1	81	n/a	n/a	1	0	0
332.4722	1	81	n/a	n/a	1	0	0
332.6722	1	81	n/a	n/a	1	0	0
332.8722	1	81	n/a	n/a	1	0	0
334.1456	1	10	n/a	n/a	1	50	1
335.3956	1	10	n/a	n/a	1	50	2
336.6956	1	10	n/a	n/a	1	50	3
337.9454	1	10	n/a	n/a	1	50	4
339.162	1	10	n/a	n/a	1	50	5
340.4786	1	10	n/a	n/a	1	50	6
341.712	1	10	n/a	n/a	1	50	7
342.9452	1	21	n/a	n/a	1	50	0
344.0784	1	10	n/a	n/a	1	50	1
345.145	1	10	n/a	n/a	1	50	2
346.295	1	10	n/a	n/a	1	50	3
347.4448	1	21	n/a	n/a	1	50	0
348.7282	1	10	n/a	n/a	1	50	1
349.9448	1	10	n/a	n/a	1	50	2
351.1114	1	10	n/a	n/a	1	50	3
352.2112	1	10	n/a	n/a	1	50	4
353.3612	1	10	n/a	n/a	1	50	5
354.4112	1	10	n/a	n/a	1	50	6
355.661	1	10	n/a	n/a	1	50	7
356.911	1	21	n/a	n/a	1	50	0
405.7204	1	81	n/a	n/a	1	0	0
405.9204	1	81	n/a	n/a	1	0	0
406.1204	1	81	n/a	n/a	1	0	0
406.3204	1	81	n/a	n/a	1	0	0
406.5204	1	81	n/a	n/a	1	0	0
406.7204	1	81	n/a	n/a	1	0	0
406.9204	1	81	n/a	n/a	1	0	0
407.1204	1	81	n/a	n/a	1	0	0
407.3204	1	81	n/a	n/a	1	0	0
407.5204	1	81	n/a	n/a	1	0	0
408.8746	1	10	n/a	n/a	1	51	1
410.1412	1	21	n/a	n/a	1	51	0
411.3578	1	10	n/a	n/a	1	51	1
412.5744	1	21	n/a	n/a	1	51	0
413.6076	1	10	n/a	n/a	1	51	1
414.8408	1	10	n/a	n/a	1	51	2
416.1074	1	10	n/a	n/a	1	51	3
417.324	1	10	n/a	n/a	1	51	4
418.574	1	10	n/a	n/a	1	51	5
419.6572	1	10	n/a	n/a	1	51	6
420.9406	1	10	n/a	n/a	1	51	7
422.2238	1	21	n/a	n/a	1	51	0
423.4738	1	10	n/a	n/a	1	51	1
424.607	1	10	n/a	n/a	1	51	2
425.8402	1	10	n/a	n/a	1	51	3
427.0736	1	10	n/a	n/a	1	51	4
428.3568	1	10	n/a	n/a	1	51	5
429.54	1	10	n/a	n/a	1	51	6
430.6566	1	10	n/a	n/a	1	51	7
431.7732	1	21	n/a	n/a	1	51	0
432.5608	1	81	n/a	n/a	1	0	0
432.7608	1	81	n/a	n/a	1	0	0
432.9608	1	81	n/a	n/a	1	0	0
433.1608	1	81	n/a	n/a	1	0	0
433.3608	1	81	n/a	n/a	1	0	0
433.5608	1	81	n/a	n/a	1	0	0
433.7608	1	81	n/a	n/a	1	0	0
433.9608	1	81	n/a	n/a	1	0	0
434.1608	1	81	n/a	n/a	1	0	0
434.3608	1	81	n/a	n/a	1	0	0
435.7396	1	10	n/a	n/a	1	51	1
437.023	1	21	n/a	n/a	1	51	0
438.3562	1	10	n/a	n/a	1	51	1
439.5394	1	10	n/a	n/a	1	51	2
440.856	1	10	n/a	n/a	1	51	3
442.1726	1	21	n/a	n/a	1	51	0
443.2058	1	10	n/a	n/a	1	51	1
444.2392	1	21	n/a	n/a	1	51	0
445.489	1	10	n/a	n/a	1	51	1
446.6556	1	10	n/a	n/a	1	51	2
447.7722	1	10	n/a	n/a	1	51	3
448.8888	1	21	n/a	n/a	1	51	0
450.0722	1	10	n/a	n/a	1	51	1
451.1554	1	10	n/a	n/a	1	51	2
452.2054	1	10	n/a	n/a	1	51	3
453.3886	1	10	n/a	n/a	1	51	4
454.5886	1	10	n/a	n/a	1	51	5
455.7884	1	21	n/a	n/a	1	51	0
457.0884	1	10	n/a	n/a	1	51	1
458.3884	1	21	n/a	n/a	1	51	0
459.184	1	81	n/a	n/a	1	0	0
459.384	1	81	n/a	n/a	1	0	0
459.584	1	81	n/a	n/a	1	0	0
459.784	1	81	n/a	n/a	1	0	0
459.984	1	81	n/a	n/a	1	0	0
460.184	1	81	n/a	n/a	1	0	0
460.384	1	81	n/a	n/a	1	0	0
460.584	1	81	n/a	n/a	1	0	0
460.784	1	81	n/a	n/a	1	0	0
460.984	1	81	n/a	n/a	1	0	0
462.1048	1	10	n/a	n/a	1	51	1
463.1548	1	10	n/a	n/a	1	51	2
464.2714	1	10	n/a	n/a	1	51	3
465.5878	1	10	n/a	n/a	1	51	4
466.6712	1	10	n/a	n/a	1	51	5
467.7544	1	21	n/a	n/a	1	51	0
468.9544	1	10	n/a	n/a	1	51	1
470.171	1	10	n/a	n/a	1	51	2
471.2208	1	10	n/a	n/a	1	51	3
472.5042	1	10	n/a	n/a	1	51	4
473.7874	1	10	n/a	n/a	1	51	5
475.0706	1	21	n/a	n/a	1	51	0
476.3872	1	10	n/a	n/a	1	51	1
477.5372	1	10	n/a	n/a	1	51	2
478.8704	1	10	n/a	n/a	1	51	3
480.0538	1	10	n/a	n/a	1	51	4
481.2702	1	10	n/a	n/a	1	51	5
482.5702	1	10	n/a	n/a	1	51	6
483.7202	1	10	n/a	n/a	1	51	7
484.87	1	21	n/a	n/a	1	51	0
485.6268	1	81	n/a	n/a	1	0	0
485.8268	1	81	n/a	n/a	1	0	0
486.0268	1	81	n/a	n/a	1	0	0
486.2268	1	81	n/a	n/a	1	0	0
486.4268	1	81	n/a	n/a	1	0	0
486.6268	1	81	n/a	n/a	1	0	0
486.8268	1	81	n/a	n/a	1	0	0
487.0268	1	81	n/a	n/a	1	0	0
487.2268	1	81	n/a	n/a	1	0	0
487.4268	1	81	n/a	n/a	1	0	0
488.6698	1	10	n/a	n/a	1	51	1
489.7364	1	10	n/a	n/a	1	51	2
490.8864	1	10	n/a	n/a	1	51	3
492.0364	1	21	n/a	n/a	1	51	0
493.303	1	10	n/a	n/a	1	51	1
494.3862	1	10	n/a	n/a	1	51	2
495.6862	1	10	n/a	n/a	1	51	3
496.9694	1	10	n/a	n/a	1	51	4
498.1026	1	10	n/a	n/a	1	51	5
499.2358	1	21	n/a	n/a	1	51	0
500.5192	1	10	n/a	n/a	1	51	1
501.7858	1	10	n/a	n/a	1	51	2
502.919	1	10	n/a	n/a	1	51	3
504.069	1	10	n/a	n/a	1	51	4
505.1356	1	10	n/a	n/a	1	51	5
506.3854	1	10	n/a	n/a	1	51	6
507.5688	1	10	n/a	n/a	1	51	7
508.752	1	21	n/a	n/a	1	51	0
509.8686	1	10	n/a	n/a	1	51	1
511.1686	1	10	n/a	n/a	1	51	2
512.095	1	81	n/a	n/a	1	0	0
512.295	1	81	n/a	n/a	1	0	0
512.495	1	81	n/a	n/a	1	0	0
512.695	1	81	n/a	n/a	1	0	0
512.895	1	81	n/a	n/a	1	0	0
513.095	1	81	n/a	n/a	1	0	0
513.295	1	81	n/a	n/a	1	0	0
513.495	1	81	n/a	n/a	1	0	0
513.695	1	81	n/a	n/a	1	0	0
513.895	1	81	n/a	n/a	1	0	0
515.2016	1	10	n/a	n/a	1	51	1
516.2516	1	10	n/a	n/a	1	51	2
517.3014	1	10	n/a	n/a	1	51	3
518.518	1	10	n/a	n/a	1	51	4
519.818	1	10	n/a	n/a	1	51	5
521.118	1	21	n/a	n/a	1	51	0
522.3346	1	10	n/a	n/a	1	51	1
523.5512	1	21	n/a	n/a	1	51	0
524.651	1	10	n/a	n/a	1	51	1
525.7676	1	10	n/a	n/a	1	51	2
527.0842	1	10	n/a	n/a	1	51	3
528.1676	1	10	n/a	n/a	1	51	4
529.4508	1	10	n/a	n/a	1	51	5
530.5508	1	10	n/a	n/a	1	51	6
531.584	1	10	n/a	n/a	1	51	7
532.6172	1	21	n/a	n/a	1	51	0
533.8838	1	10	n/a	n/a	1	51	1
535.1338	1	10	n/a	n/a	1	51	2
536.2838	1	10	n/a	n/a	1	51	3
537.4336	1	21	n/a	n/a	1	51	0
591.9022	1	82	n/a	n/a	1	0	0
592.0452	1	82	n/a	n/a	1	0	0
592.2982	1	82	n/a	n/a	1	0	0
592.4782	1	82	n/a	n/a	1	0	0
592.7932	1	82	n/a	n/a	1	0	0
592.9022	1	82	n/a	n/a	1	0	0
593.0352	1	82	n/a	n/a	1	0	0
593.4312	1	82	n/a	n/a	1	0	0
593.4972	1	82	n/a	n/a	1	0	0
593.7782	1	82	n/a	n/a	1	0	0
594.8636	1	10	n/a	n/a	1	52	1
595.9468	1	10	n/a	n/a	1	52	2
596.9802	1	10	n/a	n/a	1	52	3
598.1968	1	10	n/a	n/a	1	52	4
599.5132	1	10	n/a	n/a	1	52	5
600.6966	1	10	n/a	n/a	1	52	6
601.7632	1	10	n/a	n/a	1	52	7
602.8298	1	21	n/a	n/a	1	52	0
603.863	1	10	n/a	n/a	1	52	1
604.8964	1	21	n/a	n/a	1	52	0
606.013	1	10	n/a	n/a	1	52	1
607.1796	1	10	n/a	n/a	1	52	2
608.2294	1	10	n/a	n/a	1	52	3
609.3128	1	10	n/a	n/a	1	52	4
610.6126	1	10	n/a	n/a	1	52	5
611.7126	1	10	n/a	n/a	1	52	6
612.8292	1	10	n/a	n/a	1	52	7
613.9458	1	21	n/a	n/a	1	52	0
615.0624	1	10	n/a	n/a	1	52	1
616.179	1	21	n/a	n/a	1	52	0
617.1546	1	82	n/a	n/a	1	0	0
617.3296	1	82	n/a	n/a	1	0	0
617.3826	1	82	n/a	n/a	1	0	0
617.6916	1	82	n/a	n/a	1	0	0
618.0976	1	82	n/a	n/a	1	0	0
618.1546	1	82	n/a	n/a	1	0	0
618.2696	1	82	n/a	n/a	1	0	0
618.2956	1	82	n/a	n/a	1	0	0
618.5118	1	82	n/a	n/a	1	0	0
618.9206	1	82	n/a	n/a	1	0	0
620.362	1	10	n/a	n/a	1	52	1
621.5786	1	10	n/a	n/a	1	52	2
622.8952	1	10	n/a	n/a	1	52	3
624.0118	1	10	n/a	n/a	1	52	4
625.3284	1	10	n/a	n/a	1	52	5
626.645	1	21	n/a	n/a	1	52	0
627.9116	1	10	n/a	n/a	1	52	1
629.1782	1	21	n/a	n/a	1	52	0
630.3948	1	10	n/a	n/a	1	52	1
631.678	1	10	n/a	n/a	1	52	2
632.7946	1	10	n/a	n/a	1	52	3
633.9112	1	21	n/a	n/a	1	52	0
635.0946	1	10	n/a	n/a	1	52	1
636.2778	1	21	n/a	n/a	1	52	0
637.3778	1	10	n/a	n/a	1	52	1
638.6276	1	10	n/a	n/a	1	52	2
639.7442	1	10	n/a	n/a	1	52	3
641.0108	1	10	n/a	n/a	1	52	4
642.244	1	10	n/a	n/a	1	52	5
643.3774	1	10	n/a	n/a	1	52	6
644.1948	1	82	n/a	n/a	1	0	0
644.4378	1	82	n/a	n/a	1	0	0
644.5038	1	82	n/a	n/a	1	0	0
644.6518	1	82	n/a	n/a	1	0	0
644.9428	1	82	n/a	n/a	1	0	0
645.1948	1	82	n/a	n/a	1	0	0
645.3518	1	82	n/a	n/a	1	0	0
645.6858	1	82	n/a	n/a	1	0	0
646.0518	1	82	n/a	n/a	1	0	0
646.1378	1	82	n/a	n/a	1	0	0
647.2938	1	10	n/a	n/a	1	52	1
648.4438	1	10	n/a	n/a	1	52	2
649.5436	1	10	n/a	n/a	1	52	3
650.6436	1	21	n/a	n/a	1	52	0
651.8936	1	10	n/a	n/a	1	52	1
653.1768	1	10	n/a	n/a	1	52	2
654.3768	1	10	n/a	n/a	1	52	3
655.5766	1	21	n/a	n/a	1	52	0
656.8598	1	10	n/a	n/a	1	52	1
657.9764	1	10	n/a	n/a	1	52	2
659.193	1	10	n/a	n/a	1	52	3
660.3096	1	10	n/a	n/a	1	52	4
661.543	1	10	n/a	n/a	1	52	5
662.7096	1	10	n/a	n/a	1	52	6
664.0094	1	10	n/a	n/a	1	52	7
665.3094	1	21	n/a	n/a	1	52	0
666.376	1	10	n/a	n/a	1	52	1
667.6426	1	10	n/a	n/a	1	52	2
668.8926	1	10	n/a	n/a	1	52	3
670.1424	1	21	n/a	n/a	1	52	0
670.9922	1	82	n/a	n/a	1	0	0
671.2262	1	82	n/a	n/a	1	0	0
671.2602	1	82	n/a	n/a	1	0	0
671.4692	1	82	n/a	n/a	1	0	0
671.8742	1	82	n/a	n/a	1	0	0
671.9922	1	82	n/a	n/a	1	0	0
672.0552	1	82	n/a	n/a	1	0	0
672.4692	1	82	n/a	n/a	1	0	0
672.4902	1	82	n/a	n/a	1	0	0
672.8302	1	82	n/a	n/a	1	0	0
674.0756	1	10	n/a	n/a	1	52	1
675.2588	1	21	n/a	n/a	1	52	0
676.3088	1	10	n/a	n/a	1	52	1
677.3586	1	21	n/a	n/a	1	52	0
678.6586	1	10	n/a	n/a	1	52	1
679.7252	1	10	n/a	n/a	1	52	2
680.7584	1	10	n/a	n/a	1	52	3
681.7918	1	21	n/a	n/a	1	52	0
682.8584	1	10	n/a	n/a	1	52	1
683.925	1	21	n/a	n/a	1	52	0
685.0582	1	10	n/a	n/a	1	52	1
686.2248	1	10	n/a	n/a	1	52	2
687.458	1	10	n/a	n/a	1	52	3
688.6246	1	10	n/a	n/a	1	52	4
689.8246	1	10	n/a	n/a	1	52	5
691.0246	1	21	n/a	n/a	1	52	0
692.2078	1	10	n/a	n/a	1	52	1
693.3578	1	10	n/a	n/a	1	52	2
694.6576	1	10	n/a	n/a	1	52	3
695.8742	1	10	n/a	n/a	1	52	4
696.7336	1	82	n/a	n/a	1	0	0
696.9006	1	82	n/a	n/a	1	0	0
697.2426	1	82	n/a	n/a	1	0	0
697.2666	1	82	n/a	n/a	1	0	0
697.5216	1	82	n/a	n/a	1	0	0
697.7336	1	82	n/a	n/a	1	0	0
698.0106	1	82	n/a	n/a	1	0	0
698.2426	1	82	n/a	n/a	1	0	0
698.4986	1	82	n/a	n/a	1	0	0
698.6126	1	82	n/a	n/a	1	0	0
699.674	1	10	n/a	n/a	1	52	1
700.9406	1	10	n/a	n/a	1	52	2
702.0238	1	10	n/a	n/a	1	52	3
703.1238	1	10	n/a	n/a	1	52	4
704.207	1	10	n/a	n/a	1	52	5
705.2904	1	21	n/a	n/a	1	52	0
706.5736	1	10	n/a	n/a	1	52	1
707.7902	1	10	n/a	n/a	1	52	2
708.8734	1	10	n/a	n/a	1	52	3
710.1568	1	10	n/a	n/a	1	52	4
711.29	1	10	n/a	n/a	1	52	5
712.49	1	10	n/a	n/a	1	52	6
713.5232	1	10	n/a	n/a	1	52	7
714.5564	1	21	n/a	n/a	1	52	0
715.6564	1	10	n/a	n/a	1	52	1
716.823	1	10	n/a	n/a	1	52	2
717.8896	1	10	n/a	n/a	1	52	3
719.0728	1	10	n/a	n/a	1	52	4
720.3562	1	10	n/a	n/a	1	52	5
721.406	1	10	n/a	n/a	1	52	6
731.4058	1	82	n/a	n/a	1	0	0
731.4678	1	82	n/a	n/a	1	0	0
731.5038	1	82	n/a	n/a	1	0	0
731.7088	1	82	n/a	n/a	1	0	0
732.1478	1	82	n/a	n/a	1	0	0
732.406	1	82	n/a	n/a	1	0	0
732.7818	1	82	n/a	n/a	1	0	0
733.0188	1	82	n/a	n/a	1	0	0
733.0428	1	82	n/a	n/a	1	0	0
733.0878	1	82	n/a	n/a	1	0	0
734.5386	1	10	n/a	n/a	1	50	1
735.7718	1	10	n/a	n/a	1	50	2
736.8718	1	10	n/a	n/a	1	50	3
738.0384	1	10	n/a	n/a	1	50	4
739.2384	1	10	n/a	n/a	1	50	5
740.4382	1	21	n/a	n/a	1	50	0
741.5216	1	10	n/a	n/a	1	50	1
742.8382	1	10	n/a	n/a	1	50	2
744.138	1	10	n/a	n/a	1	50	3
745.2546	1	10	n/a	n/a	1	50	4
746.538	1	10	n/a	n/a	1	50	5
747.8212	1	21	n/a	n/a	1	50	0
748.971	1	10	n/a	n/a	1	50	1
750.2544	1	10	n/a	n/a	1	50	2
751.471	1	10	n/a	n/a	1	50	3
752.7542	1	10	n/a	n/a	1	50	4
754.0208	1	10	n/a	n/a	1	50	5
755.2874	1	21	n/a	n/a	1	50	0
756.5874	1	10	n/a	n/a	1	50	1
757.8206	1	10	n/a	n/a	1	50	2
758.617	1	82	n/a	n/a	1	0	0
758.936	1	82	n/a	n/a	1	0	0
758.971	1	82	n/a	n/a	1	0	0
759.406	1	82	n/a	n/a	1	0	0
759.49	1	82	n/a	n/a	1	0	0
759.617	1	82	n/a	n/a	1	0	0
759.865	1	82	n/a	n/a	1	0	0
760.015	1	82	n/a	n/a	1	0	0
760.235	1	82	n/a	n/a	1	0	0
760.304	1	82	n/a	n/a	1	0	0
761.737	1	10	n/a	n/a	1	50	1
762.8036	1	10	n/a	n/a	1	50	2
763.9536	1	10	n/a	n/a	1	50	3
765.1034	1	21	n/a	n/a	1	50	0
766.27	1	10	n/a	n/a	1	50	1
767.47	1	10	n/a	n/a	1	50	2
768.5366	1	10	n/a	n/a	1	50	3
769.8532	1	10	n/a	n/a	1	50	4
771.0864	1	10	n/a	n/a	1	50	5
772.2198	1	10	n/a	n/a	1	50	6
773.503	1	10	n/a	n/a	1	50	7
774.7862	1	21	n/a	n/a	1	50	0
775.8528	1	10	n/a	n/a	1	50	1
776.9528	1	10	n/a	n/a	1	50	2
777.986	1	10	n/a	n/a	1	50	3
779.086	1	10	n/a	n/a	1	50	4
780.3858	1	10	n/a	n/a	1	50	5
781.6858	1	21	n/a	n/a	1	50	0
782.7858	1	10	n/a	n/a	1	50	1
783.8856	1	21	n/a	n/a	1	50	0
784.9604	1	82	n/a	n/a	1	0	0
785.1944	1	82	n/a	n/a	1	0	0
785.5024	1	82	n/a	n/a	1	0	0
785.5504	1	82	n/a	n/a	1	0	0
785.8874	1	82	n/a	n/a	1	0	0
785.9604	1	82	n/a	n/a	1	0	0
786.2074	1	82	n/a	n/a	1	0	0
786.3634	1	82	n/a	n/a	1	0	0
786.4034	1	82	n/a	n/a	1	0	0
786.7894	1	82	n/a	n/a	1	0	0
787.9522	1	10	n/a	n/a	1	50	1
789.002	1	10	n/a	n/a	1	50	2
790.1854	1	10	n/a	n/a	1	50	3
791.452	1	10	n/a	n/a	1	50	4
792.5352	1	10	n/a	n/a	1	50	5
793.7018	1	10	n/a	n/a	1	50	6
794.8018	1	10	n/a	n/a	1	50	7
795.9016	1	21	n/a	n/a	1	50	0
797.135	1	10	n/a	n/a	1	50	1
798.2848	1	10	n/a	n/a	1	50	2
799.3514	1	10	n/a	n/a	1	50	3
800.5514	1	10	n/a	n/a	1	50	4
801.7014	1	10	n/a	n/a	1	50	5
802.8512	1	21	n/a	n/a	1	50	0
803.9346	1	10	n/a	n/a	1	50	1
805.0344	1	21	n/a	n/a	1	50	0
806.3176	1	10	n/a	n/a	1	50	1
807.601	1	21	n/a	n/a	1	50	0
808.7176	1	10	n/a	n/a	1	50	1
809.8008	1	10	n/a	n/a	1	50	2
810.5214	1	82	n/a	n/a	1	0	0
810.6224	1	82	n/a	n/a	1	0	0
810.9174	1	82	n/a	n/a	1	0	0
811.3084	1	82	n/a	n/a	1	0	0
811.4684	1	82	n/a	n/a	1	0	0
811.5214	1	82	n/a	n/a	1	0	0
811.5854	1	82	n/a	n/a	1	0	0
811.8214	1	82	n/a	n/a	1	0	0
812.1404	1	82	n/a	n/a	1	0	0
812.1744	1	82	n/a	n/a	1	0	0
813.684	1	10	n/a	n/a	1	50	1
814.7838	1	10	n/a	n/a	1	50	2
815.9004	1	10	n/a	n/a	1	50	3
817.017	1	21	n/a	n/a	1	50	0
818.167	1	10	n/a	n/a	1	50	1
819.267	1	10	n/a	n/a	1	50	2
820.3836	1	10	n/a	n/a	1	50	3
821.5002	1	21	n/a	n/a	1	50	0
822.7	1	10	n/a	n/a	1	50	1
824	1	10	n/a	n/a	1	50	2
825.25	1	10	n/a	n/a	1	50	3
826.4998	1	21	n/a	n/a	1	50	0
827.8164	1	10	n/a	n/a	1	50	1
828.9996	1	10	n/a	n/a	1	50	2
830.2662	1	10	n/a	n/a	1	50	3
831.5662	1	10	n/a	n/a	1	50	4
832.7328	1	10	n/a	n/a	1	50	5
833.766	1	10	n/a	n/a	1	50	6
834.8326	1	10	n/a	n/a	1	50	7
835.8992	1	21	n/a	n/a	1	50	0
836.744	1	82	n/a	n/a	1	0	0
837.086	1	82	n/a	n/a	1	0	0
837.218	1	82	n/a	n/a	1	0	0
837.376	1	82	n/a	n/a	1	0	0
837.435	1	82	n/a	n/a	1	0	0
837.744	1	82	n/a	n/a	1	0	0
838.04	1	82	n/a	n/a	1	0	0
838.275	1	82	n/a	n/a	1	0	0
838.543	1	82	n/a	n/a	1	0	0
838.707	1	82	n/a	n/a	1	0	0
839.7324	1	10	n/a	n/a	1	50	1
840.8324	1	10	n/a	n/a	1	50	2
841.8822	1	10	n/a	n/a	1	50	3
843.1656	1	10	n/a	n/a	1	50	4
844.2654	1	10	n/a	n/a	1	50	5
845.3654	1	21	n/a	n/a	1	50	0
846.532	1	10	n/a	n/a	1	50	1
847.682	1	10	n/a	n/a	1	50	2
848.8152	1	10	n/a	n/a	1	50	3
849.9484	1	21	n/a	n/a	1	50	0
851.165	1	10	n/a	n/a	1	50	1
852.3816	1	21	n/a	n/a	1	50	0
853.4148	1	10	n/a	n/a	1	50	1
854.6982	1	10	n/a	n/a	1	50	2
855.7314	1	10	n/a	n/a	1	50	3
856.7648	1	21	n/a	n/a	1	50	0
857.9146	1	10	n/a	n/a	1	50	1
859.2146	1	10	n/a	n/a	1	50	2
860.3478	1	10	n/a	n/a	1	50	3
861.481	1	21	n/a	n/a	1	50	0
882.3842	1	81	n/a	n/a	1	0	0
882.5842	1	81	n/a	n/a	1	0	0
882.7842	1	81	n/a	n/a	1	0	0
882.9842	1	81	n/a	n/a	1	0	0
883.1842	1	81	n/a	n/a	1	0	0
883.3842	1	81	n/a	n/a	1	0	0
883.5842	1	81	n/a	n/a	1	0	0
883.7842	1	81	n/a	n/a	1	0	0
883.9842	1	81	n/a	n/a	1	0	0
884.1842	1	81	n/a	n/a	1	0	0
885.3464	1	10	n/a	n/a	1	51	1
886.3796	1	10	n/a	n/a	1	51	2
887.5628	1	10	n/a	n/a	1	51	3
888.7462	1	21	n/a	n/a	1	51	0
889.8628	1	10	n/a	n/a	1	51	1
891.1126	1	10	n/a	n/a	1	51	2
892.3626	1	10	n/a	n/a	1	51	3
893.5792	1	10	n/a	n/a	1	51	4
894.8124	1	10	n/a	n/a	1	51	5
896.0458	1	21	n/a	n/a	1	51	0
897.3122	1	10	n/a	n/a	1	51	1
898.5956	1	10	n/a	n/a	1	51	2
899.6622	1	10	n/a	n/a	1	51	3
900.7288	1	21	n/a	n/a	1	51	0
901.9286	1	10	n/a	n/a	1	51	1
903.212	1	10	n/a	n/a	1	51	2
904.4786	1	10	n/a	n/a	1	51	3
905.7452	1	21	n/a	n/a	1	51	0
906.795	1	10	n/a	n/a	1	51	1
907.8784	1	10	n/a	n/a	1	51	2
908.8148	1	81	n/a	n/a	1	0	0
909.0148	1	81	n/a	n/a	1	0	0
909.2148	1	81	n/a	n/a	1	0	0
909.4148	1	81	n/a	n/a	1	0	0
909.6148	1	81	n/a	n/a	1	0	0
909.8148	1	81	n/a	n/a	1	0	0
910.0148	1	81	n/a	n/a	1	0	0
910.2148	1	81	n/a	n/a	1	0	0
910.4148	1	81	n/a	n/a	1	0	0
910.6148	1	81	n/a	n/a	1	0	0
911.8614	1	10	n/a	n/a	1	51	1
913.0114	1	21	n/a	n/a	1	51	0
914.1612	1	10	n/a	n/a	1	51	1
915.4112	1	10	n/a	n/a	1	51	2
916.4444	1	10	n/a	n/a	1	51	3
917.4778	1	21	n/a	n/a	1	51	0
918.7776	1	10	n/a	n/a	1	51	1
920.011	1	10	n/a	n/a	1	51	2
921.2276	1	10	n/a	n/a	1	51	3
922.5108	1	10	n/a	n/a	1	51	4
923.8108	1	10	n/a	n/a	1	51	5
925.1106	1	10	n/a	n/a	1	51	6
926.194	1	10	n/a	n/a	1	51	7
927.2772	1	21	n/a	n/a	1	51	0
928.4438	1	10	n/a	n/a	1	51	1
929.6104	1	10	n/a	n/a	1	51	2
930.8104	1	10	n/a	n/a	1	51	3
932.0102	1	21	n/a	n/a	1	51	0
933.3434	1	10	n/a	n/a	1	51	1
934.6768	1	21	n/a	n/a	1	51	0
935.4152	1	81	n/a	n/a	1	0	0
935.6152	1	81	n/a	n/a	1	0	0
935.8152	1	81	n/a	n/a	1	0	0
936.0152	1	81	n/a	n/a	1	0	0
936.2152	1	81	n/a	n/a	1	0	0
936.4152	1	81	n/a	n/a	1	0	0
936.6152	1	81	n/a	n/a	1	0	0
936.8152	1	81	n/a	n/a	1	0	0
937.0152	1	81	n/a	n/a	1	0	0
937.2152	1	81	n/a	n/a	1	0	0
938.3598	1	10	n/a	n/a	1	51	1
939.4098	1	21	n/a	n/a	1	51	0
940.4764	1	10	n/a	n/a	1	51	1
941.5264	1	10	n/a	n/a	1	51	2
942.8096	1	10	n/a	n/a	1	51	3
944.0596	1	10	n/a	n/a	1	51	4
945.2928	1	10	n/a	n/a	1	51	5
946.526	1	21	n/a	n/a	1	51	0
947.6426	1	10	n/a	n/a	1	51	1
948.8092	1	10	n/a	n/a	1	51	2
950.0092	1	10	n/a	n/a	1	51	3
951.1092	1	10	n/a	n/a	1	51	4
952.159	1	10	n/a	n/a	1	51	5
953.2756	1	10	n/a	n/a	1	51	6
954.309	1	10	n/a	n/a	1	51	7
955.3422	1	21	n/a	n/a	1	51	0
956.3754	1	10	n/a	n/a	1	51	1
957.6254	1	10	n/a	n/a	1	51	2
958.892	1	10	n/a	n/a	1	51	3
960.092	1	10	n/a	n/a	1	51	4
961.1744	1	81	n/a	n/a	1	0	0
961.3742	1	81	n/a	n/a	1	0	0
961.5742	1	81	n/a	n/a	1	0	0
961.7742	1	81	n/a	n/a	1	0	0
961.9742	1	81	n/a	n/a	1	0	0
962.1744	1	81	n/a	n/a	1	0	0
962.3744	1	81	n/a	n/a	1	0	0
962.5744	1	81	n/a	n/a	1	0	0
962.7744	1	81	n/a	n/a	1	0	0
962.9742	1	81	n/a	n/a	1	0	0
964.1916	1	10	n/a	n/a	1	51	1
965.2416	1	10	n/a	n/a	1	51	2
966.3082	1	10	n/a	n/a	1	51	3
967.3414	1	10	n/a	n/a	1	51	4
968.5748	1	10	n/a	n/a	1	51	5
969.808	1	21	n/a	n/a	1	51	0
970.8746	1	10	n/a	n/a	1	51	1
971.9912	1	10	n/a	n/a	1	51	2
973.2078	1	10	n/a	n/a	1	51	3
974.5078	1	10	n/a	n/a	1	51	4
975.7244	1	10	n/a	n/a	1	51	5
976.941	1	21	n/a	n/a	1	51	0
978.1242	1	10	n/a	n/a	1	51	1
979.1574	1	10	n/a	n/a	1	51	2
980.2574	1	10	n/a	n/a	1	51	3
981.424	1	10	n/a	n/a	1	51	4
982.5072	1	10	n/a	n/a	1	51	5
983.7906	1	10	n/a	n/a	1	51	6
984.8572	1	10	n/a	n/a	1	51	7
985.9238	1	21	n/a	n/a	1	51	0
986.6884	1	81	n/a	n/a	1	0	0
986.8884	1	81	n/a	n/a	1	0	0
987.0884	1	81	n/a	n/a	1	0	0
987.2884	1	81	n/a	n/a	1	0	0
987.4884	1	81	n/a	n/a	1	0	0
987.6884	1	81	n/a	n/a	1	0	0
987.8884	1	81	n/a	n/a	1	0	0
988.0884	1	81	n/a	n/a	1	0	0
988.2884	1	81	n/a	n/a	1	0	0
988.4884	1	81	n/a	n/a	1	0	0
989.6568	1	10	n/a	n/a	1	51	1
990.74	1	21	n/a	n/a	1	51	0
992.0234	1	10	n/a	n/a	1	51	1
993.19	1	10	n/a	n/a	1	51	2
994.5066	1	10	n/a	n/a	1	51	3
995.6398	1	10	n/a	n/a	1	51	4
996.9564	1	10	n/a	n/a	1	51	5
998.273	1	10	n/a	n/a	1	51	6
999.3562	1	10	n/a	n/a	1	51	7
1000.4396	1	21	n/a	n/a	1	51	0
1001.6394	1	10	n/a	n/a	1	51	1
1002.6894	1	10	n/a	n/a	1	51	2
1003.7226	1	10	n/a	n/a	1	51	3
1004.9226	1	10	n/a	n/a	1	51	4
1006.1392	1	10	n/a	n/a	1	51	5
1007.3724	1	10	n/a	n/a	1	51	6
1008.6724	1	10	n/a	n/a	1	51	7
1009.9722	1	21	n/a	n/a	1	51	0
1011.1556	1	10	n/a	n/a	1	51	1
1012.1888	1	10	n/a	n/a	1	51	2
1069.1348	1	82	n/a	n/a	1	0	0
1069.2218	1	82	n/a	n/a	1	0	0
1069.2488	1	82	n/a	n/a	1	0	0
1069.4228	1	82	n/a	n/a	1	0	0
1069.6768	1	82	n/a	n/a	1	0	0
1070.135	1	82	n/a	n/a	1	0	0
1070.31	1	82	n/a	n/a	1	0	0
1070.411	1	82	n/a	n/a	1	0	0
1070.432	1	82	n/a	n/a	1	0	0
1070.5098	1	82	n/a	n/a	1	0	0
1072.0852	1	10	n/a	n/a	1	52	1
1073.2686	1	10	n/a	n/a	1	52	2
1074.4518	1	10	n/a	n/a	1	52	3
1075.485	1	10	n/a	n/a	1	52	4
1076.685	1	10	n/a	n/a	1	52	5
1077.885	1	21	n/a	n/a	1	52	0
1078.9848	1	10	n/a	n/a	1	52	1
1080.1014	1	10	n/a	n/a	1	52	2
1081.3848	1	10	n/a	n/a	1	52	3
1082.568	1	10	n/a	n/a	1	52	4
1083.8512	1	10	n/a	n/a	1	52	5
1085.1344	1	21	n/a	n/a	1	52	0
1086.4344	1	10	n/a	n/a	1	52	1
1087.501	1	10	n/a	n/a	1	52	2
1088.5842	1	10	n/a	n/a	1	52	3
1089.6676	1	21	n/a	n/a	1	52	0
1090.9842	1	10	n/a	n/a	1	52	1
1092.3008	1	21	n/a	n/a	1	52	0
1093.5674	1	10	n/a	n/a	1	52	1
1094.834	1	10	n/a	n/a	1	52	2
1095.7934	1	82	n/a	n/a	1	0	0
1095.8804	1	82	n/a	n/a	1	0	0
1095.9934	1	82	n/a	n/a	1	0	0
1096.2954	1	82	n/a	n/a	1	0	0
1096.5364	1	82	n/a	n/a	1	0	0
1096.7934	1	82	n/a	n/a	1	0	0
1097.1774	1	82	n/a	n/a	1	0	0
1097.2644	1	82	n/a	n/a	1	0	0
1097.5664	1	82	n/a	n/a	1	0	0
1097.7004	1	82	n/a	n/a	1	0	0
1098.7836	1	10	n/a	n/a	1	52	1
1100.0336	1	10	n/a	n/a	1	52	2
1101.2002	1	10	n/a	n/a	1	52	3
1102.3668	1	21	n/a	n/a	1	52	0
1103.4168	1	10	n/a	n/a	1	52	1
1104.5834	1	10	n/a	n/a	1	52	2
1105.6666	1	10	n/a	n/a	1	52	3
1106.9666	1	10	n/a	n/a	1	52	4
1108.2164	1	10	n/a	n/a	1	52	5
1109.4664	1	21	n/a	n/a	1	52	0
1110.6996	1	10	n/a	n/a	1	52	1
1111.9328	1	21	n/a	n/a	1	52	0
1113.1328	1	10	n/a	n/a	1	52	1
1114.316	1	10	n/a	n/a	1	52	2
1115.466	1	10	n/a	n/a	1	52	3
1116.616	1	10	n/a	n/a	1	52	4
1117.6658	1	10	n/a	n/a	1	52	5
1118.9824	1	10	n/a	n/a	1	52	6
1120.249	1	10	n/a	n/a	1	52	7
1121.5156	1	21	n/a	n/a	1	52	0
1122.5764	1	82	n/a	n/a	1	0	0
1122.9864	1	82	n/a	n/a	1	0	0
1123.0454	1	82	n/a	n/a	1	0	0
1123.3564	1	82	n/a	n/a	1	0	0
1123.4804	1	82	n/a	n/a	1	0	0
1123.5764	1	82	n/a	n/a	1	0	0
1123.6894	1	82	n/a	n/a	1	0	0
1123.7554	1	82	n/a	n/a	1	0	0
1124.0694	1	82	n/a	n/a	1	0	0
1124.0954	1	82	n/a	n/a	1	0	0
1125.4988	1	10	n/a	n/a	1	52	1
1126.532	1	21	n/a	n/a	1	52	0
1127.8486	1	10	n/a	n/a	1	52	1
1128.9652	1	10	n/a	n/a	1	52	2
1130.0318	1	10	n/a	n/a	1	52	3
1131.0984	1	21	n/a	n/a	1	52	0
1132.215	1	10	n/a	n/a	1	52	1
1133.3316	1	21	n/a	n/a	1	52	0
1134.6148	1	10	n/a	n/a	1	52	1
1135.6648	1	10	n/a	n/a	1	52	2
1136.8814	1	10	n/a	n/a	1	52	3
1137.9314	1	10	n/a	n/a	1	52	4
1139.198	1	10	n/a	n/a	1	52	5
1140.4646	1	21	n/a	n/a	1	52	0
1141.5478	1	10	n/a	n/a	1	52	1
1142.831	1	10	n/a	n/a	1	52	2
1143.8644	1	10	n/a	n/a	1	52	3
1145.031	1	10	n/a	n/a	1	52	4
1146.1808	1	10	n/a	n/a	1	52	5
1147.3642	1	10	n/a	n/a	1	52	6
1148.3706	1	82	n/a	n/a	1	0	0
1148.5136	1	82	n/a	n/a	1	0	0
1148.8046	1	82	n/a	n/a	1	0	0
1149.2306	1	82	n/a	n/a	1	0	0
1149.3126	1	82	n/a	n/a	1	0	0
1149.3706	1	82	n/a	n/a	1	0	0
1149.5136	1	82	n/a	n/a	1	0	0
1149.7416	1	82	n/a	n/a	1	0	0
1150.0886	1	82	n/a	n/a	1	0	0
1150.1896	1	82	n/a	n/a	1	0	0
1151.4972	1	10	n/a	n/a	1	52	1
1152.5638	1	10	n/a	n/a	1	52	2
1153.8638	1	10	n/a	n/a	1	52	3
1154.9804	1	10	n/a	n/a	1	52	4
1156.197	1	10	n/a	n/a	1	52	5
1157.4136	1	21	n/a	n/a	1	52	0
1158.4634	1	10	n/a	n/a	1	52	1
1159.68	1	10	n/a	n/a	1	52	2
1160.7966	1	10	n/a	n/a	1	52	3
1162.0966	1	10	n/a	n/a	1	52	4
1163.1466	1	10	n/a	n/a	1	52	5
1164.2964	1	10	n/a	n/a	1	52	6
1165.413	1	10	n/a	n/a	1	52	7
1166.5296	1	21	n/a	n/a	1	52	0
1167.613	1	10	n/a	n/a	1	52	1
1168.6962	1	21	n/a	n/a	1	52	0
1170.0128	1	10	n/a	n/a	1	52	1
1171.1128	1	10	n/a	n/a	1	52	2
1172.1794	1	10	n/a	n/a	1	52	3
1173.4126	1	10	n/a	n/a	1	52	4
1174.267	1	82	n/a	n/a	1	0	0
1174.513	1	82	n/a	n/a	1	0	0
1174.683	1	82	n/a	n/a	1	0	0
1174.977	1	82	n/a	n/a	1	0	0
1175.202	1	82	n/a	n/a	1	0	0
1175.267	1	82	n/a	n/a	1	0	0
1175.313	1	82	n/a	n/a	1	0	0
1175.616	1	82	n/a	n/a	1	0	0
1176.042	1	82	n/a	n/a	1	0	0
1176.143	1	82	n/a	n/a	1	0	0
1177.229	1	10	n/a	n/a	1	52	1
1178.2956	1	21	n/a	n/a	1	52	0
1179.4456	1	10	n/a	n/a	1	52	1
1180.7288	1	10	n/a	n/a	1	52	2
1182.012	1	10	n/a	n/a	1	52	3
1183.1454	1	10	n/a	n/a	1	52	4
1184.2452	1	10	n/a	n/a	1	52	5
1185.3452	1	21	n/a	n/a	1	52	0
1186.5952	1	10	n/a	n/a	1	52	1
1187.645	1	10	n/a	n/a	1	52	2
1188.9616	1	10	n/a	n/a	1	52	3
1190.2782	1	21	n/a	n/a	1	52	0
1191.4282	1	10	n/a	n/a	1	52	1
1192.728	1	10	n/a	n/a	1	52	2
1193.8446	1	10	n/a	n/a	1	52	3
1195.028	1	10	n/a	n/a	1	52	4
1196.1112	1	10	n/a	n/a	1	52	5
1197.4278	1	10	n/a	n/a	1	52	6
1198.5278	1	10	n/a	n/a	1	52	7
1199.6276	1	21	n/a	n/a	1	52	0
1209.6122	1	81	n/a	n/a	1	0	0
1209.8122	1	81	n/a	n/a	1	0	0
1210.0122	1	81	n/a	n/a	1	0	0
1210.2122	1	81	n/a	n/a	1	0	0
1210.4122	1	81	n/a	n/a	1	0	0
1210.6122	1	81	n/a	n/a	1	0	0
1210.8122	1	81	n/a	n/a	1	0	0
1211.0122	1	81	n/a	n/a	1	0	0
1211.2122	1	81	n/a	n/a	1	0	0
1211.4122	1	81	n/a	n/a	1	0	0
1212.577	1	10	n/a	n/a	1	50	1
1213.8602	1	10	n/a	n/a	1	50	2
1214.9102	1	10	n/a	n/a	1	50	3
1215.96	1	21	n/a	n/a	1	50	0
1217.16	1	10	n/a	n/a	1	50	1
1218.2266	1	10	n/a	n/a	1	50	2
1219.5266	1	10	n/a	n/a	1	50	3
1220.6264	1	10	n/a	n/a	1	50	4
1221.893	1	10	n/a	n/a	1	50	5
1223.193	1	10	n/a	n/a	1	50	6
1224.3096	1	10	n/a	n/a	1	50	7
1225.4262	1	21	n/a	n/a	1	50	0
1226.726	1	10	n/a	n/a	1	50	1
1228.026	1	10	n/a	n/a	1	50	2
1229.326	1	10	n/a	n/a	1	50	3
1230.6092	1	10	n/a	n/a	1	50	4
1231.7758	1	10	n/a	n/a	1	50	5
1232.859	1	10	n/a	n/a	1	50	6
1234.0256	1	10	n/a	n/a	1	50	7
1235.1922	1	21	n/a	n/a	1	50	0
1235.9726	1	81	n/a	n/a	1	0	0
1236.1726	1	81	n/a	n/a	1	0	0
1236.3726	1	81	n/a	n/a	1	0	0
1236.5726	1	81	n/a	n/a	1	0	0
1236.7726	1	81	n/a	n/a	1	0	0
1236.9726	1	81	n/a	n/a	1	0	0
1237.1726	1	81	n/a	n/a	1	0	0
1237.3726	1	81	n/a	n/a	1	0	0
1237.5726	1	81	n/a	n/a	1	0	0
1237.7726	1	81	n/a	n/a	1	0	0
1239.142	1	10	n/a	n/a	1	50	1
1240.2586	1	10	n/a	n/a	1	50	2
1241.5586	1	10	n/a	n/a	1	50	3
1242.8084	1	10	n/a	n/a	1	50	4
1243.9584	1	10	n/a	n/a	1	50	5
1245.1084	1	21	n/a	n/a	1	50	0
1246.375	1	10	n/a	n/a	1	50	1
1247.6082	1	10	n/a	n/a	1	50	2
1248.7748	1	10	n/a	n/a	1	50	3
1250.0246	1	10	n/a	n/a	1	50	4
1251.0746	1	10	n/a	n/a	1	50	5
1252.108	1	10	n/a	n/a	1	50	6
1253.2246	1	10	n/a	n/a	1	50	7
1254.3412	1	21	n/a	n/a	1	50	0
1255.6244	1	10	n/a	n/a	1	50	1
1256.9076	1	10	n/a	n/a	1	50	2
1257.9742	1	10	n/a	n/a	1	50	3
1259.1908	1	10	n/a	n/a	1	50	4
1260.3574	1	10	n/a	n/a	1	50	5
1261.6908	1	10	n/a	n/a	1	50	6
1262.714	1	81	n/a	n/a	1	0	0
1262.914	1	81	n/a	n/a	1	0	0
1263.114	1	81	n/a	n/a	1	0	0
1263.314	1	81	n/a	n/a	1	0	0
1263.514	1	81	n/a	n/a	1	0	0
1263.714	1	81	n/a	n/a	1	0	0
1263.914	1	81	n/a	n/a	1	0	0
1264.114	1	81	n/a	n/a	1	0	0
1264.314	1	81	n/a	n/a	1	0	0
1264.514	1	81	n/a	n/a	1	0	0
1265.757	1	10	n/a	n/a	1	50	1
1266.7904	1	10	n/a	n/a	1	50	2
1267.8402	1	10	n/a	n/a	1	50	3
1269.1236	1	10	n/a	n/a	1	50	4
1270.1902	1	10	n/a	n/a	1	50	5
1271.2234	1	10	n/a	n/a	1	50	6
1272.4734	1	10	n/a	n/a	1	50	7
1273.7232	1	21	n/a	n/a	1	50	0
1274.7732	1	10	n/a	n/a	1	50	1
1276.0232	1	10	n/a	n/a	1	50	2
1277.073	1	10	n/a	n/a	1	50	3
1278.1564	1	10	n/a	n/a	1	50	4
1279.2062	1	10	n/a	n/a	1	50	5
1280.2562	1	21	n/a	n/a	1	50	0
1281.4728	1	10	n/a	n/a	1	50	1
1282.5728	1	10	n/a	n/a	1	50	2
1283.7394	1	10	n/a	n/a	1	50	3
1284.906	1	21	n/a	n/a	1	50	0
1286.1892	1	10	n/a	n/a	1	50	1
1287.4892	1	10	n/a	n/a	1	50	2
1288.2446	1	81	n/a	n/a	1	0	0
1288.4446	1	81	n/a	n/a	1	0	0
1288.6446	1	81	n/a	n/a	1	0	0
1288.8446	1	81	n/a	n/a	1	0	0
1289.0446	1	81	n/a	n/a	1	0	0
1289.2446	1	81	n/a	n/a	1	0	0
1289.4446	1	81	n/a	n/a	1	0	0
1289.6446	1	81	n/a	n/a	1	0	0
1289.8446	1	81	n/a	n/a	1	0	0
1290.0446	1	81	n/a	n/a	1	0	0
1291.2722	1	10	n/a	n/a	1	50	1
1292.4056	1	21	n/a	n/a	1	50	0
1293.5554	1	10	n/a	n/a	1	50	1
1294.7388	1	10	n/a	n/a	1	50	2
1295.8554	1	10	n/a	n/a	1	50	3
1296.9886	1	10	n/a	n/a	1	50	4
1298.1718	1	10	n/a	n/a	1	50	5
1299.4884	1	10	n/a	n/a	1	50	6
1300.7884	1	10	n/a	n/a	1	50	7
1302.105	1	21	n/a	n/a	1	50	0
1303.3048	1	10	n/a	n/a	1	50	1
1304.5548	1	10	n/a	n/a	1	50	2
1305.788	1	10	n/a	n/a	1	50	3
1307.088	1	10	n/a	n/a	1	50	4
1308.1712	1	10	n/a	n/a	1	50	5
1309.4712	1	10	n/a	n/a	1	50	6
1310.7878	1	10	n/a	n/a	1	50	7
1312.1044	1	21	n/a	n/a	1	50	0
1313.1876	1	10	n/a	n/a	1	50	1
1314.4542	1	10	n/a	n/a	1	50	2
1315.4886	1	81	n/a	n/a	1	0	0
1315.6886	1	81	n/a	n/a	1	0	0
1315.8886	1	81	n/a	n/a	1	0	0
1316.0886	1	81	n/a	n/a	1	0	0
1316.2886	1	81	n/a	n/a	1	0	0
1316.4886	1	81	n/a	n/a	1	0	0
1316.6886	1	81	n/a	n/a	1	0	0
1316.8886	1	81	n/a	n/a	1	0	0
1317.0886	1	81	n/a	n/a	1	0	0
1317.2886	1	81	n/a	n/a	1	0	0
1318.5872	1	10	n/a	n/a	1	50	1
1319.7372	1	10	n/a	n/a	1	50	2
1320.8872	1	10	n/a	n/a	1	50	3
1322.1538	1	10	n/a	n/a	1	50	4
1323.3704	1	10	n/a	n/a	1	50	5
1324.5036	1	10	n/a	n/a	1	50	6
1325.7368	1	10	n/a	n/a	1	50	7
1326.9702	1	21	n/a	n/a	1	50	0
1328.0534	1	10	n/a	n/a	1	50	1
1329.1366	1	21	n/a	n/a	1	50	0
1330.37	1	10	n/a	n/a	1	50	1
1331.6032	1	21	n/a	n/a	1	50	0
1332.8364	1	10	n/a	n/a	1	50	1
1334.0698	1	21	n/a	n/a	1	50	0
1335.1864	1	10	n/a	n/a	1	50	1
1336.2362	1	10	n/a	n/a	1	50	2
1337.4196	1	10	n/a	n/a	1	50	3
1338.5194	1	10	n/a	n/a	1	50	4
1339.586	1	10	n/a	n/a	1	50	5
1340.6526	1	21	n/a	n/a	1	50	0
1362.3558	1	81	n/a	n/a	1	0	0
1362.5558	1	81	n/a	n/a	1	0	0
1362.7558	1	81	n/a	n/a	1	0	0
1362.9558	1	81	n/a	n/a	1	0	0
1363.1558	1	81	n/a	n/a	1	0	0
1363.3558	1	81	n/a	n/a	1	0	0
1363.5558	1	81	n/a	n/a	1	0	0
1363.7558	1	81	n/a	n/a	1	0	0
1363.9558	1	81	n/a	n/a	1	0	0
1364.1558	1	81	n/a	n/a	1	0	0
1365.5012	1	10	n/a	n/a	1	51	1
1366.8178	1	10	n/a	n/a	1	51	2
1368.101	1	10	n/a	n/a	1	51	3
1369.3842	1	21	n/a	n/a	1	51	0
1370.4842	1	10	n/a	n/a	1	51	1
1371.7342	1	10	n/a	n/a	1	51	2
1372.9008	1	10	n/a	n/a	1	51	3
1374.2006	1	10	n/a	n/a	1	51	4
1375.2506	1	10	n/a	n/a	1	51	5
1376.4006	1	10	n/a	n/a	1	51	6
1377.4338	1	10	n/a	n/a	1	51	7
1378.467	1	21	n/a	n/a	1	51	0
1379.567	1	10	n/a	n/a	1	51	1
1380.667	1	21	n/a	n/a	1	51	0
1381.8502	1	10	n/a	n/a	1	51	1
1382.9668	1	10	n/a	n/a	1	51	2
1384.0334	1	10	n/a	n/a	1	51	3
1385.1	1	21	n/a	n/a	1	51	0
1386.2166	1	10	n/a	n/a	1	51	1
1387.4998	1	10	n/a	n/a	1	51	2
1388.5614	1	81	n/a	n/a	1	0	0
1388.7614	1	81	n/a	n/a	1	0	0
1388.9614	1	81	n/a	n/a	1	0	0
1389.1614	1	81	n/a	n/a	1	0	0
1389.3614	1	81	n/a	n/a	1	0	0
1389.5614	1	81	n/a	n/a	1	0	0
1389.7614	1	81	n/a	n/a	1	0	0
1389.9614	1	81	n/a	n/a	1	0	0
1390.1614	1	81	n/a	n/a	1	0	0
1390.3614	1	81	n/a	n/a	1	0	0
1391.6496	1	10	n/a	n/a	1	51	1
1392.7162	1	10	n/a	n/a	1	51	2
1394.0328	1	10	n/a	n/a	1	51	3
1395.266	1	10	n/a	n/a	1	51	4
1396.3826	1	10	n/a	n/a	1	51	5
1397.4992	1	21	n/a	n/a	1	51	0
1398.7992	1	10	n/a	n/a	1	51	1
1399.8658	1	10	n/a	n/a	1	51	2
1400.9158	1	10	n/a	n/a	1	51	3
1401.9656	1	21	n/a	n/a	1	51	0
1403.149	1	10	n/a	n/a	1	51	1
1404.2656	1	10	n/a	n/a	1	51	2
1405.2988	1	10	n/a	n/a	1	51	3
1406.582	1	10	n/a	n/a	1	51	4
1407.682	1	10	n/a	n/a	1	51	5
1408.782	1	21	n/a	n/a	1	51	0
1409.9986	1	10	n/a	n/a	1	51	1
1411.0652	1	10	n/a	n/a	1	51	2
1412.365	1	10	n/a	n/a	1	51	3
1413.515	1	10	n/a	n/a	1	51	4
1414.5316	1	81	n/a	n/a	1	0	0
1414.7316	1	81	n/a	n/a	1	0	0
1414.9316	1	81	n/a	n/a	1	0	0
1415.1316	1	81	n/a	n/a	1	0	0
1415.3316	1	81	n/a	n/a	1	0	0
1415.5316	1	81	n/a	n/a	1	0	0
1415.7316	1	81	n/a	n/a	1	0	0
1415.9316	1	81	n/a	n/a	1	0	0
1416.1316	1	81	n/a	n/a	1	0	0
1416.3316	1	81	n/a	n/a	1	0	0
1417.748	1	10	n/a	n/a	1	51	1
1418.9814	1	10	n/a	n/a	1	51	2
1420.2646	1	10	n/a	n/a	1	51	3
1421.3812	1	10	n/a	n/a	1	51	4
1422.4812	1	10	n/a	n/a	1	51	5
1423.8144	1	10	n/a	n/a	1	51	6
1425.031	1	10	n/a	n/a	1	51	7
1426.2476	1	21	n/a	n/a	1	51	0
1427.3642	1	10	n/a	n/a	1	51	1
1428.3974	1	10	n/a	n/a	1	51	2
1429.5974	1	10	n/a	n/a	1	51	3
1430.7974	1	21	n/a	n/a	1	51	0
1432.0472	1	10	n/a	n/a	1	51	1
1433.3472	1	10	n/a	n/a	1	51	2
1434.4304	1	10	n/a	n/a	1	51	3
1435.4804	1	10	n/a	n/a	1	51	4
1436.797	1	10	n/a	n/a	1	51	5
1438.1136	1	21	n/a	n/a	1	51	0
1439.3968	1	10	n/a	n/a	1	51	1
1440.68	1	21	n/a	n/a	1	51	0
1441.7594	1	81	n/a	n/a	1	0	0
1441.9594	1	81	n/a	n/a	1	0	0
1442.1594	1	81	n/a	n/a	1	0	0
1442.3594	1	81	n/a	n/a	1	0	0
1442.5594	1	81	n/a	n/a	1	0	0
1442.7594	1	81	n/a	n/a	1	0	0
1442.9594	1	81	n/a	n/a	1	0	0
1443.1594	1	81	n/a	n/a	1	0	0
1443.3594	1	81	n/a	n/a	1	0	0
1443.5594	1	81	n/a	n/a	1	0	0
1444.9464	1	10	n/a	n/a	1	51	1
1446.063	1	10	n/a	n/a	1	51	2
1447.1296	1	10	n/a	n/a	1	51	3
1448.2296	1	10	n/a	n/a	1	51	4
1449.3628	1	10	n/a	n/a	1	51	5
1450.4962	1	21	n/a	n/a	1	51	0
1451.6294	1	10	n/a	n/a	1	51	1
1452.796	1	10	n/a	n/a	1	51	2
1453.9792	1	10	n/a	n/a	1	51	3
1455.2126	1	10	n/a	n/a	1	51	4
1456.3624	1	10	n/a	n/a	1	51	5
1457.6458	1	10	n/a	n/a	1	51	6
1458.7124	1	10	n/a	n/a	1	51	7
1459.779	1	21	n/a	n/a	1	51	0
1460.8122	1	10	n/a	n/a	1	51	1
1462.1288	1	10	n/a	n/a	1	51	2
1463.2454	1	10	n/a	n/a	1	51	3
1464.362	1	21	n/a	n/a	1	51	0
1465.6786	1	10	n/a	n/a	1	51	1
1466.9952	1	21	n/a	n/a	1	51	0
1468.0288	1	81	n/a	n/a	1	0	0
1468.2288	1	81	n/a	n/a	1	0	0
1468.4288	1	81	n/a	n/a	1	0	0
1468.6288	1	81	n/a	n/a	1	0	0
1468.8288	1	81	n/a	n/a	1	0	0
1469.0288	1	81	n/a	n/a	1	0	0
1469.2288	1	81	n/a	n/a	1	0	0
1469.4288	1	81	n/a	n/a	1	0	0
1469.6288	1	81	n/a	n/a	1	0	0
1469.8288	1	81	n/a	n/a	1	0	0
1471.0616	1	10	n/a	n/a	1	51	1
1472.1116	1	10	n/a	n/a	1	51	2
1473.3282	1	10	n/a	n/a	1	51	3
1474.5446	1	21	n/a	n/a	1	51	0
1475.6446	1	10	n/a	n/a	1	51	1
1476.7446	1	21	n/a	n/a	1	51	0
1477.8612	1	10	n/a	n/a	1	51	1
1479.0944	1	10	n/a	n/a	1	51	2
1480.1944	1	10	n/a	n/a	1	51	3
1481.4442	1	10	n/a	n/a	1	51	4
1482.7108	1	10	n/a	n/a	1	51	5
1483.9774	1	21	n/a	n/a	1	51	0
1485.0608	1	10	n/a	n/a	1	51	1
1486.3774	1	10	n/a	n/a	1	51	2
1487.694	1	10	n/a	n/a	1	51	3
1488.8438	1	10	n/a	n/a	1	51	4
1489.9772	1	10	n/a	n/a	1	51	5
1491.2104	1	10	n/a	n/a	1	51	6
1492.2604	1	10	n/a	n/a	1	51	7
1493.3102	1	21	n/a	n/a	1	51	0
1563.6972	1	82	n/a	n/a	1	0	0
1564.0512	1	82	n/a	n/a	1	0	0
1564.1842	1	82	n/a	n/a	1	0	0
1564.3782	1	82	n/a	n/a	1	0	0
1564.4902	1	82	n/a	n/a	1	0	0
1564.6972	1	82	n/a	n/a	1	0	0
1564.7492	1	82	n/a	n/a	1	0	0
1565.0272	1	82	n/a	n/a	1	0	0
1565.4522	1	82	n/a	n/a	1	0	0
1565.5492	1	82	n/a	n/a	1	0	0
1566.6726	1	10	n/a	n/a	1	52	1
1567.7724	1	10	n/a	n/a	1	52	2
1568.889	1	10	n/a	n/a	1	52	3
1570.039	1	10	n/a	n/a	1	52	4
1571.3556	1	10	n/a	n/a	1	52	5
1572.6722	1	10	n/a	n/a	1	52	6
1573.7388	1	10	n/a	n/a	1	52	7
1574.8054	1	21	n/a	n/a	1	52	0
1575.9386	1	10	n/a	n/a	1	52	1
1577.1386	1	10	n/a	n/a	1	52	2
1578.4552	1	10	n/a	n/a	1	52	3
1579.7718	1	21	n/a	n/a	1	52	0
1580.9384	1	10	n/a	n/a	1	52	1
1582.105	1	21	n/a	n/a	1	52	0
1583.1882	1	10	n/a	n/a	1	52	1
1584.5048	1	10	n/a	n/a	1	52	2
1585.5714	1	10	n/a	n/a	1	52	3
1586.638	1	21	n/a	n/a	1	52	0
1587.738	1	10	n/a	n/a	1	52	1
1588.9046	1	10	n/a	n/a	1	52	2
1589.628	1	82	n/a	n/a	1	0	0
1589.931	1	82	n/a	n/a	1	0	0
1589.968	1	82	n/a	n/a	1	0	0
1590.11	1	82	n/a	n/a	1	0	0
1590.172	1	82	n/a	n/a	1	0	0
1590.628	1	82	n/a	n/a	1	0	0
1590.69	1	82	n/a	n/a	1	0	0
1590.929	1	82	n/a	n/a	1	0	0
1591.099	1	82	n/a	n/a	1	0	0
1591.131	1	82	n/a	n/a	1	0	0
1592.8376	1	10	n/a	n/a	1	52	1
1593.921	1	10	n/a	n/a	1	52	2
1594.9876	1	10	n/a	n/a	1	52	3
1596.2374	1	10	n/a	n/a	1	52	4
1597.3208	1	10	n/a	n/a	1	52	5
1598.554	1	10	n/a	n/a	1	52	6
1599.5872	1	10	n/a	n/a	1	52	7
1600.6206	1	21	n/a	n/a	1	52	0
1601.7538	1	10	n/a	n/a	1	52	1
1603.037	1	10	n/a	n/a	1	52	2
1604.137	1	10	n/a	n/a	1	52	3
1605.4036	1	10	n/a	n/a	1	52	4
1606.5036	1	10	n/a	n/a	1	52	5
1607.6034	1	21	n/a	n/a	1	52	0
1608.7034	1	10	n/a	n/a	1	52	1
1609.87	1	10	n/a	n/a	1	52	2
1610.9366	1	10	n/a	n/a	1	52	3
1612.0532	1	10	n/a	n/a	1	52	4
1613.1532	1	10	n/a	n/a	1	52	5
1614.253	1	21	n/a	n/a	1	52	0
1615.3528	1	82	n/a	n/a	1	0	0
1615.5088	1	82	n/a	n/a	1	0	0
1615.8488	1	82	n/a	n/a	1	0	0
1616.1148	1	82	n/a	n/a	1	0	0
1616.2108	1	82	n/a	n/a	1	0	0
1616.3528	1	82	n/a	n/a	1	0	0
1616.3738	1	82	n/a	n/a	1	0	0
1616.5098	1	82	n/a	n/a	1	0	0
1616.7848	1	82	n/a	n/a	1	0	0
1616.8308	1	82	n/a	n/a	1	0	0
1618.3362	1	10	n/a	n/a	1	52	1
1619.4194	1	21	n/a	n/a	1	52	0
1620.5194	1	10	n/a	n/a	1	52	1
1621.6192	1	10	n/a	n/a	1	52	2
1622.8026	1	10	n/a	n/a	1	52	3
1623.9858	1	21	n/a	n/a	1	52	0
1625.3024	1	10	n/a	n/a	1	52	1
1626.4356	1	10	n/a	n/a	1	52	2
1627.669	1	10	n/a	n/a	1	52	3
1628.8856	1	10	n/a	n/a	1	52	4
1629.9188	1	10	n/a	n/a	1	52	5
1631.0188	1	10	n/a	n/a	1	52	6
1632.102	1	10	n/a	n/a	1	52	7
1633.1852	1	21	n/a	n/a	1	52	0
1634.2852	1	10	n/a	n/a	1	52	1
1635.6018	1	10	n/a	n/a	1	52	2
1636.7518	1	10	n/a	n/a	1	52	3
1637.835	1	10	n/a	n/a	1	52	4
1639.0016	1	10	n/a	n/a	1	52	5
1640.1682	1	21	n/a	n/a	1	52	0
1641.2008	1	82	n/a	n/a	1	0	0
1641.5158	1	82	n/a	n/a	1	0	0
1641.5538	1	82	n/a	n/a	1	0	0
1641.7708	1	82	n/a	n/a	1	0	0
1642.0238	1	82	n/a	n/a	1	0	0
1642.2008	1	82	n/a	n/a	1	0	0
1642.2788	1	82	n/a	n/a	1	0	0
1642.4368	1	82	n/a	n/a	1	0	0
1642.7728	1	82	n/a	n/a	1	0	0
1643.1308	1	82	n/a	n/a	1	0	0
1644.168	1	10	n/a	n/a	1	52	1
1645.2512	1	10	n/a	n/a	1	52	2
1646.3678	1	10	n/a	n/a	1	52	3
1647.4678	1	10	n/a	n/a	1	52	4
1648.551	1	10	n/a	n/a	1	52	5
1649.6344	1	21	n/a	n/a	1	52	0
1650.8842	1	10	n/a	n/a	1	52	1
1652.1008	1	10	n/a	n/a	1	52	2
1653.3674	1	10	n/a	n/a	1	52	3
1654.6174	1	10	n/a	n/a	1	52	4
1655.8172	1	10	n/a	n/a	1	52	5
1657.0172	1	21	n/a	n/a	1	52	0
1658.1004	1	10	n/a	n/a	1	52	1
1659.3004	1	10	n/a	n/a	1	52	2
1660.5336	1	10	n/a	n/a	1	52	3
1661.6002	1	10	n/a	n/a	1	52	4
1662.8836	1	10	n/a	n/a	1	52	5
1664.0334	1	10	n/a	n/a	1	52	6
1665.35	1	10	n/a	n/a	1	52	7
1666.6666	1	21	n/a	n/a	1	52	0
1667.4164	1	82	n/a	n/a	1	0	0
1667.4504	1	82	n/a	n/a	1	0	0
1667.8124	1	82	n/a	n/a	1	0	0
1668.1104	1	82	n/a	n/a	1	0	0
1668.2384	1	82	n/a	n/a	1	0	0
1668.4164	1	82	n/a	n/a	1	0	0
1668.7294	1	82	n/a	n/a	1	0	0
1669.1024	1	82	n/a	n/a	1	0	0
1669.2384	1	82	n/a	n/a	1	0	0
1669.2684	1	82	n/a	n/a	1	0	0
1670.4498	1	10	n/a	n/a	1	52	1
1671.4996	1	10	n/a	n/a	1	52	2
1672.783	1	10	n/a	n/a	1	52	3
1674.0662	1	21	n/a	n/a	1	52	0
1675.1328	1	10	n/a	n/a	1	52	1
1676.3994	1	10	n/a	n/a	1	52	2
1677.5826	1	10	n/a	n/a	1	52	3
1678.766	1	21	n/a	n/a	1	52	0
1679.8826	1	10	n/a	n/a	1	52	1
1680.9492	1	10	n/a	n/a	1	52	2
1682.2324	1	10	n/a	n/a	1	52	3
1683.4656	1	10	n/a	n/a	1	52	4
1684.5988	1	10	n/a	n/a	1	52	5
1685.7322	1	21	n/a	n/a	1	52	0
1687.0488	1	10	n/a	n/a	1	52	1
1688.3654	1	10	n/a	n/a	1	52	2
1689.682	1	10	n/a	n/a	1	52	3
1690.9986	1	21	n/a	n/a	1	52	0
1692.2984	1	10	n/a	n/a	1	52	1
1693.5484	1	10	n/a	n/a	1	52	2
1709.2486	1	82	n/a	n/a	1	0	0
1709.4136	1	82	n/a	n/a	1	0	0
1709.6656	1	82	n/a	n/a	1	0	0
1710.0956	1	82	n/a	n/a	1	0	0
1710.1966	1	82	n/a	n/a	1	0	0
1710.2486	1	82	n/a	n/a	1	0	0
1710.3626	1	82	n/a	n/a	1	0	0
1710.6156	1	82	n/a	n/a	1	0	0
1710.8416	1	82	n/a	n/a	1	0	0
1711.2116	1	82	n/a	n/a	1	0	0
1712.364	1	10	n/a	n/a	1	50	1
1713.4306	1	10	n/a	n/a	1	50	2
1714.6138	1	10	n/a	n/a	1	50	3
1715.797	1	21	n/a	n/a	1	50	0
1716.9636	1	10	n/a	n/a	1	50	1
1718.1302	1	10	n/a	n/a	1	50	2
1719.3468	1	10	n/a	n/a	1	50	3
1720.48	1	10	n/a	n/a	1	50	4
1721.58	1	10	n/a	n/a	1	50	5
1722.68	1	21	n/a	n/a	1	50	0
1723.8966	1	10	n/a	n/a	1	50	1
1725.1132	1	21	n/a	n/a	1	50	0
1726.2798	1	10	n/a	n/a	1	50	1
1727.3796	1	10	n/a	n/a	1	50	2
1728.413	1	10	n/a	n/a	1	50	3
1729.5128	1	10	n/a	n/a	1	50	4
1730.6962	1	10	n/a	n/a	1	50	5
1731.9294	1	10	n/a	n/a	1	50	6
1733.1126	1	10	n/a	n/a	1	50	7
1734.296	1	21	n/a	n/a	1	50	0
1735.2916	1	82	n/a	n/a	1	0	0
1735.6706	1	82	n/a	n/a	1	0	0
1735.6936	1	82	n/a	n/a	1	0	0
1735.8596	1	82	n/a	n/a	1	0	0
1736.1996	1	82	n/a	n/a	1	0	0
1736.2916	1	82	n/a	n/a	1	0	0
1736.5846	1	82	n/a	n/a	1	0	0
1736.9216	1	82	n/a	n/a	1	0	0
1737.0646	1	82	n/a	n/a	1	0	0
1737.0906	1	82	n/a	n/a	1	0	0
1738.3956	1	10	n/a	n/a	1	50	1
1739.629	1	10	n/a	n/a	1	50	2
1740.7456	1	10	n/a	n/a	1	50	3
1741.8622	1	21	n/a	n/a	1	50	0
1742.962	1	10	n/a	n/a	1	50	1
1744.1954	1	10	n/a	n/a	1	50	2
1745.3952	1	10	n/a	n/a	1	50	3
1746.5618	1	10	n/a	n/a	1	50	4
1747.6618	1	10	n/a	n/a	1	50	5
1748.7618	1	21	n/a	n/a	1	50	0
1750.0284	1	10	n/a	n/a	1	50	1
1751.1116	1	10	n/a	n/a	1	50	2
1752.1616	1	10	n/a	n/a	1	50	3
1753.2114	1	21	n/a	n/a	1	50	0
1754.3614	1	10	n/a	n/a	1	50	1
1755.4446	1	10	n/a	n/a	1	50	2
1756.628	1	10	n/a	n/a	1	50	3
1757.8112	1	21	n/a	n/a	1	50	0
1759.0112	1	10	n/a	n/a	1	50	1
1760.061	1	10	n/a	n/a	1	50	2
1761.0466	1	82	n/a	n/a	1	0	0
1761.2706	1	82	n/a	n/a	1	0	0
1761.4466	1	82	n/a	n/a	1	0	0
1761.5466	1	82	n/a	n/a	1	0	0
1761.6176	1	82	n/a	n/a	1	0	0
1762.0466	1	82	n/a	n/a	1	0	0
1762.3556	1	82	n/a	n/a	1	0	0
1762.4176	1	82	n/a	n/a	1	0	0
1762.8426	1	82	n/a	n/a	1	0	0
1762.9676	1	82	n/a	n/a	1	0	0
1764.0608	1	10	n/a	n/a	1	50	1
1765.344	1	10	n/a	n/a	1	50	2
1766.4108	1	10	n/a	n/a	1	50	3
1767.7272	1	10	n/a	n/a	1	50	4
1768.8772	1	10	n/a	n/a	1	50	5
1769.9604	1	10	n/a	n/a	1	50	6
1771.1104	1	10	n/a	n/a	1	50	7
1772.2604	1	21	n/a	n/a	1	50	0
1773.4936	1	10	n/a	n/a	1	50	1
1774.7936	1	10	n/a	n/a	1	50	2
1775.9602	1	10	n/a	n/a	1	50	3
1777.26	1	10	n/a	n/a	1	50	4
1778.41	1	10	n/a	n/a	1	50	5
1779.56	1	21	n/a	n/a	1	50	0
1780.7766	1	10	n/a	n/a	1	50	1
1782.0098	1	10	n/a	n/a	1	50	2
1783.1098	1	10	n/a	n/a	1	50	3
1784.3764	1	10	n/a	n/a	1	50	4
1785.5262	1	10	n/a	n/a	1	50	5
1786.7094	1	10	n/a	n/a	1	50	6
1787.794	1	82	n/a	n/a	1	0	0
1788.131	1	82	n/a	n/a	1	0	0
1788.524	1	82	n/a	n/a	1	0	0
1788.552	1	82	n/a	n/a	1	0	0
1788.706	1	82	n/a	n/a	1	0	0
1788.794	1	82	n/a	n/a	1	0	0
1789.155	1	82	n/a	n/a	1	0	0
1789.436	1	82	n/a	n/a	1	0	0
1789.681	1	82	n/a	n/a	1	0	0
1789.756	1	82	n/a	n/a	1	0	0
1790.9092	1	10	n/a	n/a	1	50	1
1792.1258	1	21	n/a	n/a	1	50	0
1793.3424	1	10	n/a	n/a	1	50	1
1794.559	1	21	n/a	n/a	1	50	0
1795.6756	1	10	n/a	n/a	1	50	1
1796.9256	1	10	n/a	n/a	1	50	2
1797.9754	1	10	n/a	n/a	1	50	3
1799.0088	1	10	n/a	n/a	1	50	4
1800.3254	1	10	n/a	n/a	1	50	5
1801.442	1	10	n/a	n/a	1	50	6
1802.6252	1	10	n/a	n/a	1	50	7
1803.8084	1	21	n/a	n/a	1	50	0
1804.8418	1	10	n/a	n/a	1	50	1
1805.9416	1	10	n/a	n/a	1	50	2
1807.0916	1	10	n/a	n/a	1	50	3
1808.2748	1	10	n/a	n/a	1	50	4
1809.5582	1	10	n/a	n/a	1	50	5
1810.8414	1	21	n/a	n/a	1	50	0
1812.0246	1	10	n/a	n/a	1	50	1
1813.1412	1	10	n/a	n/a	1	50	2
1813.9568	1	82	n/a	n/a	1	0	0
1814.3288	1	82	n/a	n/a	1	0	0
1814.4808	1	82	n/a	n/a	1	0	0
1814.5918	1	82	n/a	n/a	1	0	0
1814.8988	1	82	n/a	n/a	1	0	0
1814.9568	1	82	n/a	n/a	1	0	0
1815.3028	1	82	n/a	n/a	1	0	0
1815.3358	1	82	n/a	n/a	1	0	0
1815.5268	1	82	n/a	n/a	1	0	0
1815.6418	1	82	n/a	n/a	1	0	0
1817.1576	1	10	n/a	n/a	1	50	1
1818.4742	1	10	n/a	n/a	1	50	2
1819.6576	1	10	n/a	n/a	1	50	3
1820.9242	1	10	n/a	n/a	1	50	4
1822.1408	1	10	n/a	n/a	1	50	5
1823.3574	1	21	n/a	n/a	1	50	0
1824.5906	1	10	n/a	n/a	1	50	1
1825.7072	1	10	n/a	n/a	1	50	2
1826.8404	1	10	n/a	n/a	1	50	3
1828.0404	1	10	n/a	n/a	1	50	4
1829.1236	1	10	n/a	n/a	1	50	5
1830.207	1	21	n/a	n/a	1	50	0
1831.2736	1	10	n/a	n/a	1	50	1
1832.4402	1	10	n/a	n/a	1	50	2
1833.5568	1	10	n/a	n/a	1	50	3
1834.6734	1	21	n/a	n/a	1	50	0
1835.8566	1	10	n/a	n/a	1	50	1
1836.9066	1	10	n/a	n/a	1	50	2
1838.1064	1	10	n/a	n/a	1	50	3
1839.3398	1	10	n/a	n/a	1	50	4
1875.6386	1	81	n/a	n/a	1	0	0
1875.8386	1	81	n/a	n/a	1	0	0
1876.0386	1	81	n/a	n/a	1	0	0
1876.2386	1	81	n/a	n/a	1	0	0
1876.4386	1	81	n/a	n/a	1	0	0
1876.6386	1	81	n/a	n/a	1	0	0
1876.8386	1	81	n/a	n/a	1	0	0
1877.0386	1	81	n/a	n/a	1	0	0
1877.2386	1	81	n/a	n/a	1	0	0
1877.4386	1	81	n/a	n/a	1	0	0
1878.804	1	10	n/a	n/a	1	51	1
1879.9206	1	10	n/a	n/a	1	51	2
1881.0706	1	10	n/a	n/a	1	51	3
1882.2204	1	21	n/a	n/a	1	51	0
1883.5204	1	10	n/a	n/a	1	51	1
1884.587	1	10	n/a	n/a	1	51	2
1885.687	1	10	n/a	n/a	1	51	3
1886.8868	1	10	n/a	n/a	1	51	4
1888.0034	1	10	n/a	n/a	1	51	5
1889.1368	1	10	n/a	n/a	1	51	6
1890.37	1	10	n/a	n/a	1	51	7
1891.6032	1	21	n/a	n/a	1	51	0
1892.6532	1	10	n/a	n/a	1	51	1
1893.9698	1	10	n/a	n/a	1	51	2
1895.253	1	10	n/a	n/a	1	51	3
1896.453	1	10	n/a	n/a	1	51	4
1897.703	1	10	n/a	n/a	1	51	5
1898.9528	1	21	n/a	n/a	1	51	0
1900.2528	1	10	n/a	n/a	1	51	1
1901.536	1	10	n/a	n/a	1	51	2
1902.4104	1	81	n/a	n/a	1	0	0
1902.6104	1	81	n/a	n/a	1	0	0
1902.8104	1	81	n/a	n/a	1	0	0
1903.0104	1	81	n/a	n/a	1	0	0
1903.2104	1	81	n/a	n/a	1	0	0
1903.4104	1	81	n/a	n/a	1	0	0
1903.6104	1	81	n/a	n/a	1	0	0
1903.8104	1	81	n/a	n/a	1	0	0
1904.0104	1	81	n/a	n/a	1	0	0
1904.2104	1	81	n/a	n/a	1	0	0
1905.4692	1	10	n/a	n/a	1	51	1
1906.619	1	10	n/a	n/a	1	51	2
1907.7524	1	10	n/a	n/a	1	51	3
1909.0356	1	10	n/a	n/a	1	51	4
1910.1854	1	10	n/a	n/a	1	51	5
1911.2354	1	10	n/a	n/a	1	51	6
1912.4854	1	10	n/a	n/a	1	51	7
1913.7352	1	21	n/a	n/a	1	51	0
1914.7686	1	10	n/a	n/a	1	51	1
1915.8018	1	21	n/a	n/a	1	51	0
1916.8518	1	10	n/a	n/a	1	51	1
1917.885	1	10	n/a	n/a	1	51	2
1919.1016	1	10	n/a	n/a	1	51	3
1920.235	1	10	n/a	n/a	1	51	4
1921.4848	1	10	n/a	n/a	1	51	5
1922.7348	1	21	n/a	n/a	1	51	0
1923.9346	1	10	n/a	n/a	1	51	1
1925.1012	1	10	n/a	n/a	1	51	2
1926.3178	1	10	n/a	n/a	1	51	3
1927.5344	1	21	n/a	n/a	1	51	0
1928.3942	1	81	n/a	n/a	1	0	0
1928.5942	1	81	n/a	n/a	1	0	0
1928.7942	1	81	n/a	n/a	1	0	0
1928.9942	1	81	n/a	n/a	1	0	0
1929.1942	1	81	n/a	n/a	1	0	0
1929.3942	1	81	n/a	n/a	1	0	0
1929.5942	1	81	n/a	n/a	1	0	0
1929.7942	1	81	n/a	n/a	1	0	0
1929.9942	1	81	n/a	n/a	1	0	0
1930.1942	1	81	n/a	n/a	1	0	0
1931.4676	1	10	n/a	n/a	1	51	1
1932.6508	1	21	n/a	n/a	1	51	0
1933.8174	1	10	n/a	n/a	1	51	1
1934.984	1	21	n/a	n/a	1	51	0
1936.1006	1	10	n/a	n/a	1	51	1
1937.2506	1	10	n/a	n/a	1	51	2
1938.4504	1	10	n/a	n/a	1	51	3
1939.667	1	10	n/a	n/a	1	51	4
1940.9836	1	10	n/a	n/a	1	51	5
1942.3002	1	21	n/a	n/a	1	51	0
1943.5336	1	10	n/a	n/a	1	51	1
1944.7668	1	21	n/a	n/a	1	51	0
1945.9834	1	10	n/a	n/a	1	51	1
1947.2	1	21	n/a	n/a	1	51	0
1948.4666	1	10	n/a	n/a	1	51	1
1949.7332	1	21	n/a	n/a	1	51	0
1950.833	1	10	n/a	n/a	1	51	1
1951.9664	1	10	n/a	n/a	1	51	2
1953.1662	1	10	n/a	n/a	1	51	3
1954.3996	1	10	n/a	n/a	1	51	4
1955.2492	1	81	n/a	n/a	1	0	0
1955.4492	1	81	n/a	n/a	1	0	0
1955.6492	1	81	n/a	n/a	1	0	0
1955.8492	1	81	n/a	n/a	1	0	0
1956.0492	1	81	n/a	n/a	1	0	0
1956.2492	1	81	n/a	n/a	1	0	0
1956.4492	1	81	n/a	n/a	1	0	0
1956.6492	1	81	n/a	n/a	1	0	0
1956.8492	1	81	n/a	n/a	1	0	0
1957.0492	1	81	n/a	n/a	1	0	0
1958.266	1	10	n/a	n/a	1	51	1
1959.3826	1	21	n/a	n/a	1	51	0
1960.6992	1	10	n/a	n/a	1	51	1
1962.0158	1	10	n/a	n/a	1	51	2
1963.149	1	10	n/a	n/a	1	51	3
1964.4322	1	10	n/a	n/a	1	51	4
1965.6156	1	10	n/a	n/a	1	51	5
1966.8488	1	10	n/a	n/a	1	51	6
1968.0154	1	10	n/a	n/a	1	51	7
1969.182	1	21	n/a	n/a	1	51	0
1970.2152	1	10	n/a	n/a	1	51	1
1971.2486	1	21	n/a	n/a	1	51	0
1972.4818	1	10	n/a	n/a	1	51	1
1973.515	1	10	n/a	n/a	1	51	2
1974.7316	1	10	n/a	n/a	1	51	3
1975.9482	1	21	n/a	n/a	1	51	0
1977.2482	1	10	n/a	n/a	1	51	1
1978.4314	1	10	n/a	n/a	1	51	2
1979.7314	1	10	n/a	n/a	1	51	3
1980.9646	1	10	n/a	n/a	1	51	4
1981.944	1	81	n/a	n/a	1	0	0
1982.144	1	81	n/a	n/a	1	0	0
1982.344	1	81	n/a	n/a	1	0	0
1982.544	1	81	n/a	n/a	1	0	0
1982.744	1	81	n/a	n/a	1	0	0
1982.944	1	81	n/a	n/a	1	0	0
1983.144	1	81	n/a	n/a	1	0	0
1983.344	1	81	n/a	n/a	1	0	0
1983.544	1	81	n/a	n/a	1	0	0
1983.744	1	81	n/a	n/a	1	0	0
1984.9978	1	10	n/a	n/a	1	51	1
1986.1644	1	21	n/a	n/a	1	51	0
1987.381	1	10	n/a	n/a	1	51	1
1988.5976	1	21	n/a	n/a	1	51	0
1989.7974	1	10	n/a	n/a	1	51	1
1990.9974	1	21	n/a	n/a	1	51	0
1992.064	1	10	n/a	n/a	1	51	1
1993.2806	1	10	n/a	n/a	1	51	2
1994.3472	1	10	n/a	n/a	1	51	3
1995.4138	1	21	n/a	n/a	1	51	0
1996.7304	1	10	n/a	n/a	1	51	1
1997.9302	1	10	n/a	n/a	1	51	2
1999.1636	1	10	n/a	n/a	1	51	3
2000.4134	1	10	n/a	n/a	1	51	4
2001.6634	1	10	n/a	n/a	1	51	5
2002.9634	1	10	n/a	n/a	1	51	6
2004.03	1	10	n/a	n/a	1	51	7
2005.0966	1	21	n/a	n/a	1	51	0
2006.2798	1	10	n/a	n/a	1	51	1
2007.463	1	21	n/a	n/a	1	51	0
