onset	duration	value	response	rt	good	TMS	seq
99.4486	1	82	n/a	n/a	1	0	0
99.7356	1	82	n/a	n/a	1	0	0
100.0996	1	82	n/a	n/a	1	0	0
100.2736	1	82	n/a	n/a	1	0	0
100.3996	1	82	n/a	n/a	1	0	0
100.4486	1	82	n/a	n/a	1	0	0
100.5186	1	82	n/a	n/a	1	0	0
100.8206	1	82	n/a	n/a	1	0	0
101.0576	1	82	n/a	n/a	1	0	0
101.1506	1	82	n/a	n/a	1	0	0
102.496	1	10	n/a	n/a	1	52	1
103.5958	1	21	n/a	n/a	1	52	0
104.6624	1	10	n/a	n/a	1	52	1
105.929	1	10	n/a	n/a	1	52	2
107.2456	1	10	n/a	n/a	1	52	3
108.3456	1	10	n/a	n/a	1	52	4
109.4788	1	10	n/a	n/a	1	52	5
110.7788	1	10	n/a	n/a	1	52	6
111.8788	1	10	n/a	n/a	1	52	7
112.9786	1	21	n/a	n/a	1	52	0
114.2286	1	10	n/a	n/a	1	52	1
115.4952	1	10	n/a	n/a	1	52	2
116.7784	1	10	n/a	n/a	1	52	3
117.9284	1	10	n/a	n/a	1	52	4
119.145	1	10	n/a	n/a	1	52	5
120.3616	1	21	n/a	n/a	1	52	0
121.4448	1	10	n/a	n/a	1	52	1
122.528	1	21	n/a	n/a	1	52	0
123.8114	1	10	n/a	n/a	1	52	1
124.9946	1	10	n/a	n/a	1	52	2
125.977	1	82	n/a	n/a	1	0	0
126.338	1	82	n/a	n/a	1	0	0
126.563	1	82	n/a	n/a	1	0	0
126.665	1	82	n/a	n/a	1	0	0
126.742	1	82	n/a	n/a	1	0	0
126.977	1	82	n/a	n/a	1	0	0
127.103	1	82	n/a	n/a	1	0	0
127.137	1	82	n/a	n/a	1	0	0
127.3	1	82	n/a	n/a	1	0	0
127.548	1	82	n/a	n/a	1	0	0
128.9278	1	10	n/a	n/a	1	52	1
129.9776	1	21	n/a	n/a	1	52	0
131.211	1	10	n/a	n/a	1	52	1
132.4442	1	21	n/a	n/a	1	52	0
133.5608	1	10	n/a	n/a	1	52	1
134.6774	1	21	n/a	n/a	1	52	0
135.7606	1	10	n/a	n/a	1	52	1
136.8772	1	10	n/a	n/a	1	52	2
137.9272	1	10	n/a	n/a	1	52	3
138.9772	1	21	n/a	n/a	1	52	0
140.2938	1	10	n/a	n/a	1	52	1
141.377	1	10	n/a	n/a	1	52	2
142.4102	1	10	n/a	n/a	1	52	3
143.4436	1	21	n/a	n/a	1	52	0
144.4768	1	10	n/a	n/a	1	52	1
145.6934	1	10	n/a	n/a	1	52	2
146.7266	1	10	n/a	n/a	1	52	3
147.8432	1	10	n/a	n/a	1	52	4
148.9598	1	10	n/a	n/a	1	52	5
150.0764	1	21	n/a	n/a	1	52	0
151.0702	1	82	n/a	n/a	1	0	0
151.3912	1	82	n/a	n/a	1	0	0
151.5532	1	82	n/a	n/a	1	0	0
151.8432	1	82	n/a	n/a	1	0	0
151.8932	1	82	n/a	n/a	1	0	0
152.0702	1	82	n/a	n/a	1	0	0
152.4002	1	82	n/a	n/a	1	0	0
152.4672	1	82	n/a	n/a	1	0	0
152.5932	1	82	n/a	n/a	1	0	0
152.6262	1	82	n/a	n/a	1	0	0
154.1262	1	10	n/a	n/a	1	52	1
155.2928	1	21	n/a	n/a	1	52	0
156.4928	1	10	n/a	n/a	1	52	1
157.6928	1	21	n/a	n/a	1	52	0
158.9426	1	10	n/a	n/a	1	52	1
160.1926	1	21	n/a	n/a	1	52	0
161.4758	1	10	n/a	n/a	1	52	1
162.5758	1	10	n/a	n/a	1	52	2
163.8256	1	10	n/a	n/a	1	52	3
165.0756	1	21	n/a	n/a	1	52	0
166.3256	1	10	n/a	n/a	1	52	1
167.5088	1	10	n/a	n/a	1	52	2
168.5754	1	10	n/a	n/a	1	52	3
169.6586	1	10	n/a	n/a	1	52	4
170.8752	1	10	n/a	n/a	1	52	5
172.0918	1	21	n/a	n/a	1	52	0
173.1584	1	10	n/a	n/a	1	52	1
174.4084	1	10	n/a	n/a	1	52	2
175.6916	1	10	n/a	n/a	1	52	3
176.9082	1	10	n/a	n/a	1	52	4
177.9018	1	82	n/a	n/a	1	0	0
178.3088	1	82	n/a	n/a	1	0	0
178.3368	1	82	n/a	n/a	1	0	0
178.4918	1	82	n/a	n/a	1	0	0
178.7568	1	82	n/a	n/a	1	0	0
178.9018	1	82	n/a	n/a	1	0	0
179.3158	1	82	n/a	n/a	1	0	0
179.4098	1	82	n/a	n/a	1	0	0
179.5578	1	82	n/a	n/a	1	0	0
179.6038	1	82	n/a	n/a	1	0	0
181.008	1	10	n/a	n/a	1	52	1
182.208	1	10	n/a	n/a	1	52	2
183.3578	1	10	n/a	n/a	1	52	3
184.5078	1	21	n/a	n/a	1	52	0
187.1244	1	21	n/a	n/a	1	52	0
188.2076	1	10	n/a	n/a	1	52	1
189.2742	1	10	n/a	n/a	1	52	2
190.5408	1	10	n/a	n/a	1	52	3
191.6908	1	10	n/a	n/a	1	52	4
192.8574	1	10	n/a	n/a	1	52	5
194.1406	1	10	n/a	n/a	1	52	6
195.3738	1	10	n/a	n/a	1	52	7
196.6072	1	21	n/a	n/a	1	52	0
197.857	1	10	n/a	n/a	1	52	1
199.1404	1	10	n/a	n/a	1	52	2
200.4236	1	10	n/a	n/a	1	52	3
201.6734	1	10	n/a	n/a	1	52	4
202.9068	1	10	n/a	n/a	1	52	5
204.09	1	21	n/a	n/a	1	52	0
205.0398	1	82	n/a	n/a	1	0	0
205.1648	1	82	n/a	n/a	1	0	0
205.4868	1	82	n/a	n/a	1	0	0
205.6588	1	82	n/a	n/a	1	0	0
205.7518	1	82	n/a	n/a	1	0	0
206.0398	1	82	n/a	n/a	1	0	0
206.1498	1	82	n/a	n/a	1	0	0
206.3768	1	82	n/a	n/a	1	0	0
206.7998	1	82	n/a	n/a	1	0	0
206.9518	1	82	n/a	n/a	1	0	0
208.1232	1	10	n/a	n/a	1	52	1
209.2064	1	10	n/a	n/a	1	52	2
210.4564	1	10	n/a	n/a	1	52	3
211.673	1	10	n/a	n/a	1	52	4
212.9562	1	10	n/a	n/a	1	52	5
214.2394	1	21	n/a	n/a	1	52	0
215.4394	1	10	n/a	n/a	1	52	1
216.5226	1	10	n/a	n/a	1	52	2
217.6226	1	10	n/a	n/a	1	52	3
218.7892	1	10	n/a	n/a	1	52	4
220.039	1	10	n/a	n/a	1	52	5
221.289	1	21	n/a	n/a	1	52	0
222.4722	1	10	n/a	n/a	1	52	1
223.5556	1	10	n/a	n/a	1	52	2
224.6888	1	10	n/a	n/a	1	52	3
225.8054	1	10	n/a	n/a	1	52	4
226.922	1	10	n/a	n/a	1	52	5
228.0386	1	21	n/a	n/a	1	52	0
229.1552	1	10	n/a	n/a	1	52	1
230.2884	1	10	n/a	n/a	1	52	2
239.805	1	82	n/a	n/a	1	0	0
240.232	1	82	n/a	n/a	1	0	0
240.557	1	82	n/a	n/a	1	0	0
240.588	1	82	n/a	n/a	1	0	0
240.677	1	82	n/a	n/a	1	0	0
240.805	1	82	n/a	n/a	1	0	0
241.206	1	82	n/a	n/a	1	0	0
241.25	1	82	n/a	n/a	1	0	0
241.47	1	82	n/a	n/a	1	0	0
241.735	1	82	n/a	n/a	1	0	0
242.9212	1	10	n/a	n/a	1	50	1
244.1376	1	10	n/a	n/a	1	50	2
245.2376	1	10	n/a	n/a	1	50	3
246.3376	1	21	n/a	n/a	1	50	0
247.4042	1	10	n/a	n/a	1	50	1
248.604	1	10	n/a	n/a	1	50	2
249.7874	1	10	n/a	n/a	1	50	3
250.9706	1	21	n/a	n/a	1	50	0
252.0372	1	10	n/a	n/a	1	50	1
253.1038	1	21	n/a	n/a	1	50	0
254.2038	1	10	n/a	n/a	1	50	1
255.287	1	10	n/a	n/a	1	50	2
256.587	1	10	n/a	n/a	1	50	3
257.6202	1	10	n/a	n/a	1	50	4
258.9034	1	10	n/a	n/a	1	50	5
259.9868	1	10	n/a	n/a	1	50	6
261.17	1	10	n/a	n/a	1	50	7
262.3532	1	21	n/a	n/a	1	50	0
263.5698	1	10	n/a	n/a	1	50	1
264.8364	1	10	n/a	n/a	1	50	2
265.78	1	82	n/a	n/a	1	0	0
265.842	1	82	n/a	n/a	1	0	0
265.926	1	82	n/a	n/a	1	0	0
266.193	1	82	n/a	n/a	1	0	0
266.602	1	82	n/a	n/a	1	0	0
266.78	1	82	n/a	n/a	1	0	0
266.882	1	82	n/a	n/a	1	0	0
266.959	1	82	n/a	n/a	1	0	0
267.161	1	82	n/a	n/a	1	0	0
267.568	1	82	n/a	n/a	1	0	0
268.8696	1	10	n/a	n/a	1	50	1
269.9862	1	10	n/a	n/a	1	50	2
271.1862	1	10	n/a	n/a	1	50	3
272.3528	1	10	n/a	n/a	1	50	4
273.5694	1	10	n/a	n/a	1	50	5
274.7526	1	10	n/a	n/a	1	50	6
275.9358	1	10	n/a	n/a	1	50	7
277.1192	1	21	n/a	n/a	1	50	0
278.2024	1	10	n/a	n/a	1	50	1
279.4856	1	10	n/a	n/a	1	50	2
280.8022	1	10	n/a	n/a	1	50	3
281.8854	1	10	n/a	n/a	1	50	4
283.0688	1	10	n/a	n/a	1	50	5
284.2686	1	10	n/a	n/a	1	50	6
285.5686	1	10	n/a	n/a	1	50	7
286.8686	1	21	n/a	n/a	1	50	0
288.1352	1	10	n/a	n/a	1	50	1
289.3518	1	10	n/a	n/a	1	50	2
290.6684	1	10	n/a	n/a	1	50	3
291.985	1	21	n/a	n/a	1	50	0
293.0516	1	82	n/a	n/a	1	0	0
293.3326	1	82	n/a	n/a	1	0	0
293.3726	1	82	n/a	n/a	1	0	0
293.5016	1	82	n/a	n/a	1	0	0
293.5846	1	82	n/a	n/a	1	0	0
294.0516	1	82	n/a	n/a	1	0	0
294.1626	1	82	n/a	n/a	1	0	0
294.2286	1	82	n/a	n/a	1	0	0
294.3846	1	82	n/a	n/a	1	0	0
294.6446	1	82	n/a	n/a	1	0	0
296.1514	1	10	n/a	n/a	1	50	1
297.3346	1	10	n/a	n/a	1	50	2
298.4012	1	10	n/a	n/a	1	50	3
299.4678	1	21	n/a	n/a	1	50	0
300.701	1	10	n/a	n/a	1	50	1
301.751	1	10	n/a	n/a	1	50	2
302.801	1	10	n/a	n/a	1	50	3
304.0508	1	10	n/a	n/a	1	50	4
305.2508	1	10	n/a	n/a	1	50	5
306.4508	1	21	n/a	n/a	1	50	0
307.5506	1	10	n/a	n/a	1	50	1
308.584	1	10	n/a	n/a	1	50	2
309.6838	1	10	n/a	n/a	1	50	3
310.8838	1	10	n/a	n/a	1	50	4
312.1004	1	10	n/a	n/a	1	50	5
313.317	1	21	n/a	n/a	1	50	0
314.5836	1	10	n/a	n/a	1	50	1
315.8836	1	10	n/a	n/a	1	50	2
317.1502	1	10	n/a	n/a	1	50	3
318.3668	1	10	n/a	n/a	1	50	4
319.1862	1	82	n/a	n/a	1	0	0
319.4792	1	82	n/a	n/a	1	0	0
319.7272	1	82	n/a	n/a	1	0	0
319.7932	1	82	n/a	n/a	1	0	0
319.9092	1	82	n/a	n/a	1	0	0
320.1862	1	82	n/a	n/a	1	0	0
320.4382	1	82	n/a	n/a	1	0	0
320.5392	1	82	n/a	n/a	1	0	0
320.7232	1	82	n/a	n/a	1	0	0
320.7652	1	82	n/a	n/a	1	0	0
322.1164	1	10	n/a	n/a	1	50	1
323.1498	1	21	n/a	n/a	1	50	0
324.2496	1	10	n/a	n/a	1	50	1
325.5162	1	10	n/a	n/a	1	50	2
326.7996	1	10	n/a	n/a	1	50	3
327.8994	1	10	n/a	n/a	1	50	4
329.1328	1	10	n/a	n/a	1	50	5
330.4494	1	10	n/a	n/a	1	50	6
331.5326	1	10	n/a	n/a	1	50	7
332.6158	1	21	n/a	n/a	1	50	0
333.8158	1	10	n/a	n/a	1	50	1
335.0158	1	21	n/a	n/a	1	50	0
336.099	1	10	n/a	n/a	1	50	1
337.1822	1	21	n/a	n/a	1	50	0
338.4656	1	10	n/a	n/a	1	50	1
339.7654	1	10	n/a	n/a	1	50	2
340.8654	1	10	n/a	n/a	1	50	3
341.9654	1	21	n/a	n/a	1	50	0
343.0986	1	10	n/a	n/a	1	50	1
344.2318	1	21	n/a	n/a	1	50	0
345.1536	1	82	n/a	n/a	1	0	0
345.4946	1	82	n/a	n/a	1	0	0
345.7276	1	82	n/a	n/a	1	0	0
345.7586	1	82	n/a	n/a	1	0	0
345.9056	1	82	n/a	n/a	1	0	0
346.1536	1	82	n/a	n/a	1	0	0
346.4766	1	82	n/a	n/a	1	0	0
346.6126	1	82	n/a	n/a	1	0	0
346.9636	1	82	n/a	n/a	1	0	0
346.9876	1	82	n/a	n/a	1	0	0
348.215	1	10	n/a	n/a	1	50	1
349.3982	1	10	n/a	n/a	1	50	2
350.6814	1	10	n/a	n/a	1	50	3
351.7648	1	10	n/a	n/a	1	50	4
352.848	1	10	n/a	n/a	1	50	5
354.148	1	10	n/a	n/a	1	50	6
355.2646	1	10	n/a	n/a	1	50	7
356.3812	1	21	n/a	n/a	1	50	0
357.4144	1	10	n/a	n/a	1	50	1
358.7144	1	10	n/a	n/a	1	50	2
359.781	1	10	n/a	n/a	1	50	3
361.0142	1	10	n/a	n/a	1	50	4
362.2474	1	10	n/a	n/a	1	50	5
363.3474	1	10	n/a	n/a	1	50	6
364.614	1	10	n/a	n/a	1	50	7
365.864	1	21	n/a	n/a	1	50	0
366.9806	1	10	n/a	n/a	1	50	1
368.2304	1	10	n/a	n/a	1	50	2
369.4804	1	10	n/a	n/a	1	50	3
370.6136	1	10	n/a	n/a	1	50	4
394.261	1	81	n/a	n/a	1	0	0
394.461	1	81	n/a	n/a	1	0	0
394.661	1	81	n/a	n/a	1	0	0
394.861	1	81	n/a	n/a	1	0	0
395.061	1	81	n/a	n/a	1	0	0
395.261	1	81	n/a	n/a	1	0	0
395.461	1	81	n/a	n/a	1	0	0
395.661	1	81	n/a	n/a	1	0	0
395.861	1	81	n/a	n/a	1	0	0
396.061	1	81	n/a	n/a	1	0	0
397.3454	1	10	n/a	n/a	1	51	1
398.4788	1	10	n/a	n/a	1	51	2
399.712	1	10	n/a	n/a	1	51	3
400.962	1	10	n/a	n/a	1	51	4
402.2118	1	10	n/a	n/a	1	51	5
403.4618	1	21	n/a	n/a	1	51	0
404.5784	1	10	n/a	n/a	1	51	1
405.895	1	10	n/a	n/a	1	51	2
406.9282	1	10	n/a	n/a	1	51	3
408.0448	1	10	n/a	n/a	1	51	4
409.2948	1	10	n/a	n/a	1	51	5
410.4614	1	10	n/a	n/a	1	51	6
411.7446	1	10	n/a	n/a	1	51	7
413.0278	1	21	n/a	n/a	1	51	0
414.0612	1	10	n/a	n/a	1	51	1
415.0944	1	21	n/a	n/a	1	51	0
416.3776	1	10	n/a	n/a	1	51	1
417.461	1	10	n/a	n/a	1	51	2
418.6276	1	10	n/a	n/a	1	51	3
419.7942	1	10	n/a	n/a	1	51	4
420.8556	1	81	n/a	n/a	1	0	0
421.0556	1	81	n/a	n/a	1	0	0
421.2556	1	81	n/a	n/a	1	0	0
421.4556	1	81	n/a	n/a	1	0	0
421.6556	1	81	n/a	n/a	1	0	0
421.8556	1	81	n/a	n/a	1	0	0
422.0556	1	81	n/a	n/a	1	0	0
422.2556	1	81	n/a	n/a	1	0	0
422.4556	1	81	n/a	n/a	1	0	0
422.6556	1	81	n/a	n/a	1	0	0
423.9272	1	10	n/a	n/a	1	51	1
425.1938	1	10	n/a	n/a	1	51	2
426.3438	1	10	n/a	n/a	1	51	3
427.4936	1	21	n/a	n/a	1	51	0
428.5602	1	10	n/a	n/a	1	51	1
429.6936	1	10	n/a	n/a	1	51	2
430.8102	1	10	n/a	n/a	1	51	3
431.9268	1	21	n/a	n/a	1	51	0
433.0434	1	10	n/a	n/a	1	51	1
434.16	1	21	n/a	n/a	1	51	0
435.3266	1	10	n/a	n/a	1	51	1
436.4266	1	10	n/a	n/a	1	51	2
437.5432	1	10	n/a	n/a	1	51	3
438.593	1	10	n/a	n/a	1	51	4
439.8264	1	10	n/a	n/a	1	51	5
441.0596	1	21	n/a	n/a	1	51	0
442.1428	1	10	n/a	n/a	1	51	1
443.2262	1	21	n/a	n/a	1	51	0
444.5094	1	10	n/a	n/a	1	51	1
445.576	1	10	n/a	n/a	1	51	2
446.3214	1	81	n/a	n/a	1	0	0
446.5214	1	81	n/a	n/a	1	0	0
446.7214	1	81	n/a	n/a	1	0	0
446.9214	1	81	n/a	n/a	1	0	0
447.1214	1	81	n/a	n/a	1	0	0
447.3214	1	81	n/a	n/a	1	0	0
447.5214	1	81	n/a	n/a	1	0	0
447.7214	1	81	n/a	n/a	1	0	0
447.9214	1	81	n/a	n/a	1	0	0
448.1214	1	81	n/a	n/a	1	0	0
449.2424	1	10	n/a	n/a	1	51	1
450.2758	1	21	n/a	n/a	1	51	0
451.3424	1	10	n/a	n/a	1	51	1
452.409	1	21	n/a	n/a	1	51	0
453.5588	1	10	n/a	n/a	1	51	1
454.6922	1	10	n/a	n/a	1	51	2
455.9254	1	10	n/a	n/a	1	51	3
457.192	1	21	n/a	n/a	1	51	0
458.4252	1	10	n/a	n/a	1	51	1
459.7252	1	10	n/a	n/a	1	51	2
460.8584	1	10	n/a	n/a	1	51	3
461.9916	1	21	n/a	n/a	1	51	0
463.1916	1	10	n/a	n/a	1	51	1
464.3582	1	10	n/a	n/a	1	51	2
465.6914	1	10	n/a	n/a	1	51	3
466.8414	1	10	n/a	n/a	1	51	4
468.0246	1	10	n/a	n/a	1	51	5
469.158	1	10	n/a	n/a	1	51	6
470.2578	1	10	n/a	n/a	1	51	7
471.3578	1	21	n/a	n/a	1	51	0
472.1154	1	81	n/a	n/a	1	0	0
472.3154	1	81	n/a	n/a	1	0	0
472.5154	1	81	n/a	n/a	1	0	0
472.7154	1	81	n/a	n/a	1	0	0
472.9154	1	81	n/a	n/a	1	0	0
473.1154	1	81	n/a	n/a	1	0	0
473.3154	1	81	n/a	n/a	1	0	0
473.5154	1	81	n/a	n/a	1	0	0
473.7154	1	81	n/a	n/a	1	0	0
473.9154	1	81	n/a	n/a	1	0	0
475.091	1	10	n/a	n/a	1	51	1
476.3576	1	10	n/a	n/a	1	51	2
477.6408	1	10	n/a	n/a	1	51	3
478.8074	1	10	n/a	n/a	1	51	4
480.0406	1	10	n/a	n/a	1	51	5
481.174	1	10	n/a	n/a	1	51	6
482.3406	1	10	n/a	n/a	1	51	7
483.507	1	21	n/a	n/a	1	51	0
484.607	1	10	n/a	n/a	1	51	1
485.9236	1	10	n/a	n/a	1	51	2
487.2236	1	10	n/a	n/a	1	51	3
488.4568	1	10	n/a	n/a	1	51	4
489.5068	1	10	n/a	n/a	1	51	5
490.7066	1	10	n/a	n/a	1	51	6
491.8066	1	10	n/a	n/a	1	51	7
492.9066	1	21	n/a	n/a	1	51	0
494.0064	1	10	n/a	n/a	1	51	1
495.123	1	10	n/a	n/a	1	51	2
496.173	1	10	n/a	n/a	1	51	3
497.2562	1	10	n/a	n/a	1	51	4
498.3086	1	81	n/a	n/a	1	0	0
498.5086	1	81	n/a	n/a	1	0	0
498.7086	1	81	n/a	n/a	1	0	0
498.9086	1	81	n/a	n/a	1	0	0
499.1086	1	81	n/a	n/a	1	0	0
499.3086	1	81	n/a	n/a	1	0	0
499.5086	1	81	n/a	n/a	1	0	0
499.7086	1	81	n/a	n/a	1	0	0
499.9086	1	81	n/a	n/a	1	0	0
500.1086	1	81	n/a	n/a	1	0	0
501.2394	1	10	n/a	n/a	1	51	1
502.3894	1	10	n/a	n/a	1	51	2
503.506	1	10	n/a	n/a	1	51	3
504.6226	1	21	n/a	n/a	1	51	0
505.9392	1	10	n/a	n/a	1	51	1
507.089	1	10	n/a	n/a	1	51	2
508.2056	1	10	n/a	n/a	1	51	3
509.3222	1	21	n/a	n/a	1	51	0
510.5556	1	10	n/a	n/a	1	51	1
511.6554	1	10	n/a	n/a	1	51	2
512.972	1	10	n/a	n/a	1	51	3
514.0886	1	10	n/a	n/a	1	51	4
515.4052	1	10	n/a	n/a	1	51	5
516.7218	1	21	n/a	n/a	1	51	0
517.955	1	10	n/a	n/a	1	51	1
519.2216	1	10	n/a	n/a	1	51	2
520.5382	1	10	n/a	n/a	1	51	3
521.5882	1	10	n/a	n/a	1	51	4
522.6548	1	10	n/a	n/a	1	51	5
523.8048	1	10	n/a	n/a	1	51	6
639.3164	1	81	n/a	n/a	1	0	0
639.5164	1	81	n/a	n/a	1	0	0
639.7164	1	81	n/a	n/a	1	0	0
639.9164	1	81	n/a	n/a	1	0	0
640.1164	1	81	n/a	n/a	1	0	0
640.3164	1	81	n/a	n/a	1	0	0
640.5164	1	81	n/a	n/a	1	0	0
640.7164	1	81	n/a	n/a	1	0	0
640.9164	1	81	n/a	n/a	1	0	0
641.1164	1	81	n/a	n/a	1	0	0
642.3646	1	10	n/a	n/a	1	51	1
643.3978	1	10	n/a	n/a	1	51	2
644.681	1	10	n/a	n/a	1	51	3
645.7476	1	10	n/a	n/a	1	51	4
647.0142	1	10	n/a	n/a	1	51	5
648.1142	1	10	n/a	n/a	1	51	6
649.2808	1	10	n/a	n/a	1	51	7
650.4474	1	21	n/a	n/a	1	51	0
651.7306	1	10	n/a	n/a	1	51	1
652.9306	1	10	n/a	n/a	1	51	2
653.9972	1	10	n/a	n/a	1	51	3
655.0638	1	10	n/a	n/a	1	51	4
656.2638	1	10	n/a	n/a	1	51	5
657.4136	1	10	n/a	n/a	1	51	6
658.647	1	10	n/a	n/a	1	51	7
659.8802	1	21	n/a	n/a	1	51	0
661.13	1	10	n/a	n/a	1	51	1
662.3634	1	10	n/a	n/a	1	51	2
663.4966	1	10	n/a	n/a	1	51	3
664.6632	1	21	n/a	n/a	1	51	0
665.7348	1	81	n/a	n/a	1	0	0
665.9348	1	81	n/a	n/a	1	0	0
666.1348	1	81	n/a	n/a	1	0	0
666.3348	1	81	n/a	n/a	1	0	0
666.5348	1	81	n/a	n/a	1	0	0
666.735	1	81	n/a	n/a	1	0	0
666.935	1	81	n/a	n/a	1	0	0
667.135	1	81	n/a	n/a	1	0	0
667.335	1	81	n/a	n/a	1	0	0
667.535	1	81	n/a	n/a	1	0	0
668.763	1	10	n/a	n/a	1	51	1
669.813	1	10	n/a	n/a	1	51	2
670.8796	1	10	n/a	n/a	1	51	3
672.1128	1	10	n/a	n/a	1	51	4
673.296	1	10	n/a	n/a	1	51	5
674.546	1	10	n/a	n/a	1	51	6
675.6626	1	10	n/a	n/a	1	51	7
676.7792	1	21	n/a	n/a	1	51	0
678.0292	1	10	n/a	n/a	1	51	1
679.1124	1	10	n/a	n/a	1	51	2
680.3124	1	10	n/a	n/a	1	51	3
681.6288	1	10	n/a	n/a	1	51	4
682.9288	1	10	n/a	n/a	1	51	5
684.2288	1	21	n/a	n/a	1	51	0
685.312	1	10	n/a	n/a	1	51	1
686.3952	1	21	n/a	n/a	1	51	0
687.4952	1	10	n/a	n/a	1	51	1
688.7118	1	10	n/a	n/a	1	51	2
689.8784	1	10	n/a	n/a	1	51	3
691.195	1	10	n/a	n/a	1	51	4
692.0924	1	81	n/a	n/a	1	0	0
692.2924	1	81	n/a	n/a	1	0	0
692.4924	1	81	n/a	n/a	1	0	0
692.6924	1	81	n/a	n/a	1	0	0
692.8924	1	81	n/a	n/a	1	0	0
693.0924	1	81	n/a	n/a	1	0	0
693.2924	1	81	n/a	n/a	1	0	0
693.4924	1	81	n/a	n/a	1	0	0
693.6924	1	81	n/a	n/a	1	0	0
693.8924	1	81	n/a	n/a	1	0	0
695.2448	1	10	n/a	n/a	1	51	1
696.5614	1	10	n/a	n/a	1	51	2
697.7946	1	10	n/a	n/a	1	51	3
698.8446	1	10	n/a	n/a	1	51	4
700.1278	1	10	n/a	n/a	1	51	5
701.1778	1	10	n/a	n/a	1	51	6
702.2776	1	10	n/a	n/a	1	51	7
703.3776	1	21	n/a	n/a	1	51	0
704.5608	1	10	n/a	n/a	1	51	1
705.8442	1	10	n/a	n/a	1	51	2
706.994	1	10	n/a	n/a	1	51	3
708.144	1	21	n/a	n/a	1	51	0
709.2106	1	10	n/a	n/a	1	51	1
710.4106	1	10	n/a	n/a	1	51	2
711.5772	1	10	n/a	n/a	1	51	3
712.8104	1	10	n/a	n/a	1	51	4
714.0604	1	10	n/a	n/a	1	51	5
715.3936	1	10	n/a	n/a	1	51	6
716.5602	1	10	n/a	n/a	1	51	7
717.7268	1	21	n/a	n/a	1	51	0
718.4644	1	81	n/a	n/a	1	0	0
718.6644	1	81	n/a	n/a	1	0	0
718.8644	1	81	n/a	n/a	1	0	0
719.0644	1	81	n/a	n/a	1	0	0
719.2644	1	81	n/a	n/a	1	0	0
719.4644	1	81	n/a	n/a	1	0	0
719.6644	1	81	n/a	n/a	1	0	0
719.8644	1	81	n/a	n/a	1	0	0
720.0644	1	81	n/a	n/a	1	0	0
720.2644	1	81	n/a	n/a	1	0	0
721.46	1	10	n/a	n/a	1	51	1
722.6932	1	10	n/a	n/a	1	51	2
723.7264	1	10	n/a	n/a	1	51	3
724.7598	1	21	n/a	n/a	1	51	0
725.793	1	10	n/a	n/a	1	51	1
726.943	1	10	n/a	n/a	1	51	2
728.1762	1	10	n/a	n/a	1	51	3
729.2762	1	10	n/a	n/a	1	51	4
730.3094	1	10	n/a	n/a	1	51	5
731.3426	1	21	n/a	n/a	1	51	0
732.5926	1	10	n/a	n/a	1	51	1
733.8092	1	10	n/a	n/a	1	51	2
735.0424	1	10	n/a	n/a	1	51	3
736.2758	1	21	n/a	n/a	1	51	0
737.409	1	10	n/a	n/a	1	51	1
738.6256	1	10	n/a	n/a	1	51	2
739.8756	1	10	n/a	n/a	1	51	3
741.1254	1	21	n/a	n/a	1	51	0
742.242	1	10	n/a	n/a	1	51	1
743.3586	1	21	n/a	n/a	1	51	0
744.2722	1	81	n/a	n/a	1	0	0
744.4722	1	81	n/a	n/a	1	0	0
744.6722	1	81	n/a	n/a	1	0	0
744.8722	1	81	n/a	n/a	1	0	0
745.0722	1	81	n/a	n/a	1	0	0
745.2724	1	81	n/a	n/a	1	0	0
745.4724	1	81	n/a	n/a	1	0	0
745.6724	1	81	n/a	n/a	1	0	0
745.8724	1	81	n/a	n/a	1	0	0
746.0724	1	81	n/a	n/a	1	0	0
747.475	1	10	n/a	n/a	1	51	1
748.5084	1	10	n/a	n/a	1	51	2
749.7082	1	10	n/a	n/a	1	51	3
750.9082	1	21	n/a	n/a	1	51	0
752.0582	1	10	n/a	n/a	1	51	1
753.1248	1	10	n/a	n/a	1	51	2
754.408	1	10	n/a	n/a	1	51	3
755.6912	1	21	n/a	n/a	1	51	0
756.9746	1	10	n/a	n/a	1	51	1
758.1412	1	10	n/a	n/a	1	51	2
759.291	1	10	n/a	n/a	1	51	3
760.441	1	21	n/a	n/a	1	51	0
761.6242	1	10	n/a	n/a	1	51	1
762.8076	1	10	n/a	n/a	1	51	2
764.0908	1	10	n/a	n/a	1	51	3
765.3074	1	10	n/a	n/a	1	51	4
766.524	1	10	n/a	n/a	1	51	5
767.8238	1	10	n/a	n/a	1	51	6
769.0738	1	10	n/a	n/a	1	51	7
770.3238	1	21	n/a	n/a	1	51	0
778.9112	1	81	n/a	n/a	1	0	0
779.1112	1	81	n/a	n/a	1	0	0
779.3112	1	81	n/a	n/a	1	0	0
779.5112	1	81	n/a	n/a	1	0	0
779.7112	1	81	n/a	n/a	1	0	0
779.9112	1	81	n/a	n/a	1	0	0
780.1112	1	81	n/a	n/a	1	0	0
780.3112	1	81	n/a	n/a	1	0	0
780.5112	1	81	n/a	n/a	1	0	0
780.7112	1	81	n/a	n/a	1	0	0
781.873	1	10	n/a	n/a	1	50	1
782.9396	1	21	n/a	n/a	1	50	0
784.173	1	10	n/a	n/a	1	50	1
785.2728	1	10	n/a	n/a	1	50	2
786.5894	1	10	n/a	n/a	1	50	3
787.906	1	21	n/a	n/a	1	50	0
788.9726	1	10	n/a	n/a	1	50	1
790.006	1	10	n/a	n/a	1	50	2
791.0392	1	10	n/a	n/a	1	50	3
792.0724	1	21	n/a	n/a	1	50	0
793.3224	1	10	n/a	n/a	1	50	1
794.6224	1	10	n/a	n/a	1	50	2
795.7722	1	10	n/a	n/a	1	50	3
796.9388	1	10	n/a	n/a	1	50	4
798.1554	1	10	n/a	n/a	1	50	5
799.322	1	10	n/a	n/a	1	50	6
800.572	1	10	n/a	n/a	1	50	7
801.822	1	21	n/a	n/a	1	50	0
802.9218	1	10	n/a	n/a	1	50	1
804.0218	1	21	n/a	n/a	1	50	0
804.7824	1	81	n/a	n/a	1	0	0
804.9824	1	81	n/a	n/a	1	0	0
805.1824	1	81	n/a	n/a	1	0	0
805.3824	1	81	n/a	n/a	1	0	0
805.5824	1	81	n/a	n/a	1	0	0
805.7824	1	81	n/a	n/a	1	0	0
805.9824	1	81	n/a	n/a	1	0	0
806.1824	1	81	n/a	n/a	1	0	0
806.3824	1	81	n/a	n/a	1	0	0
806.5824	1	81	n/a	n/a	1	0	0
807.8382	1	10	n/a	n/a	1	50	1
808.9882	1	10	n/a	n/a	1	50	2
810.238	1	10	n/a	n/a	1	50	3
811.5546	1	10	n/a	n/a	1	50	4
812.7046	1	10	n/a	n/a	1	50	5
813.8546	1	21	n/a	n/a	1	50	0
815.0212	1	10	n/a	n/a	1	50	1
816.1378	1	10	n/a	n/a	1	50	2
817.321	1	10	n/a	n/a	1	50	3
818.6376	1	10	n/a	n/a	1	50	4
819.8376	1	10	n/a	n/a	1	50	5
821.0374	1	21	n/a	n/a	1	50	0
822.3208	1	10	n/a	n/a	1	50	1
823.404	1	10	n/a	n/a	1	50	2
824.4372	1	10	n/a	n/a	1	50	3
825.5038	1	10	n/a	n/a	1	50	4
826.5704	1	10	n/a	n/a	1	50	5
827.6538	1	21	n/a	n/a	1	50	0
828.7204	1	10	n/a	n/a	1	50	1
829.8202	1	21	n/a	n/a	1	50	0
830.7828	1	81	n/a	n/a	1	0	0
830.9828	1	81	n/a	n/a	1	0	0
831.1828	1	81	n/a	n/a	1	0	0
831.3828	1	81	n/a	n/a	1	0	0
831.5828	1	81	n/a	n/a	1	0	0
831.7828	1	81	n/a	n/a	1	0	0
831.9828	1	81	n/a	n/a	1	0	0
832.1828	1	81	n/a	n/a	1	0	0
832.3828	1	81	n/a	n/a	1	0	0
832.5828	1	81	n/a	n/a	1	0	0
833.77	1	10	n/a	n/a	1	50	1
834.9034	1	10	n/a	n/a	1	50	2
836.02	1	10	n/a	n/a	1	50	3
837.3532	1	10	n/a	n/a	1	50	4
838.4364	1	10	n/a	n/a	1	50	5
839.603	1	10	n/a	n/a	1	50	6
840.7196	1	10	n/a	n/a	1	50	7
841.8362	1	21	n/a	n/a	1	50	0
842.9196	1	10	n/a	n/a	1	50	1
844.0028	1	21	n/a	n/a	1	50	0
845.186	1	10	n/a	n/a	1	50	1
846.3694	1	21	n/a	n/a	1	50	0
847.5526	1	10	n/a	n/a	1	50	1
848.7192	1	10	n/a	n/a	1	50	2
849.9192	1	10	n/a	n/a	1	50	3
851.2024	1	10	n/a	n/a	1	50	4
852.4022	1	10	n/a	n/a	1	50	5
853.6356	1	10	n/a	n/a	1	50	6
854.7854	1	10	n/a	n/a	1	50	7
855.9354	1	21	n/a	n/a	1	50	0
856.679	1	81	n/a	n/a	1	0	0
856.879	1	81	n/a	n/a	1	0	0
857.079	1	81	n/a	n/a	1	0	0
857.279	1	81	n/a	n/a	1	0	0
857.479	1	81	n/a	n/a	1	0	0
857.679	1	81	n/a	n/a	1	0	0
857.879	1	81	n/a	n/a	1	0	0
858.079	1	81	n/a	n/a	1	0	0
858.279	1	81	n/a	n/a	1	0	0
858.479	1	81	n/a	n/a	1	0	0
859.7686	1	10	n/a	n/a	1	50	1
860.8518	1	10	n/a	n/a	1	50	2
862.035	1	10	n/a	n/a	1	50	3
863.1184	1	10	n/a	n/a	1	50	4
864.235	1	10	n/a	n/a	1	50	5
865.4016	1	10	n/a	n/a	1	50	6
866.4848	1	10	n/a	n/a	1	50	7
867.568	1	21	n/a	n/a	1	50	0
868.818	1	10	n/a	n/a	1	50	1
870.018	1	10	n/a	n/a	1	50	2
871.0512	1	10	n/a	n/a	1	50	3
872.2344	1	10	n/a	n/a	1	50	4
873.4844	1	10	n/a	n/a	1	50	5
874.5344	1	10	n/a	n/a	1	50	6
875.5842	1	10	n/a	n/a	1	50	7
876.6342	1	21	n/a	n/a	1	50	0
877.8174	1	10	n/a	n/a	1	50	1
879.0174	1	10	n/a	n/a	1	50	2
880.334	1	10	n/a	n/a	1	50	3
881.434	1	10	n/a	n/a	1	50	4
882.3424	1	81	n/a	n/a	1	0	0
882.5424	1	81	n/a	n/a	1	0	0
882.7424	1	81	n/a	n/a	1	0	0
882.9424	1	81	n/a	n/a	1	0	0
883.1424	1	81	n/a	n/a	1	0	0
883.3424	1	81	n/a	n/a	1	0	0
883.5424	1	81	n/a	n/a	1	0	0
883.7424	1	81	n/a	n/a	1	0	0
883.9424	1	81	n/a	n/a	1	0	0
884.1424	1	81	n/a	n/a	1	0	0
885.3504	1	10	n/a	n/a	1	50	1
886.4336	1	10	n/a	n/a	1	50	2
887.6836	1	10	n/a	n/a	1	50	3
888.9334	1	21	n/a	n/a	1	50	0
890.05	1	10	n/a	n/a	1	50	1
891.1	1	10	n/a	n/a	1	50	2
892.3832	1	10	n/a	n/a	1	50	3
893.5166	1	10	n/a	n/a	1	50	4
894.5998	1	10	n/a	n/a	1	50	5
895.6832	1	21	n/a	n/a	1	50	0
896.7664	1	10	n/a	n/a	1	50	1
897.8496	1	21	n/a	n/a	1	50	0
899.0996	1	10	n/a	n/a	1	50	1
900.3496	1	21	n/a	n/a	1	50	0
901.5494	1	10	n/a	n/a	1	50	1
902.6326	1	10	n/a	n/a	1	50	2
903.716	1	10	n/a	n/a	1	50	3
904.8826	1	10	n/a	n/a	1	50	4
906.0992	1	10	n/a	n/a	1	50	5
907.3158	1	21	n/a	n/a	1	50	0
940.437	1	82	n/a	n/a	1	0	0
940.678	1	82	n/a	n/a	1	0	0
940.948	1	82	n/a	n/a	1	0	0
940.987	1	82	n/a	n/a	1	0	0
941.291	1	82	n/a	n/a	1	0	0
941.437	1	82	n/a	n/a	1	0	0
941.781	1	82	n/a	n/a	1	0	0
942.101	1	82	n/a	n/a	1	0	0
942.24	1	82	n/a	n/a	1	0	0
942.272	1	82	n/a	n/a	1	0	0
943.497	1	10	n/a	n/a	1	52	1
944.7136	1	10	n/a	n/a	1	52	2
945.9302	1	10	n/a	n/a	1	52	3
947.23	1	10	n/a	n/a	1	52	4
948.4134	1	10	n/a	n/a	1	52	5
949.5966	1	21	n/a	n/a	1	52	0
950.7966	1	10	n/a	n/a	1	52	1
951.9964	1	21	n/a	n/a	1	52	0
953.113	1	10	n/a	n/a	1	52	1
954.3796	1	10	n/a	n/a	1	52	2
955.4962	1	10	n/a	n/a	1	52	3
956.5296	1	10	n/a	n/a	1	52	4
957.5794	1	10	n/a	n/a	1	52	5
958.7628	1	10	n/a	n/a	1	52	6
959.9794	1	10	n/a	n/a	1	52	7
961.196	1	21	n/a	n/a	1	52	0
962.4792	1	10	n/a	n/a	1	52	1
963.7624	1	21	n/a	n/a	1	52	0
964.9124	1	10	n/a	n/a	1	52	1
966.1956	1	10	n/a	n/a	1	52	2
966.9732	1	82	n/a	n/a	1	0	0
967.0012	1	82	n/a	n/a	1	0	0
967.2682	1	82	n/a	n/a	1	0	0
967.4432	1	82	n/a	n/a	1	0	0
967.8742	1	82	n/a	n/a	1	0	0
967.9732	1	82	n/a	n/a	1	0	0
968.0292	1	82	n/a	n/a	1	0	0
968.4192	1	82	n/a	n/a	1	0	0
968.6962	1	82	n/a	n/a	1	0	0
968.7802	1	82	n/a	n/a	1	0	0
969.9954	1	10	n/a	n/a	1	52	1
971.2286	1	10	n/a	n/a	1	52	2
972.3454	1	10	n/a	n/a	1	52	3
973.462	1	21	n/a	n/a	1	52	0
974.5618	1	10	n/a	n/a	1	52	1
975.8284	1	10	n/a	n/a	1	52	2
976.945	1	10	n/a	n/a	1	52	3
978.095	1	10	n/a	n/a	1	52	4
979.195	1	10	n/a	n/a	1	52	5
980.2948	1	21	n/a	n/a	1	52	0
981.578	1	10	n/a	n/a	1	52	1
982.6948	1	10	n/a	n/a	1	52	2
983.9946	1	10	n/a	n/a	1	52	3
985.2946	1	10	n/a	n/a	1	52	4
986.3278	1	10	n/a	n/a	1	52	5
987.511	1	10	n/a	n/a	1	52	6
988.561	1	10	n/a	n/a	1	52	7
989.611	1	21	n/a	n/a	1	52	0
990.661	1	10	n/a	n/a	1	52	1
991.7108	1	21	n/a	n/a	1	52	0
992.8116	1	82	n/a	n/a	1	0	0
993.0336	1	82	n/a	n/a	1	0	0
993.1696	1	82	n/a	n/a	1	0	0
993.4156	1	82	n/a	n/a	1	0	0
993.7596	1	82	n/a	n/a	1	0	0
993.8116	1	82	n/a	n/a	1	0	0
994.1776	1	82	n/a	n/a	1	0	0
994.2356	1	82	n/a	n/a	1	0	0
994.4776	1	82	n/a	n/a	1	0	0
994.5696	1	82	n/a	n/a	1	0	0
995.9272	1	10	n/a	n/a	1	52	1
997.1438	1	21	n/a	n/a	1	52	0
998.2104	1	10	n/a	n/a	1	52	1
999.427	1	10	n/a	n/a	1	52	2
1000.6604	1	10	n/a	n/a	1	52	3
1001.7936	1	10	n/a	n/a	1	52	4
1002.8936	1	10	n/a	n/a	1	52	5
1004.1102	1	10	n/a	n/a	1	52	6
1005.26	1	10	n/a	n/a	1	52	7
1006.41	1	21	n/a	n/a	1	52	0
1007.4932	1	10	n/a	n/a	1	52	1
1008.6098	1	10	n/a	n/a	1	52	2
1009.7764	1	10	n/a	n/a	1	52	3
1010.943	1	21	n/a	n/a	1	52	0
1012.1596	1	10	n/a	n/a	1	52	1
1013.443	1	10	n/a	n/a	1	52	2
1014.6428	1	10	n/a	n/a	1	52	3
1015.8928	1	10	n/a	n/a	1	52	4
1017.126	1	10	n/a	n/a	1	52	5
1018.276	1	10	n/a	n/a	1	52	6
1019.0084	1	82	n/a	n/a	1	0	0
1019.2294	1	82	n/a	n/a	1	0	0
1019.2514	1	82	n/a	n/a	1	0	0
1019.3744	1	82	n/a	n/a	1	0	0
1019.5414	1	82	n/a	n/a	1	0	0
1020.0084	1	82	n/a	n/a	1	0	0
1020.0854	1	82	n/a	n/a	1	0	0
1020.4254	1	82	n/a	n/a	1	0	0
1020.6894	1	82	n/a	n/a	1	0	0
1020.7124	1	82	n/a	n/a	1	0	0
1022.1258	1	10	n/a	n/a	1	52	1
1023.2924	1	10	n/a	n/a	1	52	2
1024.559	1	10	n/a	n/a	1	52	3
1025.7088	1	10	n/a	n/a	1	52	4
1026.7422	1	10	n/a	n/a	1	52	5
1028.0088	1	10	n/a	n/a	1	52	6
1029.1086	1	10	n/a	n/a	1	52	7
1030.2086	1	21	n/a	n/a	1	52	0
1031.3586	1	10	n/a	n/a	1	52	1
1032.5084	1	21	n/a	n/a	1	52	0
1033.575	1	10	n/a	n/a	1	52	1
1034.6416	1	21	n/a	n/a	1	52	0
1035.7416	1	10	n/a	n/a	1	52	1
1036.8416	1	10	n/a	n/a	1	52	2
1038.0248	1	10	n/a	n/a	1	52	3
1039.1082	1	10	n/a	n/a	1	52	4
1040.308	1	10	n/a	n/a	1	52	5
1041.5746	1	10	n/a	n/a	1	52	6
1042.6578	1	10	n/a	n/a	1	52	7
1043.7412	1	21	n/a	n/a	1	52	0
1044.6376	1	82	n/a	n/a	1	0	0
1044.6626	1	82	n/a	n/a	1	0	0
1044.7516	1	82	n/a	n/a	1	0	0
1045.0556	1	82	n/a	n/a	1	0	0
1045.4416	1	82	n/a	n/a	1	0	0
1045.6376	1	82	n/a	n/a	1	0	0
1045.8166	1	82	n/a	n/a	1	0	0
1046.1626	1	82	n/a	n/a	1	0	0
1046.2136	1	82	n/a	n/a	1	0	0
1046.2916	1	82	n/a	n/a	1	0	0
1047.6576	1	10	n/a	n/a	1	52	1
1048.9242	1	10	n/a	n/a	1	52	2
1050.1242	1	10	n/a	n/a	1	52	3
1051.3074	1	10	n/a	n/a	1	52	4
1052.5906	1	10	n/a	n/a	1	52	5
1053.8738	1	21	n/a	n/a	1	52	0
1055.0572	1	10	n/a	n/a	1	52	1
1056.3904	1	10	n/a	n/a	1	52	2
1057.6404	1	10	n/a	n/a	1	52	3
1058.9402	1	10	n/a	n/a	1	52	4
1060.0902	1	10	n/a	n/a	1	52	5
1061.2402	1	21	n/a	n/a	1	52	0
1062.4734	1	10	n/a	n/a	1	52	1
1063.7066	1	21	n/a	n/a	1	52	0
1064.8232	1	10	n/a	n/a	1	52	1
1066.0066	1	10	n/a	n/a	1	52	2
1067.1232	1	10	n/a	n/a	1	52	3
1068.2064	1	10	n/a	n/a	1	52	4
1069.3064	1	10	n/a	n/a	1	52	5
1070.3562	1	10	n/a	n/a	1	52	6
1251.8752	1	81	n/a	n/a	1	0	0
1252.0752	1	81	n/a	n/a	1	0	0
1252.2752	1	81	n/a	n/a	1	0	0
1252.4752	1	81	n/a	n/a	1	0	0
1252.6752	1	81	n/a	n/a	1	0	0
1252.8752	1	81	n/a	n/a	1	0	0
1253.0752	1	81	n/a	n/a	1	0	0
1253.2752	1	81	n/a	n/a	1	0	0
1253.4752	1	81	n/a	n/a	1	0	0
1253.6752	1	81	n/a	n/a	1	0	0
1254.8284	1	10	n/a	n/a	1	51	1
1255.895	1	21	n/a	n/a	1	51	0
1257.0282	1	10	n/a	n/a	1	51	1
1258.2948	1	10	n/a	n/a	1	51	2
1259.3448	1	10	n/a	n/a	1	51	3
1260.3948	1	21	n/a	n/a	1	51	0
1261.5446	1	10	n/a	n/a	1	51	1
1262.578	1	10	n/a	n/a	1	51	2
1263.8778	1	10	n/a	n/a	1	51	3
1265.1778	1	21	n/a	n/a	1	51	0
1266.4778	1	10	n/a	n/a	1	51	1
1267.7776	1	21	n/a	n/a	1	51	0
1268.911	1	10	n/a	n/a	1	51	1
1270.2108	1	10	n/a	n/a	1	51	2
1271.4442	1	10	n/a	n/a	1	51	3
1272.6774	1	21	n/a	n/a	1	51	0
1273.7606	1	10	n/a	n/a	1	51	1
1275.0106	1	10	n/a	n/a	1	51	2
1276.1604	1	10	n/a	n/a	1	51	3
1277.327	1	10	n/a	n/a	1	51	4
1278.4316	1	81	n/a	n/a	1	0	0
1278.6316	1	81	n/a	n/a	1	0	0
1278.8316	1	81	n/a	n/a	1	0	0
1279.0316	1	81	n/a	n/a	1	0	0
1279.2316	1	81	n/a	n/a	1	0	0
1279.4316	1	81	n/a	n/a	1	0	0
1279.6316	1	81	n/a	n/a	1	0	0
1279.8316	1	81	n/a	n/a	1	0	0
1280.0316	1	81	n/a	n/a	1	0	0
1280.2316	1	81	n/a	n/a	1	0	0
1281.4268	1	10	n/a	n/a	1	51	1
1282.5268	1	10	n/a	n/a	1	51	2
1283.5768	1	10	n/a	n/a	1	51	3
1284.6266	1	21	n/a	n/a	1	51	0
1285.8932	1	10	n/a	n/a	1	51	1
1286.9598	1	10	n/a	n/a	1	51	2
1288.1764	1	10	n/a	n/a	1	51	3
1289.393	1	21	n/a	n/a	1	51	0
1290.6596	1	10	n/a	n/a	1	51	1
1291.743	1	10	n/a	n/a	1	51	2
1292.9596	1	10	n/a	n/a	1	51	3
1294.0762	1	10	n/a	n/a	1	51	4
1295.1094	1	10	n/a	n/a	1	51	5
1296.1426	1	21	n/a	n/a	1	51	0
1297.476	1	10	n/a	n/a	1	51	1
1298.5426	1	10	n/a	n/a	1	51	2
1299.6924	1	10	n/a	n/a	1	51	3
1300.7424	1	10	n/a	n/a	1	51	4
1301.8924	1	10	n/a	n/a	1	51	5
1303.0422	1	21	n/a	n/a	1	51	0
1304.087	1	81	n/a	n/a	1	0	0
1304.287	1	81	n/a	n/a	1	0	0
1304.487	1	81	n/a	n/a	1	0	0
1304.687	1	81	n/a	n/a	1	0	0
1304.887	1	81	n/a	n/a	1	0	0
1305.087	1	81	n/a	n/a	1	0	0
1305.287	1	81	n/a	n/a	1	0	0
1305.487	1	81	n/a	n/a	1	0	0
1305.687	1	81	n/a	n/a	1	0	0
1305.887	1	81	n/a	n/a	1	0	0
1307.1754	1	10	n/a	n/a	1	51	1
1308.3752	1	21	n/a	n/a	1	51	0
1309.4918	1	10	n/a	n/a	1	51	1
1310.5752	1	10	n/a	n/a	1	51	2
1311.7418	1	10	n/a	n/a	1	51	3
1312.9584	1	10	n/a	n/a	1	51	4
1314.275	1	10	n/a	n/a	1	51	5
1315.3748	1	10	n/a	n/a	1	51	6
1316.4748	1	10	n/a	n/a	1	51	7
1317.5748	1	21	n/a	n/a	1	51	0
1318.8414	1	10	n/a	n/a	1	51	1
1319.8746	1	10	n/a	n/a	1	51	2
1321.0912	1	10	n/a	n/a	1	51	3
1322.1912	1	10	n/a	n/a	1	51	4
1323.4744	1	10	n/a	n/a	1	51	5
1324.6244	1	10	n/a	n/a	1	51	6
1325.7576	1	10	n/a	n/a	1	51	7
1326.8908	1	21	n/a	n/a	1	51	0
1328.1742	1	10	n/a	n/a	1	51	1
1329.3074	1	10	n/a	n/a	1	51	2
1330.2848	1	81	n/a	n/a	1	0	0
1330.4848	1	81	n/a	n/a	1	0	0
1330.6848	1	81	n/a	n/a	1	0	0
1330.8848	1	81	n/a	n/a	1	0	0
1331.0848	1	81	n/a	n/a	1	0	0
1331.2848	1	81	n/a	n/a	1	0	0
1331.4848	1	81	n/a	n/a	1	0	0
1331.6848	1	81	n/a	n/a	1	0	0
1331.8848	1	81	n/a	n/a	1	0	0
1332.0848	1	81	n/a	n/a	1	0	0
1333.2572	1	10	n/a	n/a	1	51	1
1334.5238	1	10	n/a	n/a	1	51	2
1335.6904	1	10	n/a	n/a	1	51	3
1336.857	1	21	n/a	n/a	1	51	0
1338.1402	1	10	n/a	n/a	1	51	1
1339.3568	1	10	n/a	n/a	1	51	2
1340.54	1	10	n/a	n/a	1	51	3
1341.84	1	10	n/a	n/a	1	51	4
1343.0232	1	10	n/a	n/a	1	51	5
1344.2898	1	10	n/a	n/a	1	51	6
1345.6064	1	10	n/a	n/a	1	51	7
1346.923	1	21	n/a	n/a	1	51	0
1348.073	1	10	n/a	n/a	1	51	1
1349.173	1	10	n/a	n/a	1	51	2
1350.2228	1	10	n/a	n/a	1	51	3
1351.4894	1	10	n/a	n/a	1	51	4
1352.7226	1	10	n/a	n/a	1	51	5
1353.956	1	21	n/a	n/a	1	51	0
1355.0892	1	10	n/a	n/a	1	51	1
1356.1392	1	10	n/a	n/a	1	51	2
1357.2216	1	81	n/a	n/a	1	0	0
1357.4216	1	81	n/a	n/a	1	0	0
1357.6216	1	81	n/a	n/a	1	0	0
1357.8216	1	81	n/a	n/a	1	0	0
1358.0216	1	81	n/a	n/a	1	0	0
1358.2216	1	81	n/a	n/a	1	0	0
1358.4216	1	81	n/a	n/a	1	0	0
1358.6216	1	81	n/a	n/a	1	0	0
1358.8216	1	81	n/a	n/a	1	0	0
1359.0216	1	81	n/a	n/a	1	0	0
1360.3556	1	10	n/a	n/a	1	51	1
1361.5888	1	21	n/a	n/a	1	51	0
1362.6554	1	10	n/a	n/a	1	51	1
1363.7554	1	10	n/a	n/a	1	51	2
1364.9886	1	10	n/a	n/a	1	51	3
1366.2552	1	10	n/a	n/a	1	51	4
1367.3218	1	10	n/a	n/a	1	51	5
1368.4718	1	10	n/a	n/a	1	51	6
1369.7218	1	10	n/a	n/a	1	51	7
1370.9716	1	21	n/a	n/a	1	51	0
1372.0216	1	10	n/a	n/a	1	51	1
1373.1048	1	10	n/a	n/a	1	51	2
1374.3548	1	10	n/a	n/a	1	51	3
1375.6046	1	21	n/a	n/a	1	51	0
1376.888	1	10	n/a	n/a	1	51	1
1378.1878	1	10	n/a	n/a	1	51	2
1379.5044	1	10	n/a	n/a	1	51	3
1380.821	1	21	n/a	n/a	1	51	0
1382.1376	1	10	n/a	n/a	1	51	1
1383.4376	1	10	n/a	n/a	1	51	2
1392.5942	1	81	n/a	n/a	1	0	0
1392.7942	1	81	n/a	n/a	1	0	0
1392.9942	1	81	n/a	n/a	1	0	0
1393.1942	1	81	n/a	n/a	1	0	0
1393.3942	1	81	n/a	n/a	1	0	0
1393.5942	1	81	n/a	n/a	1	0	0
1393.7942	1	81	n/a	n/a	1	0	0
1393.9942	1	81	n/a	n/a	1	0	0
1394.1942	1	81	n/a	n/a	1	0	0
1394.3942	1	81	n/a	n/a	1	0	0
1395.6868	1	10	n/a	n/a	1	50	1
1396.7868	1	10	n/a	n/a	1	50	2
1398.12	1	10	n/a	n/a	1	50	3
1399.1534	1	10	n/a	n/a	1	50	4
1400.4366	1	10	n/a	n/a	1	50	5
1401.6532	1	10	n/a	n/a	1	50	6
1402.9698	1	10	n/a	n/a	1	50	7
1404.2864	1	21	n/a	n/a	1	50	0
1405.3364	1	10	n/a	n/a	1	50	1
1406.5862	1	10	n/a	n/a	1	50	2
1407.9028	1	10	n/a	n/a	1	50	3
1409.2194	1	21	n/a	n/a	1	50	0
1410.3194	1	10	n/a	n/a	1	50	1
1411.4526	1	10	n/a	n/a	1	50	2
1412.5358	1	10	n/a	n/a	1	50	3
1413.6692	1	21	n/a	n/a	1	50	0
1414.8358	1	10	n/a	n/a	1	50	1
1415.8856	1	10	n/a	n/a	1	50	2
1416.969	1	10	n/a	n/a	1	50	3
1418.1356	1	10	n/a	n/a	1	50	4
1419.159	1	81	n/a	n/a	1	0	0
1419.359	1	81	n/a	n/a	1	0	0
1419.559	1	81	n/a	n/a	1	0	0
1419.759	1	81	n/a	n/a	1	0	0
1419.959	1	81	n/a	n/a	1	0	0
1420.159	1	81	n/a	n/a	1	0	0
1420.359	1	81	n/a	n/a	1	0	0
1420.559	1	81	n/a	n/a	1	0	0
1420.759	1	81	n/a	n/a	1	0	0
1420.959	1	81	n/a	n/a	1	0	0
1422.1354	1	10	n/a	n/a	1	50	1
1423.4352	1	10	n/a	n/a	1	50	2
1424.5518	1	10	n/a	n/a	1	50	3
1425.6352	1	10	n/a	n/a	1	50	4
1426.6684	1	10	n/a	n/a	1	50	5
1427.7016	1	21	n/a	n/a	1	50	0
1428.735	1	10	n/a	n/a	1	50	1
1429.9516	1	10	n/a	n/a	1	50	2
1431.2682	1	10	n/a	n/a	1	50	3
1432.3514	1	10	n/a	n/a	1	50	4
1433.5514	1	10	n/a	n/a	1	50	5
1434.8512	1	10	n/a	n/a	1	50	6
1435.9678	1	10	n/a	n/a	1	50	7
1437.0844	1	21	n/a	n/a	1	50	0
1438.3178	1	10	n/a	n/a	1	50	1
1439.451	1	10	n/a	n/a	1	50	2
1440.4842	1	10	n/a	n/a	1	50	3
1441.7008	1	10	n/a	n/a	1	50	4
1443.0174	1	10	n/a	n/a	1	50	5
1444.134	1	10	n/a	n/a	1	50	6
1445.2304	1	81	n/a	n/a	1	0	0
1445.4304	1	81	n/a	n/a	1	0	0
1445.6304	1	81	n/a	n/a	1	0	0
1445.8304	1	81	n/a	n/a	1	0	0
1446.0304	1	81	n/a	n/a	1	0	0
1446.2306	1	81	n/a	n/a	1	0	0
1446.4306	1	81	n/a	n/a	1	0	0
1446.6306	1	81	n/a	n/a	1	0	0
1446.8306	1	81	n/a	n/a	1	0	0
1447.0306	1	81	n/a	n/a	1	0	0
1448.3004	1	10	n/a	n/a	1	50	1
1449.3838	1	10	n/a	n/a	1	50	2
1450.617	1	10	n/a	n/a	1	50	3
1451.9336	1	10	n/a	n/a	1	50	4
1453.2168	1	10	n/a	n/a	1	50	5
1454.2502	1	10	n/a	n/a	1	50	6
1455.35	1	10	n/a	n/a	1	50	7
1456.45	1	21	n/a	n/a	1	50	0
1457.7	1	10	n/a	n/a	1	50	1
1459.0166	1	10	n/a	n/a	1	50	2
1460.0498	1	10	n/a	n/a	1	50	3
1461.083	1	21	n/a	n/a	1	50	0
1462.3164	1	10	n/a	n/a	1	50	1
1463.5496	1	21	n/a	n/a	1	50	0
1464.6496	1	10	n/a	n/a	1	50	1
1465.7494	1	21	n/a	n/a	1	50	0
1466.8494	1	10	n/a	n/a	1	50	1
1467.9494	1	10	n/a	n/a	1	50	2
1469.066	1	10	n/a	n/a	1	50	3
1470.2826	1	10	n/a	n/a	1	50	4
1471.1468	1	81	n/a	n/a	1	0	0
1471.3468	1	81	n/a	n/a	1	0	0
1471.5468	1	81	n/a	n/a	1	0	0
1471.7468	1	81	n/a	n/a	1	0	0
1471.9468	1	81	n/a	n/a	1	0	0
1472.147	1	81	n/a	n/a	1	0	0
1472.347	1	81	n/a	n/a	1	0	0
1472.547	1	81	n/a	n/a	1	0	0
1472.747	1	81	n/a	n/a	1	0	0
1472.947	1	81	n/a	n/a	1	0	0
1474.249	1	10	n/a	n/a	1	50	1
1475.5656	1	10	n/a	n/a	1	50	2
1476.8488	1	10	n/a	n/a	1	50	3
1478.0988	1	10	n/a	n/a	1	50	4
1479.3986	1	10	n/a	n/a	1	50	5
1480.6986	1	21	n/a	n/a	1	50	0
1481.9818	1	10	n/a	n/a	1	50	1
1483.265	1	21	n/a	n/a	1	50	0
1484.5816	1	10	n/a	n/a	1	50	1
1485.665	1	10	n/a	n/a	1	50	2
1486.6982	1	10	n/a	n/a	1	50	3
1487.9982	1	10	n/a	n/a	1	50	4
1489.3314	1	10	n/a	n/a	1	50	5
1490.448	1	10	n/a	n/a	1	50	6
1491.6812	1	10	n/a	n/a	1	50	7
1492.9146	1	21	n/a	n/a	1	50	0
1494.1978	1	10	n/a	n/a	1	50	1
1495.2478	1	10	n/a	n/a	1	50	2
1496.431	1	10	n/a	n/a	1	50	3
1497.7142	1	10	n/a	n/a	1	50	4
1498.6046	1	81	n/a	n/a	1	0	0
1498.8046	1	81	n/a	n/a	1	0	0
1499.0046	1	81	n/a	n/a	1	0	0
1499.2046	1	81	n/a	n/a	1	0	0
1499.4046	1	81	n/a	n/a	1	0	0
1499.6046	1	81	n/a	n/a	1	0	0
1499.8046	1	81	n/a	n/a	1	0	0
1500.0046	1	81	n/a	n/a	1	0	0
1500.2046	1	81	n/a	n/a	1	0	0
1500.4046	1	81	n/a	n/a	1	0	0
1501.764	1	10	n/a	n/a	1	50	1
1502.9306	1	10	n/a	n/a	1	50	2
1504.1138	1	10	n/a	n/a	1	50	3
1505.2138	1	10	n/a	n/a	1	50	4
1506.347	1	10	n/a	n/a	1	50	5
1507.397	1	10	n/a	n/a	1	50	6
1508.6802	1	10	n/a	n/a	1	50	7
1509.9636	1	21	n/a	n/a	1	50	0
1511.2802	1	10	n/a	n/a	1	50	1
1512.43	1	10	n/a	n/a	1	50	2
1513.73	1	10	n/a	n/a	1	50	3
1514.8466	1	10	n/a	n/a	1	50	4
1515.9132	1	10	n/a	n/a	1	50	5
1517.1464	1	10	n/a	n/a	1	50	6
1518.463	1	10	n/a	n/a	1	50	7
1519.7796	1	21	n/a	n/a	1	50	0
1520.8796	1	10	n/a	n/a	1	50	1
1521.9962	1	21	n/a	n/a	1	50	0
1523.296	1	10	n/a	n/a	1	50	1
1524.446	1	10	n/a	n/a	1	50	2
1548.512	1	82	n/a	n/a	1	0	0
1548.641	1	82	n/a	n/a	1	0	0
1548.663	1	82	n/a	n/a	1	0	0
1548.754	1	82	n/a	n/a	1	0	0
1548.989	1	82	n/a	n/a	1	0	0
1549.512	1	82	n/a	n/a	1	0	0
1549.624	1	82	n/a	n/a	1	0	0
1549.99	1	82	n/a	n/a	1	0	0
1550.159	1	82	n/a	n/a	1	0	0
1550.481	1	82	n/a	n/a	1	0	0
1551.5112	1	10	n/a	n/a	1	52	1
1552.611	1	21	n/a	n/a	1	52	0
1553.861	1	10	n/a	n/a	1	52	1
1555.1276	1	10	n/a	n/a	1	52	2
1556.3942	1	10	n/a	n/a	1	52	3
1557.6608	1	21	n/a	n/a	1	52	0
1558.944	1	10	n/a	n/a	1	52	1
1560.0106	1	10	n/a	n/a	1	52	2
1561.0606	1	10	n/a	n/a	1	52	3
1562.0938	1	10	n/a	n/a	1	52	4
1563.2104	1	10	n/a	n/a	1	52	5
1564.327	1	21	n/a	n/a	1	52	0
1565.4104	1	10	n/a	n/a	1	52	1
1566.7102	1	10	n/a	n/a	1	52	2
1567.8268	1	10	n/a	n/a	1	52	3
1568.96	1	10	n/a	n/a	1	52	4
1570.2766	1	10	n/a	n/a	1	52	5
1571.3266	1	10	n/a	n/a	1	52	6
1572.5766	1	10	n/a	n/a	1	52	7
1573.8264	1	21	n/a	n/a	1	52	0
1574.8912	1	82	n/a	n/a	1	0	0
1575.1592	1	82	n/a	n/a	1	0	0
1575.2162	1	82	n/a	n/a	1	0	0
1575.3422	1	82	n/a	n/a	1	0	0
1575.4232	1	82	n/a	n/a	1	0	0
1575.8912	1	82	n/a	n/a	1	0	0
1576.1452	1	82	n/a	n/a	1	0	0
1576.1892	1	82	n/a	n/a	1	0	0
1576.3582	1	82	n/a	n/a	1	0	0
1576.6752	1	82	n/a	n/a	1	0	0
1577.9096	1	10	n/a	n/a	1	52	1
1579.0428	1	21	n/a	n/a	1	52	0
1580.2428	1	10	n/a	n/a	1	52	1
1581.3094	1	10	n/a	n/a	1	52	2
1582.5926	1	10	n/a	n/a	1	52	3
1583.9092	1	10	n/a	n/a	1	52	4
1585.2092	1	10	n/a	n/a	1	52	5
1586.509	1	10	n/a	n/a	1	52	6
1587.559	1	10	n/a	n/a	1	52	7
1588.609	1	21	n/a	n/a	1	52	0
1589.8588	1	10	n/a	n/a	1	52	1
1590.9422	1	10	n/a	n/a	1	52	2
1592.092	1	10	n/a	n/a	1	52	3
1593.3586	1	10	n/a	n/a	1	52	4
1594.6086	1	10	n/a	n/a	1	52	5
1595.8752	1	10	n/a	n/a	1	52	6
1597.1918	1	10	n/a	n/a	1	52	7
1598.5084	1	21	n/a	n/a	1	52	0
1599.625	1	10	n/a	n/a	1	52	1
1600.7582	1	21	n/a	n/a	1	52	0
1601.5304	1	82	n/a	n/a	1	0	0
1601.6384	1	82	n/a	n/a	1	0	0
1601.6904	1	82	n/a	n/a	1	0	0
1601.9094	1	82	n/a	n/a	1	0	0
1602.3284	1	82	n/a	n/a	1	0	0
1602.5304	1	82	n/a	n/a	1	0	0
1602.6134	1	82	n/a	n/a	1	0	0
1602.8634	1	82	n/a	n/a	1	0	0
1603.0694	1	82	n/a	n/a	1	0	0
1603.3894	1	82	n/a	n/a	1	0	0
1604.658	1	10	n/a	n/a	1	52	1
1605.858	1	10	n/a	n/a	1	52	2
1607.1078	1	10	n/a	n/a	1	52	3
1608.1912	1	10	n/a	n/a	1	52	4
1609.2244	1	10	n/a	n/a	1	52	5
1610.3744	1	10	n/a	n/a	1	52	6
1611.6742	1	10	n/a	n/a	1	52	7
1612.9742	1	21	n/a	n/a	1	52	0
1614.2242	1	10	n/a	n/a	1	52	1
1615.474	1	21	n/a	n/a	1	52	0
1616.7574	1	10	n/a	n/a	1	52	1
1618.0406	1	21	n/a	n/a	1	52	0
1619.1406	1	10	n/a	n/a	1	52	1
1620.2404	1	21	n/a	n/a	1	52	0
1621.4238	1	10	n/a	n/a	1	52	1
1622.707	1	10	n/a	n/a	1	52	2
1623.9402	1	10	n/a	n/a	1	52	3
1624.9902	1	10	n/a	n/a	1	52	4
1626.3068	1	10	n/a	n/a	1	52	5
1627.6234	1	21	n/a	n/a	1	52	0
1628.528	1	82	n/a	n/a	1	0	0
1628.781	1	82	n/a	n/a	1	0	0
1629.138	1	82	n/a	n/a	1	0	0
1629.344	1	82	n/a	n/a	1	0	0
1629.393	1	82	n/a	n/a	1	0	0
1629.528	1	82	n/a	n/a	1	0	0
1629.841	1	82	n/a	n/a	1	0	0
1630	1	82	n/a	n/a	1	0	0
1630.065	1	82	n/a	n/a	1	0	0
1630.155	1	82	n/a	n/a	1	0	0
1631.6064	1	10	n/a	n/a	1	52	1
1632.6898	1	10	n/a	n/a	1	52	2
1633.973	1	10	n/a	n/a	1	52	3
1635.1896	1	10	n/a	n/a	1	52	4
1636.3394	1	10	n/a	n/a	1	52	5
1637.4894	1	21	n/a	n/a	1	52	0
1638.556	1	10	n/a	n/a	1	52	1
1639.7726	1	10	n/a	n/a	1	52	2
1641.0726	1	10	n/a	n/a	1	52	3
1642.1058	1	10	n/a	n/a	1	52	4
1643.3724	1	10	n/a	n/a	1	52	5
1644.639	1	21	n/a	n/a	1	52	0
1645.889	1	10	n/a	n/a	1	52	1
1647.1388	1	21	n/a	n/a	1	52	0
1648.3222	1	10	n/a	n/a	1	52	1
1649.5054	1	21	n/a	n/a	1	52	0
1650.5386	1	10	n/a	n/a	1	52	1
1651.7552	1	10	n/a	n/a	1	52	2
1652.8552	1	10	n/a	n/a	1	52	3
1654.0884	1	10	n/a	n/a	1	52	4
1655.087	1	82	n/a	n/a	1	0	0
1655.429	1	82	n/a	n/a	1	0	0
1655.474	1	82	n/a	n/a	1	0	0
1655.605	1	82	n/a	n/a	1	0	0
1655.7	1	82	n/a	n/a	1	0	0
1656.087	1	82	n/a	n/a	1	0	0
1656.131	1	82	n/a	n/a	1	0	0
1656.459	1	82	n/a	n/a	1	0	0
1656.732	1	82	n/a	n/a	1	0	0
1656.848	1	82	n/a	n/a	1	0	0
1658.1216	1	10	n/a	n/a	1	52	1
1659.2714	1	21	n/a	n/a	1	52	0
1660.538	1	10	n/a	n/a	1	52	1
1661.788	1	10	n/a	n/a	1	52	2
1662.8712	1	10	n/a	n/a	1	52	3
1663.9546	1	21	n/a	n/a	1	52	0
1665.0212	1	10	n/a	n/a	1	52	1
1666.1044	1	10	n/a	n/a	1	52	2
1667.121	1	10	n/a	n/a	1	52	3
1668.2544	1	10	n/a	n/a	1	52	4
1669.5376	1	10	n/a	n/a	1	52	5
1670.8208	1	21	n/a	n/a	1	52	0
1671.9874	1	10	n/a	n/a	1	52	1
1673.0206	1	10	n/a	n/a	1	52	2
1674.1872	1	10	n/a	n/a	1	52	3
1675.3038	1	10	n/a	n/a	1	52	4
1676.6038	1	10	n/a	n/a	1	52	5
1677.9038	1	21	n/a	n/a	1	52	0
1679.087	1	10	n/a	n/a	1	52	1
1680.2702	1	21	n/a	n/a	1	52	0
1808.0586	1	82	n/a	n/a	1	0	0
1808.1276	1	82	n/a	n/a	1	0	0
1808.5116	1	82	n/a	n/a	1	0	0
1808.5336	1	82	n/a	n/a	1	0	0
1808.7636	1	82	n/a	n/a	1	0	0
1809.0586	1	82	n/a	n/a	1	0	0
1809.3976	1	82	n/a	n/a	1	0	0
1809.5016	1	82	n/a	n/a	1	0	0
1809.6566	1	82	n/a	n/a	1	0	0
1809.8876	1	82	n/a	n/a	1	0	0
1811.096	1	10	n/a	n/a	1	52	1
1812.3958	1	10	n/a	n/a	1	52	2
1813.4958	1	10	n/a	n/a	1	52	3
1814.5958	1	21	n/a	n/a	1	52	0
1815.8624	1	10	n/a	n/a	1	52	1
1817.1456	1	10	n/a	n/a	1	52	2
1818.3956	1	10	n/a	n/a	1	52	3
1819.7122	1	10	n/a	n/a	1	52	4
1821.0288	1	10	n/a	n/a	1	52	5
1822.1954	1	10	n/a	n/a	1	52	6
1823.4452	1	10	n/a	n/a	1	52	7
1824.6952	1	21	n/a	n/a	1	52	0
1825.8618	1	10	n/a	n/a	1	52	1
1827.0618	1	10	n/a	n/a	1	52	2
1828.3284	1	10	n/a	n/a	1	52	3
1829.5948	1	21	n/a	n/a	1	52	0
1830.7114	1	10	n/a	n/a	1	52	1
1832.0448	1	10	n/a	n/a	1	52	2
1833.1446	1	10	n/a	n/a	1	52	3
1834.428	1	10	n/a	n/a	1	52	4
1835.3004	1	82	n/a	n/a	1	0	0
1835.6594	1	82	n/a	n/a	1	0	0
1836.0684	1	82	n/a	n/a	1	0	0
1836.1354	1	82	n/a	n/a	1	0	0
1836.1594	1	82	n/a	n/a	1	0	0
1836.3004	1	82	n/a	n/a	1	0	0
1836.5604	1	82	n/a	n/a	1	0	0
1836.9334	1	82	n/a	n/a	1	0	0
1837.1184	1	82	n/a	n/a	1	0	0
1837.2324	1	82	n/a	n/a	1	0	0
1838.2778	1	10	n/a	n/a	1	52	1
1839.4444	1	10	n/a	n/a	1	52	2
1840.511	1	10	n/a	n/a	1	52	3
1841.5776	1	21	n/a	n/a	1	52	0
1842.8274	1	10	n/a	n/a	1	52	1
1844.0608	1	10	n/a	n/a	1	52	2
1845.2106	1	10	n/a	n/a	1	52	3
1846.3272	1	10	n/a	n/a	1	52	4
1847.4606	1	10	n/a	n/a	1	52	5
1848.5438	1	10	n/a	n/a	1	52	6
1849.8604	1	10	n/a	n/a	1	52	7
1851.177	1	21	n/a	n/a	1	52	0
1852.2102	1	10	n/a	n/a	1	52	1
1853.2436	1	21	n/a	n/a	1	52	0
1854.3768	1	10	n/a	n/a	1	52	1
1855.4434	1	10	n/a	n/a	1	52	2
1856.51	1	10	n/a	n/a	1	52	3
1857.6766	1	10	n/a	n/a	1	52	4
1858.8098	1	10	n/a	n/a	1	52	5
1859.9432	1	21	n/a	n/a	1	52	0
1860.9238	1	82	n/a	n/a	1	0	0
1861.0938	1	82	n/a	n/a	1	0	0
1861.1748	1	82	n/a	n/a	1	0	0
1861.6038	1	82	n/a	n/a	1	0	0
1861.6418	1	82	n/a	n/a	1	0	0
1861.9238	1	82	n/a	n/a	1	0	0
1862.2828	1	82	n/a	n/a	1	0	0
1862.5388	1	82	n/a	n/a	1	0	0
1862.7558	1	82	n/a	n/a	1	0	0
1862.8598	1	82	n/a	n/a	1	0	0
1864.0596	1	10	n/a	n/a	1	52	1
1865.2762	1	10	n/a	n/a	1	52	2
1866.4928	1	10	n/a	n/a	1	52	3
1867.5926	1	10	n/a	n/a	1	52	4
1868.9092	1	10	n/a	n/a	1	52	5
1870.2092	1	10	n/a	n/a	1	52	6
1871.3258	1	10	n/a	n/a	1	52	7
1872.4424	1	21	n/a	n/a	1	52	0
1873.5924	1	10	n/a	n/a	1	52	1
1874.709	1	10	n/a	n/a	1	52	2
1875.8088	1	10	n/a	n/a	1	52	3
1876.9088	1	21	n/a	n/a	1	52	0
1878.0588	1	10	n/a	n/a	1	52	1
1879.292	1	10	n/a	n/a	1	52	2
1880.542	1	10	n/a	n/a	1	52	3
1881.8418	1	10	n/a	n/a	1	52	4
1883.0084	1	10	n/a	n/a	1	52	5
1884.175	1	10	n/a	n/a	1	52	6
1885.375	1	10	n/a	n/a	1	52	7
1886.575	1	21	n/a	n/a	1	52	0
1887.4946	1	82	n/a	n/a	1	0	0
1887.7996	1	82	n/a	n/a	1	0	0
1888.0706	1	82	n/a	n/a	1	0	0
1888.3156	1	82	n/a	n/a	1	0	0
1888.4486	1	82	n/a	n/a	1	0	0
1888.4946	1	82	n/a	n/a	1	0	0
1888.6186	1	82	n/a	n/a	1	0	0
1888.8966	1	82	n/a	n/a	1	0	0
1889.1026	1	82	n/a	n/a	1	0	0
1889.4026	1	82	n/a	n/a	1	0	0
1890.5914	1	10	n/a	n/a	1	52	1
1891.8412	1	10	n/a	n/a	1	52	2
1893.1246	1	10	n/a	n/a	1	52	3
1894.4078	1	21	n/a	n/a	1	52	0
1895.6744	1	10	n/a	n/a	1	52	1
1896.8076	1	10	n/a	n/a	1	52	2
1897.9076	1	10	n/a	n/a	1	52	3
1899.1408	1	10	n/a	n/a	1	52	4
1900.2574	1	10	n/a	n/a	1	52	5
1901.424	1	10	n/a	n/a	1	52	6
1902.624	1	10	n/a	n/a	1	52	7
1903.8238	1	21	n/a	n/a	1	52	0
1904.8572	1	10	n/a	n/a	1	52	1
1906.107	1	10	n/a	n/a	1	52	2
1907.1738	1	10	n/a	n/a	1	52	3
1908.507	1	10	n/a	n/a	1	52	4
1909.6236	1	10	n/a	n/a	1	52	5
1910.7402	1	21	n/a	n/a	1	52	0
1912.04	1	10	n/a	n/a	1	52	1
1913.1234	1	10	n/a	n/a	1	52	2
1913.9978	1	82	n/a	n/a	1	0	0
1914.4078	1	82	n/a	n/a	1	0	0
1914.6988	1	82	n/a	n/a	1	0	0
1914.8438	1	82	n/a	n/a	1	0	0
1914.8928	1	82	n/a	n/a	1	0	0
1914.9978	1	82	n/a	n/a	1	0	0
1915.1188	1	82	n/a	n/a	1	0	0
1915.4538	1	82	n/a	n/a	1	0	0
1915.5338	1	82	n/a	n/a	1	0	0
1915.8408	1	82	n/a	n/a	1	0	0
1917.0732	1	10	n/a	n/a	1	52	1
1918.2564	1	21	n/a	n/a	1	52	0
1919.4896	1	10	n/a	n/a	1	52	1
1920.723	1	21	n/a	n/a	1	52	0
1921.9396	1	10	n/a	n/a	1	52	1
1923.1894	1	10	n/a	n/a	1	52	2
1924.3228	1	10	n/a	n/a	1	52	3
1925.406	1	10	n/a	n/a	1	52	4
1926.7058	1	10	n/a	n/a	1	52	5
1928.0058	1	21	n/a	n/a	1	52	0
1929.0558	1	10	n/a	n/a	1	52	1
1930.2724	1	10	n/a	n/a	1	52	2
1931.439	1	10	n/a	n/a	1	52	3
1932.6388	1	10	n/a	n/a	1	52	4
1933.8554	1	10	n/a	n/a	1	52	5
1934.9388	1	10	n/a	n/a	1	52	6
1936.222	1	10	n/a	n/a	1	52	7
1937.5052	1	21	n/a	n/a	1	52	0
1938.7886	1	10	n/a	n/a	1	52	1
1940.0718	1	21	n/a	n/a	1	52	0
1947.7004	1	82	n/a	n/a	1	0	0
1948.0784	1	82	n/a	n/a	1	0	0
1948.1974	1	82	n/a	n/a	1	0	0
1948.4784	1	82	n/a	n/a	1	0	0
1948.6234	1	82	n/a	n/a	1	0	0
1948.7004	1	82	n/a	n/a	1	0	0
1948.7214	1	82	n/a	n/a	1	0	0
1948.8094	1	82	n/a	n/a	1	0	0
1948.8564	1	82	n/a	n/a	1	0	0
1949.1564	1	82	n/a	n/a	1	0	0
1950.8712	1	10	n/a	n/a	1	50	1
1952.1044	1	10	n/a	n/a	1	50	2
1953.321	1	10	n/a	n/a	1	50	3
1954.4042	1	10	n/a	n/a	1	50	4
1955.4376	1	10	n/a	n/a	1	50	5
1956.4708	1	21	n/a	n/a	1	50	0
1957.604	1	10	n/a	n/a	1	50	1
1958.8706	1	10	n/a	n/a	1	50	2
1959.9872	1	10	n/a	n/a	1	50	3
1961.0706	1	10	n/a	n/a	1	50	4
1962.2872	1	10	n/a	n/a	1	50	5
1963.437	1	10	n/a	n/a	1	50	6
1964.6704	1	10	n/a	n/a	1	50	7
1965.9036	1	21	n/a	n/a	1	50	0
1967.1036	1	10	n/a	n/a	1	50	1
1968.2368	1	10	n/a	n/a	1	50	2
1969.32	1	10	n/a	n/a	1	50	3
1970.5866	1	10	n/a	n/a	1	50	4
1971.8532	1	10	n/a	n/a	1	50	5
1973.1198	1	21	n/a	n/a	1	50	0
1974.1016	1	82	n/a	n/a	1	0	0
1974.3686	1	82	n/a	n/a	1	0	0
1974.5216	1	82	n/a	n/a	1	0	0
1974.9166	1	82	n/a	n/a	1	0	0
1974.9616	1	82	n/a	n/a	1	0	0
1975.1016	1	82	n/a	n/a	1	0	0
1975.4026	1	82	n/a	n/a	1	0	0
1975.5256	1	82	n/a	n/a	1	0	0
1975.7216	1	82	n/a	n/a	1	0	0
1975.9856	1	82	n/a	n/a	1	0	0
1977.1196	1	10	n/a	n/a	1	50	1
1978.4362	1	10	n/a	n/a	1	50	2
1979.6528	1	10	n/a	n/a	1	50	3
1980.786	1	10	n/a	n/a	1	50	4
1981.9694	1	10	n/a	n/a	1	50	5
1983.1526	1	21	n/a	n/a	1	50	0
1984.3026	1	10	n/a	n/a	1	50	1
1985.4692	1	10	n/a	n/a	1	50	2
1986.6024	1	10	n/a	n/a	1	50	3
1987.7356	1	21	n/a	n/a	1	50	0
1988.9522	1	10	n/a	n/a	1	50	1
1990.0356	1	10	n/a	n/a	1	50	2
1991.2522	1	10	n/a	n/a	1	50	3
1992.4688	1	10	n/a	n/a	1	50	4
1993.7686	1	10	n/a	n/a	1	50	5
1995.0186	1	10	n/a	n/a	1	50	6
1996.0852	1	10	n/a	n/a	1	50	7
1997.1518	1	21	n/a	n/a	1	50	0
1998.385	1	10	n/a	n/a	1	50	1
1999.6684	1	10	n/a	n/a	1	50	2
2000.6138	1	82	n/a	n/a	1	0	0
2000.6538	1	82	n/a	n/a	1	0	0
2000.8768	1	82	n/a	n/a	1	0	0
2001.1908	1	82	n/a	n/a	1	0	0
2001.3348	1	82	n/a	n/a	1	0	0
2001.6138	1	82	n/a	n/a	1	0	0
2001.6798	1	82	n/a	n/a	1	0	0
2002.1178	1	82	n/a	n/a	1	0	0
2002.2798	1	82	n/a	n/a	1	0	0
2002.3788	1	82	n/a	n/a	1	0	0
2003.568	1	10	n/a	n/a	1	50	1
2004.768	1	10	n/a	n/a	1	50	2
2006.068	1	10	n/a	n/a	1	50	3
2007.1178	1	10	n/a	n/a	1	50	4
2008.2178	1	10	n/a	n/a	1	50	5
2009.3678	1	10	n/a	n/a	1	50	6
2010.5676	1	10	n/a	n/a	1	50	7
2011.7676	1	21	n/a	n/a	1	50	0
2012.8842	1	10	n/a	n/a	1	50	1
2014.0008	1	21	n/a	n/a	1	50	0
2015.2508	1	10	n/a	n/a	1	50	1
2016.4006	1	10	n/a	n/a	1	50	2
2017.5672	1	10	n/a	n/a	1	50	3
2018.7338	1	21	n/a	n/a	1	50	0
2019.8004	1	10	n/a	n/a	1	50	1
2020.867	1	21	n/a	n/a	1	50	0
2022.117	1	10	n/a	n/a	1	50	1
2023.3002	1	10	n/a	n/a	1	50	2
2024.3502	1	10	n/a	n/a	1	50	3
2025.4834	1	10	n/a	n/a	1	50	4
2026.2016	1	82	n/a	n/a	1	0	0
2026.3316	1	82	n/a	n/a	1	0	0
2026.3774	1	82	n/a	n/a	1	0	0
2026.6894	1	82	n/a	n/a	1	0	0
2026.8464	1	82	n/a	n/a	1	0	0
2027.2016	1	82	n/a	n/a	1	0	0
2027.5226	1	82	n/a	n/a	1	0	0
2027.6896	1	82	n/a	n/a	1	0	0
2027.8806	1	82	n/a	n/a	1	0	0
2028.1296	1	82	n/a	n/a	1	0	0
2029.25	1	10	n/a	n/a	1	50	1
2030.5498	1	10	n/a	n/a	1	50	2
2031.8164	1	10	n/a	n/a	1	50	3
2033.083	1	10	n/a	n/a	1	50	4
2034.1996	1	10	n/a	n/a	1	50	5
2035.3662	1	10	n/a	n/a	1	50	6
2036.6328	1	10	n/a	n/a	1	50	7
2037.8994	1	21	n/a	n/a	1	50	0
2039.066	1	10	n/a	n/a	1	50	1
2040.2326	1	21	n/a	n/a	1	50	0
2041.4326	1	10	n/a	n/a	1	50	1
2042.4658	1	10	n/a	n/a	1	50	2
2043.499	1	10	n/a	n/a	1	50	3
2044.8324	1	10	n/a	n/a	1	50	4
2045.999	1	10	n/a	n/a	1	50	5
2047.1656	1	21	n/a	n/a	1	50	0
2048.4322	1	10	n/a	n/a	1	50	1
2049.6988	1	10	n/a	n/a	1	50	2
2050.832	1	10	n/a	n/a	1	50	3
2051.9652	1	21	n/a	n/a	1	50	0
2053.019	1	82	n/a	n/a	1	0	0
2053.166	1	82	n/a	n/a	1	0	0
2053.493	1	82	n/a	n/a	1	0	0
2053.738	1	82	n/a	n/a	1	0	0
2053.832	1	82	n/a	n/a	1	0	0
2054.019	1	82	n/a	n/a	1	0	0
2054.35	1	82	n/a	n/a	1	0	0
2054.471	1	82	n/a	n/a	1	0	0
2054.555	1	82	n/a	n/a	1	0	0
2054.961	1	82	n/a	n/a	1	0	0
2056.0316	1	10	n/a	n/a	1	50	1
2057.3316	1	10	n/a	n/a	1	50	2
2058.5148	1	10	n/a	n/a	1	50	3
2059.8148	1	10	n/a	n/a	1	50	4
2061.098	1	10	n/a	n/a	1	50	5
2062.1814	1	10	n/a	n/a	1	50	6
2063.3646	1	10	n/a	n/a	1	50	7
2064.5478	1	21	n/a	n/a	1	50	0
2065.7978	1	10	n/a	n/a	1	50	1
2067.0644	1	10	n/a	n/a	1	50	2
2068.1642	1	10	n/a	n/a	1	50	3
2069.2642	1	21	n/a	n/a	1	50	0
2070.3476	1	10	n/a	n/a	1	50	1
2071.4308	1	21	n/a	n/a	1	50	0
2072.614	1	10	n/a	n/a	1	50	1
2073.7974	1	21	n/a	n/a	1	50	0
2074.9472	1	10	n/a	n/a	1	50	1
2076.1638	1	10	n/a	n/a	1	50	2
2077.1972	1	10	n/a	n/a	1	50	3
2078.2304	1	21	n/a	n/a	1	50	0
2101.9084	1	81	n/a	n/a	1	0	0
2102.1084	1	81	n/a	n/a	1	0	0
2102.3084	1	81	n/a	n/a	1	0	0
2102.5084	1	81	n/a	n/a	1	0	0
2102.7084	1	81	n/a	n/a	1	0	0
2102.9084	1	81	n/a	n/a	1	0	0
2103.1084	1	81	n/a	n/a	1	0	0
2103.3084	1	81	n/a	n/a	1	0	0
2103.5084	1	81	n/a	n/a	1	0	0
2103.7084	1	81	n/a	n/a	1	0	0
2105.0288	1	10	n/a	n/a	1	51	1
2106.1288	1	10	n/a	n/a	1	51	2
2107.1954	1	10	n/a	n/a	1	51	3
2108.262	1	10	n/a	n/a	1	51	4
2109.312	1	10	n/a	n/a	1	51	5
2110.4452	1	10	n/a	n/a	1	51	6
2111.5784	1	10	n/a	n/a	1	51	7
2112.7118	1	21	n/a	n/a	1	51	0
2113.995	1	10	n/a	n/a	1	51	1
2115.2948	1	10	n/a	n/a	1	51	2
2116.4782	1	10	n/a	n/a	1	51	3
2117.7114	1	10	n/a	n/a	1	51	4
2118.8614	1	10	n/a	n/a	1	51	5
2120.1112	1	10	n/a	n/a	1	51	6
2121.3778	1	10	n/a	n/a	1	51	7
2122.6444	1	21	n/a	n/a	1	51	0
2123.6944	1	10	n/a	n/a	1	51	1
2124.9776	1	10	n/a	n/a	1	51	2
2126.0942	1	10	n/a	n/a	1	51	3
2127.2608	1	10	n/a	n/a	1	51	4
2128.1932	1	81	n/a	n/a	1	0	0
2128.3932	1	81	n/a	n/a	1	0	0
2128.5932	1	81	n/a	n/a	1	0	0
2128.7932	1	81	n/a	n/a	1	0	0
2128.9932	1	81	n/a	n/a	1	0	0
2129.1932	1	81	n/a	n/a	1	0	0
2129.3932	1	81	n/a	n/a	1	0	0
2129.5932	1	81	n/a	n/a	1	0	0
2129.7932	1	81	n/a	n/a	1	0	0
2129.9932	1	81	n/a	n/a	1	0	0
2131.1772	1	10	n/a	n/a	1	51	1
2132.3938	1	10	n/a	n/a	1	51	2
2133.4938	1	10	n/a	n/a	1	51	3
2134.777	1	10	n/a	n/a	1	51	4
2136.0436	1	10	n/a	n/a	1	51	5
2137.3102	1	21	n/a	n/a	1	51	0
2138.4436	1	10	n/a	n/a	1	51	1
2139.5768	1	21	n/a	n/a	1	51	0
2140.8434	1	10	n/a	n/a	1	51	1
2141.9266	1	10	n/a	n/a	1	51	2
2143.0766	1	10	n/a	n/a	1	51	3
2144.2598	1	10	n/a	n/a	1	51	4
2145.4932	1	10	n/a	n/a	1	51	5
2146.7598	1	10	n/a	n/a	1	51	6
2147.843	1	10	n/a	n/a	1	51	7
2148.9262	1	21	n/a	n/a	1	51	0
2150.1262	1	10	n/a	n/a	1	51	1
2151.2594	1	10	n/a	n/a	1	51	2
2152.3928	1	10	n/a	n/a	1	51	3
2153.6926	1	10	n/a	n/a	1	51	4
2154.489	1	81	n/a	n/a	1	0	0
2154.689	1	81	n/a	n/a	1	0	0
2154.889	1	81	n/a	n/a	1	0	0
2155.089	1	81	n/a	n/a	1	0	0
2155.289	1	81	n/a	n/a	1	0	0
2155.489	1	81	n/a	n/a	1	0	0
2155.689	1	81	n/a	n/a	1	0	0
2155.889	1	81	n/a	n/a	1	0	0
2156.089	1	81	n/a	n/a	1	0	0
2156.289	1	81	n/a	n/a	1	0	0
2157.5258	1	10	n/a	n/a	1	51	1
2158.6756	1	21	n/a	n/a	1	51	0
2159.7422	1	10	n/a	n/a	1	51	1
2160.8256	1	21	n/a	n/a	1	51	0
2161.9088	1	10	n/a	n/a	1	51	1
2163.0254	1	10	n/a	n/a	1	51	2
2164.342	1	10	n/a	n/a	1	51	3
2165.592	1	10	n/a	n/a	1	51	4
2166.7252	1	10	n/a	n/a	1	51	5
2167.9252	1	10	n/a	n/a	1	51	6
2169.125	1	10	n/a	n/a	1	51	7
2170.325	1	21	n/a	n/a	1	51	0
2171.6082	1	10	n/a	n/a	1	51	1
2172.6416	1	10	n/a	n/a	1	51	2
2173.7248	1	10	n/a	n/a	1	51	3
2174.7914	1	10	n/a	n/a	1	51	4
2175.958	1	10	n/a	n/a	1	51	5
2177.1246	1	21	n/a	n/a	1	51	0
2178.3578	1	10	n/a	n/a	1	51	1
2179.4412	1	10	n/a	n/a	1	51	2
2180.4416	1	81	n/a	n/a	1	0	0
2180.6416	1	81	n/a	n/a	1	0	0
2180.8416	1	81	n/a	n/a	1	0	0
2181.0416	1	81	n/a	n/a	1	0	0
2181.2416	1	81	n/a	n/a	1	0	0
2181.4416	1	81	n/a	n/a	1	0	0
2181.6416	1	81	n/a	n/a	1	0	0
2181.8416	1	81	n/a	n/a	1	0	0
2182.0416	1	81	n/a	n/a	1	0	0
2182.2416	1	81	n/a	n/a	1	0	0
2183.4076	1	10	n/a	n/a	1	51	1
2184.4576	1	10	n/a	n/a	1	51	2
2185.5742	1	10	n/a	n/a	1	51	3
2186.824	1	10	n/a	n/a	1	51	4
2188.0074	1	10	n/a	n/a	1	51	5
2189.1906	1	21	n/a	n/a	1	51	0
2190.4404	1	10	n/a	n/a	1	51	1
2191.657	1	10	n/a	n/a	1	51	2
2192.857	1	10	n/a	n/a	1	51	3
2194.157	1	10	n/a	n/a	1	51	4
2195.2068	1	10	n/a	n/a	1	51	5
2196.2402	1	10	n/a	n/a	1	51	6
2197.5734	1	10	n/a	n/a	1	51	7
2198.8734	1	21	n/a	n/a	1	51	0
2199.9066	1	10	n/a	n/a	1	51	1
2201.2232	1	10	n/a	n/a	1	51	2
2202.3398	1	10	n/a	n/a	1	51	3
2203.4398	1	10	n/a	n/a	1	51	4
2204.7564	1	10	n/a	n/a	1	51	5
2206.073	1	21	n/a	n/a	1	51	0
2207.0616	1	81	n/a	n/a	1	0	0
2207.2616	1	81	n/a	n/a	1	0	0
2207.4616	1	81	n/a	n/a	1	0	0
2207.6616	1	81	n/a	n/a	1	0	0
2207.8616	1	81	n/a	n/a	1	0	0
2208.0616	1	81	n/a	n/a	1	0	0
2208.2616	1	81	n/a	n/a	1	0	0
2208.4616	1	81	n/a	n/a	1	0	0
2208.6616	1	81	n/a	n/a	1	0	0
2208.8616	1	81	n/a	n/a	1	0	0
2209.9894	1	10	n/a	n/a	1	51	1
2211.2892	1	10	n/a	n/a	1	51	2
2212.4892	1	10	n/a	n/a	1	51	3
2213.5224	1	10	n/a	n/a	1	51	4
2214.5558	1	10	n/a	n/a	1	51	5
2215.589	1	21	n/a	n/a	1	51	0
2216.6556	1	10	n/a	n/a	1	51	1
2217.7056	1	10	n/a	n/a	1	51	2
2218.9056	1	10	n/a	n/a	1	51	3
2220.122	1	10	n/a	n/a	1	51	4
2221.4386	1	10	n/a	n/a	1	51	5
2222.5386	1	10	n/a	n/a	1	51	6
2223.6886	1	10	n/a	n/a	1	51	7
2224.8384	1	21	n/a	n/a	1	51	0
2226.055	1	10	n/a	n/a	1	51	1
2227.305	1	10	n/a	n/a	1	51	2
2228.605	1	10	n/a	n/a	1	51	3
2229.9048	1	21	n/a	n/a	1	51	0
2230.9548	1	10	n/a	n/a	1	51	1
2232.0548	1	10	n/a	n/a	1	51	2
