onset	duration	value	response	rt	good	TMS	seq
219.4602	1	81	n/a	n/a	1	0	0
219.6602	1	81	n/a	n/a	1	0	0
219.8602	1	81	n/a	n/a	1	0	0
220.0602	1	81	n/a	n/a	1	0	0
220.2602	1	81	n/a	n/a	1	0	0
220.4602	1	81	n/a	n/a	1	0	0
220.6602	1	81	n/a	n/a	1	0	0
220.8602	1	81	n/a	n/a	1	0	0
221.0602	1	81	n/a	n/a	1	0	0
221.2602	1	81	n/a	n/a	1	0	0
222.5398	1	10	n/a	n/a	1	51	1
223.7232	1	10	n/a	n/a	1	51	2
224.9064	1	10	n/a	n/a	1	51	3
226.2064	1	10	n/a	n/a	1	51	4
227.273	1	10	n/a	n/a	1	51	5
228.4562	1	10	n/a	n/a	1	51	6
229.4894	1	10	n/a	n/a	1	51	7
230.5228	1	21	n/a	n/a	1	51	0
231.706	1	10	n/a	n/a	1	51	1
232.9392	1	10	n/a	n/a	1	51	2
234.1226	1	10	n/a	n/a	1	51	3
235.4224	1	10	n/a	n/a	1	51	4
236.7058	1	10	n/a	n/a	1	51	5
237.989	1	21	n/a	n/a	1	51	0
239.189	1	10	n/a	n/a	1	51	1
240.2388	1	10	n/a	n/a	1	51	2
241.4554	1	10	n/a	n/a	1	51	3
242.672	1	21	n/a	n/a	1	51	0
243.7386	1	10	n/a	n/a	1	51	1
244.9218	1	10	n/a	n/a	1	51	2
245.7464	1	81	n/a	n/a	1	0	0
245.9464	1	81	n/a	n/a	1	0	0
246.1464	1	81	n/a	n/a	1	0	0
246.3464	1	81	n/a	n/a	1	0	0
246.5464	1	81	n/a	n/a	1	0	0
246.7464	1	81	n/a	n/a	1	0	0
246.9464	1	81	n/a	n/a	1	0	0
247.1464	1	81	n/a	n/a	1	0	0
247.3464	1	81	n/a	n/a	1	0	0
247.5464	1	81	n/a	n/a	1	0	0
248.6716	1	10	n/a	n/a	1	51	1
249.705	1	21	n/a	n/a	1	51	0
250.8216	1	10	n/a	n/a	1	51	1
252.1048	1	10	n/a	n/a	1	51	2
253.2714	1	10	n/a	n/a	1	51	3
254.388	1	10	n/a	n/a	1	51	4
255.5046	1	10	n/a	n/a	1	51	5
256.6212	1	21	n/a	n/a	1	51	0
257.9044	1	10	n/a	n/a	1	51	1
258.971	1	10	n/a	n/a	1	51	2
260.071	1	10	n/a	n/a	1	51	3
261.1376	1	10	n/a	n/a	1	51	4
262.2042	1	10	n/a	n/a	1	51	5
263.2374	1	10	n/a	n/a	1	51	6
264.3708	1	10	n/a	n/a	1	51	7
265.504	1	21	n/a	n/a	1	51	0
266.7206	1	10	n/a	n/a	1	51	1
267.8538	1	10	n/a	n/a	1	51	2
269.1038	1	10	n/a	n/a	1	51	3
270.3538	1	21	n/a	n/a	1	51	0
271.2634	1	81	n/a	n/a	1	0	0
271.4634	1	81	n/a	n/a	1	0	0
271.6634	1	81	n/a	n/a	1	0	0
271.8634	1	81	n/a	n/a	1	0	0
272.0634	1	81	n/a	n/a	1	0	0
272.2634	1	81	n/a	n/a	1	0	0
272.4634	1	81	n/a	n/a	1	0	0
272.6634	1	81	n/a	n/a	1	0	0
272.8634	1	81	n/a	n/a	1	0	0
273.0634	1	81	n/a	n/a	1	0	0
274.2702	1	10	n/a	n/a	1	51	1
275.3868	1	21	n/a	n/a	1	51	0
276.4534	1	10	n/a	n/a	1	51	1
277.77	1	10	n/a	n/a	1	51	2
278.87	1	10	n/a	n/a	1	51	3
279.9698	1	21	n/a	n/a	1	51	0
281.2698	1	10	n/a	n/a	1	51	1
282.303	1	10	n/a	n/a	1	51	2
283.5864	1	10	n/a	n/a	1	51	3
284.6362	1	10	n/a	n/a	1	51	4
285.7028	1	10	n/a	n/a	1	51	5
286.9194	1	10	n/a	n/a	1	51	6
288.1528	1	10	n/a	n/a	1	51	7
289.386	1	21	n/a	n/a	1	51	0
290.6858	1	10	n/a	n/a	1	51	1
292.0024	1	10	n/a	n/a	1	51	2
293.1524	1	10	n/a	n/a	1	51	3
294.2356	1	10	n/a	n/a	1	51	4
295.2856	1	10	n/a	n/a	1	51	5
296.3356	1	10	n/a	n/a	1	51	6
297.224	1	81	n/a	n/a	1	0	0
297.424	1	81	n/a	n/a	1	0	0
297.624	1	81	n/a	n/a	1	0	0
297.824	1	81	n/a	n/a	1	0	0
298.024	1	81	n/a	n/a	1	0	0
298.224	1	81	n/a	n/a	1	0	0
298.424	1	81	n/a	n/a	1	0	0
298.624	1	81	n/a	n/a	1	0	0
298.824	1	81	n/a	n/a	1	0	0
299.024	1	81	n/a	n/a	1	0	0
300.1854	1	10	n/a	n/a	1	51	1
301.402	1	10	n/a	n/a	1	51	2
302.5518	1	10	n/a	n/a	1	51	3
303.7018	1	21	n/a	n/a	1	51	0
304.735	1	10	n/a	n/a	1	51	1
305.785	1	10	n/a	n/a	1	51	2
306.985	1	10	n/a	n/a	1	51	3
308.0682	1	10	n/a	n/a	1	51	4
309.1182	1	10	n/a	n/a	1	51	5
310.168	1	21	n/a	n/a	1	51	0
311.4846	1	10	n/a	n/a	1	51	1
312.618	1	10	n/a	n/a	1	51	2
313.9012	1	10	n/a	n/a	1	51	3
315.0178	1	10	n/a	n/a	1	51	4
316.2344	1	10	n/a	n/a	1	51	5
317.3344	1	10	n/a	n/a	1	51	6
318.5176	1	10	n/a	n/a	1	51	7
319.7008	1	21	n/a	n/a	1	51	0
320.8174	1	10	n/a	n/a	1	51	1
321.934	1	21	n/a	n/a	1	51	0
322.8638	1	81	n/a	n/a	1	0	0
323.0638	1	81	n/a	n/a	1	0	0
323.2638	1	81	n/a	n/a	1	0	0
323.4638	1	81	n/a	n/a	1	0	0
323.6638	1	81	n/a	n/a	1	0	0
323.8638	1	81	n/a	n/a	1	0	0
324.0638	1	81	n/a	n/a	1	0	0
324.2638	1	81	n/a	n/a	1	0	0
324.4638	1	81	n/a	n/a	1	0	0
324.6638	1	81	n/a	n/a	1	0	0
326.0338	1	10	n/a	n/a	1	51	1
327.1504	1	10	n/a	n/a	1	51	2
328.4336	1	10	n/a	n/a	1	51	3
329.5336	1	10	n/a	n/a	1	51	4
330.8502	1	10	n/a	n/a	1	51	5
332.1668	1	21	n/a	n/a	1	51	0
333.2834	1	10	n/a	n/a	1	51	1
334.5334	1	10	n/a	n/a	1	51	2
335.8332	1	10	n/a	n/a	1	51	3
336.9332	1	10	n/a	n/a	1	51	4
338.1832	1	10	n/a	n/a	1	51	5
339.333	1	10	n/a	n/a	1	51	6
340.583	1	10	n/a	n/a	1	51	7
341.833	1	21	n/a	n/a	1	51	0
342.9496	1	10	n/a	n/a	1	51	1
344.0828	1	10	n/a	n/a	1	51	2
345.366	1	10	n/a	n/a	1	51	3
346.4492	1	10	n/a	n/a	1	51	4
347.6492	1	10	n/a	n/a	1	51	5
348.8492	1	21	n/a	n/a	1	51	0
363.539	1	81	n/a	n/a	1	0	0
363.739	1	81	n/a	n/a	1	0	0
363.939	1	81	n/a	n/a	1	0	0
364.139	1	81	n/a	n/a	1	0	0
364.339	1	81	n/a	n/a	1	0	0
364.539	1	81	n/a	n/a	1	0	0
364.739	1	81	n/a	n/a	1	0	0
364.939	1	81	n/a	n/a	1	0	0
365.139	1	81	n/a	n/a	1	0	0
365.339	1	81	n/a	n/a	1	0	0
366.5482	1	10	n/a	n/a	1	50	1
367.6814	1	10	n/a	n/a	1	50	2
368.7314	1	10	n/a	n/a	1	50	3
370.0312	1	10	n/a	n/a	1	50	4
371.1478	1	10	n/a	n/a	1	50	5
372.1978	1	10	n/a	n/a	1	50	6
373.3644	1	10	n/a	n/a	1	50	7
374.531	1	21	n/a	n/a	1	50	0
375.7976	1	10	n/a	n/a	1	50	1
377.0642	1	21	n/a	n/a	1	50	0
378.2642	1	10	n/a	n/a	1	50	1
379.564	1	10	n/a	n/a	1	50	2
380.8806	1	10	n/a	n/a	1	50	3
382.1638	1	10	n/a	n/a	1	50	4
383.4638	1	10	n/a	n/a	1	50	5
384.5304	1	10	n/a	n/a	1	50	6
385.747	1	10	n/a	n/a	1	50	7
386.9636	1	21	n/a	n/a	1	50	0
388.1802	1	10	n/a	n/a	1	50	1
389.2634	1	10	n/a	n/a	1	50	2
390.0788	1	81	n/a	n/a	1	0	0
390.2788	1	81	n/a	n/a	1	0	0
390.4788	1	81	n/a	n/a	1	0	0
390.6788	1	81	n/a	n/a	1	0	0
390.8788	1	81	n/a	n/a	1	0	0
391.079	1	81	n/a	n/a	1	0	0
391.279	1	81	n/a	n/a	1	0	0
391.479	1	81	n/a	n/a	1	0	0
391.679	1	81	n/a	n/a	1	0	0
391.879	1	81	n/a	n/a	1	0	0
393.2298	1	10	n/a	n/a	1	50	1
394.3966	1	10	n/a	n/a	1	50	2
395.4298	1	10	n/a	n/a	1	50	3
396.7464	1	10	n/a	n/a	1	50	4
397.913	1	10	n/a	n/a	1	50	5
399.0796	1	21	n/a	n/a	1	50	0
400.3794	1	10	n/a	n/a	1	50	1
401.6794	1	21	n/a	n/a	1	50	0
402.9126	1	10	n/a	n/a	1	50	1
403.9626	1	10	n/a	n/a	1	50	2
404.9958	1	10	n/a	n/a	1	50	3
406.0292	1	21	n/a	n/a	1	50	0
407.2458	1	10	n/a	n/a	1	50	1
408.4956	1	10	n/a	n/a	1	50	2
409.7622	1	10	n/a	n/a	1	50	3
410.8456	1	10	n/a	n/a	1	50	4
411.9622	1	10	n/a	n/a	1	50	5
413.1788	1	10	n/a	n/a	1	50	6
414.462	1	10	n/a	n/a	1	50	7
415.7452	1	21	n/a	n/a	1	50	0
416.612	1	81	n/a	n/a	1	0	0
416.812	1	81	n/a	n/a	1	0	0
417.012	1	81	n/a	n/a	1	0	0
417.212	1	81	n/a	n/a	1	0	0
417.412	1	81	n/a	n/a	1	0	0
417.612	1	81	n/a	n/a	1	0	0
417.812	1	81	n/a	n/a	1	0	0
418.012	1	81	n/a	n/a	1	0	0
418.212	1	81	n/a	n/a	1	0	0
418.412	1	81	n/a	n/a	1	0	0
419.7616	1	10	n/a	n/a	1	50	1
420.9616	1	10	n/a	n/a	1	50	2
422.2116	1	10	n/a	n/a	1	50	3
423.4782	1	10	n/a	n/a	1	50	4
424.7614	1	10	n/a	n/a	1	50	5
426.0446	1	21	n/a	n/a	1	50	0
427.1112	1	10	n/a	n/a	1	50	1
428.1946	1	10	n/a	n/a	1	50	2
429.5112	1	10	n/a	n/a	1	50	3
430.611	1	10	n/a	n/a	1	50	4
431.6444	1	10	n/a	n/a	1	50	5
432.6776	1	21	n/a	n/a	1	50	0
433.8942	1	10	n/a	n/a	1	50	1
435.0942	1	10	n/a	n/a	1	50	2
436.1274	1	10	n/a	n/a	1	50	3
437.444	1	10	n/a	n/a	1	50	4
438.5106	1	10	n/a	n/a	1	50	5
439.6438	1	10	n/a	n/a	1	50	6
440.9272	1	10	n/a	n/a	1	50	7
442.2104	1	21	n/a	n/a	1	50	0
443.324	1	81	n/a	n/a	1	0	0
443.524	1	81	n/a	n/a	1	0	0
443.724	1	81	n/a	n/a	1	0	0
443.924	1	81	n/a	n/a	1	0	0
444.124	1	81	n/a	n/a	1	0	0
444.324	1	81	n/a	n/a	1	0	0
444.524	1	81	n/a	n/a	1	0	0
444.724	1	81	n/a	n/a	1	0	0
444.924	1	81	n/a	n/a	1	0	0
445.124	1	81	n/a	n/a	1	0	0
446.3268	1	10	n/a	n/a	1	50	1
447.4434	1	21	n/a	n/a	1	50	0
448.6434	1	10	n/a	n/a	1	50	1
449.8932	1	10	n/a	n/a	1	50	2
451.1598	1	10	n/a	n/a	1	50	3
452.2764	1	10	n/a	n/a	1	50	4
453.493	1	10	n/a	n/a	1	50	5
454.6764	1	10	n/a	n/a	1	50	6
455.8262	1	10	n/a	n/a	1	50	7
456.9762	1	21	n/a	n/a	1	50	0
458.1262	1	10	n/a	n/a	1	50	1
459.276	1	21	n/a	n/a	1	50	0
460.5426	1	10	n/a	n/a	1	50	1
461.8092	1	21	n/a	n/a	1	50	0
462.8924	1	10	n/a	n/a	1	50	1
463.9258	1	10	n/a	n/a	1	50	2
464.9758	1	10	n/a	n/a	1	50	3
466.2422	1	10	n/a	n/a	1	50	4
467.3922	1	10	n/a	n/a	1	50	5
468.5254	1	10	n/a	n/a	1	50	6
469.2558	1	81	n/a	n/a	1	0	0
469.4558	1	81	n/a	n/a	1	0	0
469.6558	1	81	n/a	n/a	1	0	0
469.8558	1	81	n/a	n/a	1	0	0
470.0558	1	81	n/a	n/a	1	0	0
470.256	1	81	n/a	n/a	1	0	0
470.456	1	81	n/a	n/a	1	0	0
470.656	1	81	n/a	n/a	1	0	0
470.856	1	81	n/a	n/a	1	0	0
471.056	1	81	n/a	n/a	1	0	0
472.242	1	10	n/a	n/a	1	50	1
473.3086	1	10	n/a	n/a	1	50	2
474.3418	1	10	n/a	n/a	1	50	3
475.6084	1	10	n/a	n/a	1	50	4
476.7916	1	10	n/a	n/a	1	50	5
477.975	1	21	n/a	n/a	1	50	0
479.1248	1	10	n/a	n/a	1	50	1
480.4248	1	10	n/a	n/a	1	50	2
481.5414	1	10	n/a	n/a	1	50	3
482.5914	1	10	n/a	n/a	1	50	4
483.7912	1	10	n/a	n/a	1	50	5
484.9912	1	21	n/a	n/a	1	50	0
486.2912	1	10	n/a	n/a	1	50	1
487.3744	1	10	n/a	n/a	1	50	2
488.5744	1	10	n/a	n/a	1	50	3
489.791	1	10	n/a	n/a	1	50	4
491.1076	1	10	n/a	n/a	1	50	5
492.424	1	21	n/a	n/a	1	50	0
493.524	1	10	n/a	n/a	1	50	1
494.5906	1	10	n/a	n/a	1	50	2
516.3014	1	82	n/a	n/a	1	0	0
516.3654	1	82	n/a	n/a	1	0	0
516.4934	1	82	n/a	n/a	1	0	0
516.8134	1	82	n/a	n/a	1	0	0
516.9024	1	82	n/a	n/a	1	0	0
517.3016	1	82	n/a	n/a	1	0	0
517.4586	1	82	n/a	n/a	1	0	0
517.7206	1	82	n/a	n/a	1	0	0
517.8144	1	82	n/a	n/a	1	0	0
518.1406	1	82	n/a	n/a	1	0	0
519.3726	1	10	n/a	n/a	1	52	1
520.5558	1	21	n/a	n/a	1	52	0
521.8058	1	10	n/a	n/a	1	52	1
522.939	1	10	n/a	n/a	1	52	2
524.2222	1	10	n/a	n/a	1	52	3
525.5054	1	21	n/a	n/a	1	52	0
526.7554	1	10	n/a	n/a	1	52	1
527.9554	1	10	n/a	n/a	1	52	2
529.122	1	10	n/a	n/a	1	52	3
530.3052	1	10	n/a	n/a	1	52	4
531.5052	1	10	n/a	n/a	1	52	5
532.705	1	21	n/a	n/a	1	52	0
533.755	1	10	n/a	n/a	1	52	1
534.9382	1	10	n/a	n/a	1	52	2
536.2548	1	10	n/a	n/a	1	52	3
537.3548	1	10	n/a	n/a	1	52	4
538.6214	1	10	n/a	n/a	1	52	5
539.888	1	21	n/a	n/a	1	52	0
541.188	1	10	n/a	n/a	1	52	1
542.2212	1	10	n/a	n/a	1	52	2
543.2936	1	82	n/a	n/a	1	0	0
543.5626	1	82	n/a	n/a	1	0	0
543.6306	1	82	n/a	n/a	1	0	0
543.7356	1	82	n/a	n/a	1	0	0
543.7676	1	82	n/a	n/a	1	0	0
544.2938	1	82	n/a	n/a	1	0	0
544.6498	1	82	n/a	n/a	1	0	0
544.6768	1	82	n/a	n/a	1	0	0
544.9068	1	82	n/a	n/a	1	0	0
545.2298	1	82	n/a	n/a	1	0	0
546.4042	1	10	n/a	n/a	1	52	1
547.4708	1	10	n/a	n/a	1	52	2
548.5708	1	10	n/a	n/a	1	52	3
549.6708	1	21	n/a	n/a	1	52	0
550.9706	1	10	n/a	n/a	1	52	1
552.2872	1	10	n/a	n/a	1	52	2
553.4706	1	10	n/a	n/a	1	52	3
554.6038	1	10	n/a	n/a	1	52	4
555.8538	1	10	n/a	n/a	1	52	5
557.1036	1	21	n/a	n/a	1	52	0
558.3202	1	10	n/a	n/a	1	52	1
559.5702	1	10	n/a	n/a	1	52	2
560.8034	1	10	n/a	n/a	1	52	3
562.0366	1	21	n/a	n/a	1	52	0
563.1366	1	10	n/a	n/a	1	52	1
564.2366	1	21	n/a	n/a	1	52	0
565.4032	1	10	n/a	n/a	1	52	1
566.503	1	10	n/a	n/a	1	52	2
567.7196	1	10	n/a	n/a	1	52	3
568.9862	1	10	n/a	n/a	1	52	4
570.0988	1	82	n/a	n/a	1	0	0
570.2138	1	82	n/a	n/a	1	0	0
570.5208	1	82	n/a	n/a	1	0	0
570.7558	1	82	n/a	n/a	1	0	0
570.9078	1	82	n/a	n/a	1	0	0
571.0988	1	82	n/a	n/a	1	0	0
571.1868	1	82	n/a	n/a	1	0	0
571.3228	1	82	n/a	n/a	1	0	0
571.7568	1	82	n/a	n/a	1	0	0
571.9218	1	82	n/a	n/a	1	0	0
573.0194	1	10	n/a	n/a	1	52	1
574.0694	1	21	n/a	n/a	1	52	0
575.1026	1	10	n/a	n/a	1	52	1
576.1358	1	21	n/a	n/a	1	52	0
577.2692	1	10	n/a	n/a	1	52	1
578.3358	1	10	n/a	n/a	1	52	2
579.619	1	10	n/a	n/a	1	52	3
580.9022	1	21	n/a	n/a	1	52	0
582.2022	1	10	n/a	n/a	1	52	1
583.3688	1	10	n/a	n/a	1	52	2
584.4188	1	10	n/a	n/a	1	52	3
585.5854	1	10	n/a	n/a	1	52	4
586.6686	1	10	n/a	n/a	1	52	5
587.8352	1	10	n/a	n/a	1	52	6
588.9352	1	10	n/a	n/a	1	52	7
590.035	1	21	n/a	n/a	1	52	0
591.335	1	10	n/a	n/a	1	52	1
592.6348	1	21	n/a	n/a	1	52	0
593.8514	1	10	n/a	n/a	1	52	1
595.018	1	10	n/a	n/a	1	52	2
596.0736	1	82	n/a	n/a	1	0	0
596.1366	1	82	n/a	n/a	1	0	0
596.2636	1	82	n/a	n/a	1	0	0
596.4406	1	82	n/a	n/a	1	0	0
596.7696	1	82	n/a	n/a	1	0	0
597.0736	1	82	n/a	n/a	1	0	0
597.2276	1	82	n/a	n/a	1	0	0
597.3196	1	82	n/a	n/a	1	0	0
597.5916	1	82	n/a	n/a	1	0	0
597.9996	1	82	n/a	n/a	1	0	0
599.0846	1	10	n/a	n/a	1	52	1
600.1844	1	10	n/a	n/a	1	52	2
601.301	1	10	n/a	n/a	1	52	3
602.4344	1	10	n/a	n/a	1	52	4
603.701	1	10	n/a	n/a	1	52	5
604.7508	1	10	n/a	n/a	1	52	6
605.9508	1	10	n/a	n/a	1	52	7
607.1508	1	21	n/a	n/a	1	52	0
608.234	1	10	n/a	n/a	1	52	1
609.4672	1	10	n/a	n/a	1	52	2
610.6506	1	10	n/a	n/a	1	52	3
611.7504	1	10	n/a	n/a	1	52	4
613.017	1	10	n/a	n/a	1	52	5
614.2836	1	21	n/a	n/a	1	52	0
615.4002	1	10	n/a	n/a	1	52	1
616.5168	1	21	n/a	n/a	1	52	0
617.6834	1	10	n/a	n/a	1	52	1
618.85	1	21	n/a	n/a	1	52	0
619.9332	1	10	n/a	n/a	1	52	1
621.2666	1	10	n/a	n/a	1	52	2
622.125	1	82	n/a	n/a	1	0	0
622.373	1	82	n/a	n/a	1	0	0
622.469	1	82	n/a	n/a	1	0	0
622.8	1	82	n/a	n/a	1	0	0
622.845	1	82	n/a	n/a	1	0	0
623.125	1	82	n/a	n/a	1	0	0
623.421	1	82	n/a	n/a	1	0	0
623.58	1	82	n/a	n/a	1	0	0
623.973	1	82	n/a	n/a	1	0	0
624.076	1	82	n/a	n/a	1	0	0
625.1164	1	10	n/a	n/a	1	52	1
626.2162	1	10	n/a	n/a	1	52	2
627.4496	1	10	n/a	n/a	1	52	3
628.6828	1	21	n/a	n/a	1	52	0
629.8994	1	10	n/a	n/a	1	52	1
631.0994	1	10	n/a	n/a	1	52	2
632.2326	1	10	n/a	n/a	1	52	3
633.3492	1	10	n/a	n/a	1	52	4
634.6324	1	10	n/a	n/a	1	52	5
635.9156	1	21	n/a	n/a	1	52	0
637.1656	1	10	n/a	n/a	1	52	1
638.4656	1	10	n/a	n/a	1	52	2
639.6154	1	10	n/a	n/a	1	52	3
640.7654	1	21	n/a	n/a	1	52	0
641.9654	1	10	n/a	n/a	1	52	1
643.2986	1	10	n/a	n/a	1	52	2
644.5152	1	10	n/a	n/a	1	52	3
645.5984	1	10	n/a	n/a	1	52	4
646.865	1	10	n/a	n/a	1	52	5
648.1316	1	21	n/a	n/a	1	52	0
736.8682	1	82	n/a	n/a	1	0	0
737.3002	1	82	n/a	n/a	1	0	0
737.3962	1	82	n/a	n/a	1	0	0
737.6982	1	82	n/a	n/a	1	0	0
737.7422	1	82	n/a	n/a	1	0	0
737.8682	1	82	n/a	n/a	1	0	0
738.2812	1	82	n/a	n/a	1	0	0
738.3472	1	82	n/a	n/a	1	0	0
738.3922	1	82	n/a	n/a	1	0	0
738.6742	1	82	n/a	n/a	1	0	0
740.0262	1	10	n/a	n/a	1	51	1
741.1762	1	10	n/a	n/a	1	51	2
742.3594	1	10	n/a	n/a	1	51	3
743.5428	1	21	n/a	n/a	1	51	0
744.7926	1	10	n/a	n/a	1	51	1
745.9926	1	10	n/a	n/a	1	51	2
747.1426	1	10	n/a	n/a	1	51	3
748.3924	1	10	n/a	n/a	1	51	4
749.559	1	10	n/a	n/a	1	51	5
750.7256	1	21	n/a	n/a	1	51	0
751.8756	1	10	n/a	n/a	1	51	1
753.1922	1	10	n/a	n/a	1	51	2
754.4588	1	10	n/a	n/a	1	51	3
755.7254	1	21	n/a	n/a	1	51	0
756.7586	1	10	n/a	n/a	1	51	1
758.0586	1	10	n/a	n/a	1	51	2
759.2584	1	10	n/a	n/a	1	51	3
760.4918	1	10	n/a	n/a	1	51	4
761.675	1	10	n/a	n/a	1	51	5
762.7916	1	10	n/a	n/a	1	51	6
763.5712	1	82	n/a	n/a	1	0	0
763.8922	1	82	n/a	n/a	1	0	0
764.1752	1	82	n/a	n/a	1	0	0
764.2562	1	82	n/a	n/a	1	0	0
764.4892	1	82	n/a	n/a	1	0	0
764.5712	1	82	n/a	n/a	1	0	0
764.6022	1	82	n/a	n/a	1	0	0
764.9242	1	82	n/a	n/a	1	0	0
765.0602	1	82	n/a	n/a	1	0	0
765.2222	1	82	n/a	n/a	1	0	0
766.608	1	10	n/a	n/a	1	51	1
767.8246	1	10	n/a	n/a	1	51	2
768.908	1	10	n/a	n/a	1	51	3
769.9912	1	21	n/a	n/a	1	51	0
771.291	1	10	n/a	n/a	1	51	1
772.6076	1	10	n/a	n/a	1	51	2
773.8576	1	10	n/a	n/a	1	51	3
775.1742	1	10	n/a	n/a	1	51	4
776.2242	1	10	n/a	n/a	1	51	5
777.274	1	21	n/a	n/a	1	51	0
778.5574	1	10	n/a	n/a	1	51	1
779.774	1	10	n/a	n/a	1	51	2
780.9072	1	10	n/a	n/a	1	51	3
782.0404	1	21	n/a	n/a	1	51	0
783.2904	1	10	n/a	n/a	1	51	1
784.5236	1	10	n/a	n/a	1	51	2
785.8236	1	10	n/a	n/a	1	51	3
786.9236	1	10	n/a	n/a	1	51	4
787.9568	1	10	n/a	n/a	1	51	5
789.1568	1	10	n/a	n/a	1	51	6
789.9292	1	82	n/a	n/a	1	0	0
789.9782	1	82	n/a	n/a	1	0	0
790.1182	1	82	n/a	n/a	1	0	0
790.2102	1	82	n/a	n/a	1	0	0
790.5712	1	82	n/a	n/a	1	0	0
790.9292	1	82	n/a	n/a	1	0	0
791.1862	1	82	n/a	n/a	1	0	0
791.4852	1	82	n/a	n/a	1	0	0
791.6502	1	82	n/a	n/a	1	0	0
791.6972	1	82	n/a	n/a	1	0	0
792.9898	1	10	n/a	n/a	1	51	1
794.0564	1	10	n/a	n/a	1	51	2
795.273	1	10	n/a	n/a	1	51	3
796.523	1	10	n/a	n/a	1	51	4
797.8228	1	10	n/a	n/a	1	51	5
798.9228	1	10	n/a	n/a	1	51	6
800.1894	1	10	n/a	n/a	1	51	7
801.456	1	21	n/a	n/a	1	51	0
802.5226	1	10	n/a	n/a	1	51	1
803.7058	1	10	n/a	n/a	1	51	2
804.8058	1	10	n/a	n/a	1	51	3
806.1058	1	10	n/a	n/a	1	51	4
807.3556	1	10	n/a	n/a	1	51	5
808.6056	1	21	n/a	n/a	1	51	0
809.7888	1	10	n/a	n/a	1	51	1
810.9722	1	21	n/a	n/a	1	51	0
812.2388	1	10	n/a	n/a	1	51	1
813.4052	1	10	n/a	n/a	1	51	2
814.5386	1	10	n/a	n/a	1	51	3
815.6718	1	10	n/a	n/a	1	51	4
816.4834	1	82	n/a	n/a	1	0	0
816.5874	1	82	n/a	n/a	1	0	0
817.0174	1	82	n/a	n/a	1	0	0
817.0624	1	82	n/a	n/a	1	0	0
817.2004	1	82	n/a	n/a	1	0	0
817.4834	1	82	n/a	n/a	1	0	0
817.7234	1	82	n/a	n/a	1	0	0
817.8254	1	82	n/a	n/a	1	0	0
817.8474	1	82	n/a	n/a	1	0	0
818.2314	1	82	n/a	n/a	1	0	0
819.5882	1	10	n/a	n/a	1	51	1
820.8548	1	10	n/a	n/a	1	51	2
821.8882	1	10	n/a	n/a	1	51	3
823.0714	1	10	n/a	n/a	1	51	4
824.3046	1	10	n/a	n/a	1	51	5
825.538	1	21	n/a	n/a	1	51	0
826.7378	1	10	n/a	n/a	1	51	1
827.7712	1	10	n/a	n/a	1	51	2
829.0044	1	10	n/a	n/a	1	51	3
830.2376	1	21	n/a	n/a	1	51	0
831.2876	1	10	n/a	n/a	1	51	1
832.3376	1	21	n/a	n/a	1	51	0
833.4874	1	10	n/a	n/a	1	51	1
834.7374	1	10	n/a	n/a	1	51	2
835.854	1	10	n/a	n/a	1	51	3
836.9706	1	10	n/a	n/a	1	51	4
838.1038	1	10	n/a	n/a	1	51	5
839.2372	1	21	n/a	n/a	1	51	0
840.387	1	10	n/a	n/a	1	51	1
841.6536	1	10	n/a	n/a	1	51	2
842.6582	1	82	n/a	n/a	1	0	0
843.0392	1	82	n/a	n/a	1	0	0
843.2832	1	82	n/a	n/a	1	0	0
843.4152	1	82	n/a	n/a	1	0	0
843.4642	1	82	n/a	n/a	1	0	0
843.6582	1	82	n/a	n/a	1	0	0
843.9742	1	82	n/a	n/a	1	0	0
844.0192	1	82	n/a	n/a	1	0	0
844.1762	1	82	n/a	n/a	1	0	0
844.2522	1	82	n/a	n/a	1	0	0
845.82	1	10	n/a	n/a	1	51	1
847.1366	1	10	n/a	n/a	1	51	2
848.3866	1	10	n/a	n/a	1	51	3
849.4198	1	10	n/a	n/a	1	51	4
850.4532	1	10	n/a	n/a	1	51	5
851.653	1	10	n/a	n/a	1	51	6
852.8196	1	10	n/a	n/a	1	51	7
853.9862	1	21	n/a	n/a	1	51	0
855.1196	1	10	n/a	n/a	1	51	1
856.2528	1	21	n/a	n/a	1	51	0
857.3028	1	10	n/a	n/a	1	51	1
858.436	1	10	n/a	n/a	1	51	2
859.486	1	10	n/a	n/a	1	51	3
860.6358	1	10	n/a	n/a	1	51	4
861.7192	1	10	n/a	n/a	1	51	5
862.8024	1	21	n/a	n/a	1	51	0
864.0356	1	10	n/a	n/a	1	51	1
865.1356	1	10	n/a	n/a	1	51	2
866.4022	1	10	n/a	n/a	1	51	3
867.6688	1	21	n/a	n/a	1	51	0
878.3066	1	81	n/a	n/a	1	0	0
878.5066	1	81	n/a	n/a	1	0	0
878.7066	1	81	n/a	n/a	1	0	0
878.9066	1	81	n/a	n/a	1	0	0
879.1066	1	81	n/a	n/a	1	0	0
879.3066	1	81	n/a	n/a	1	0	0
879.5066	1	81	n/a	n/a	1	0	0
879.7066	1	81	n/a	n/a	1	0	0
879.9066	1	81	n/a	n/a	1	0	0
880.1066	1	81	n/a	n/a	1	0	0
881.518	1	10	n/a	n/a	1	50	1
882.668	1	10	n/a	n/a	1	50	2
883.9012	1	10	n/a	n/a	1	50	3
885.101	1	10	n/a	n/a	1	50	4
886.2676	1	10	n/a	n/a	1	50	5
887.4342	1	21	n/a	n/a	1	50	0
888.7342	1	10	n/a	n/a	1	50	1
889.9674	1	10	n/a	n/a	1	50	2
891.0674	1	10	n/a	n/a	1	50	3
892.1506	1	10	n/a	n/a	1	50	4
893.2672	1	10	n/a	n/a	1	50	5
894.3172	1	10	n/a	n/a	1	50	6
895.6004	1	10	n/a	n/a	1	50	7
896.8838	1	21	n/a	n/a	1	50	0
898.017	1	10	n/a	n/a	1	50	1
899.1502	1	21	n/a	n/a	1	50	0
900.4668	1	10	n/a	n/a	1	50	1
901.6334	1	10	n/a	n/a	1	50	2
902.75	1	10	n/a	n/a	1	50	3
904.0166	1	10	n/a	n/a	1	50	4
904.7872	1	81	n/a	n/a	1	0	0
904.9872	1	81	n/a	n/a	1	0	0
905.1872	1	81	n/a	n/a	1	0	0
905.3872	1	81	n/a	n/a	1	0	0
905.5872	1	81	n/a	n/a	1	0	0
905.7872	1	81	n/a	n/a	1	0	0
905.9872	1	81	n/a	n/a	1	0	0
906.1872	1	81	n/a	n/a	1	0	0
906.3872	1	81	n/a	n/a	1	0	0
906.5872	1	81	n/a	n/a	1	0	0
907.833	1	10	n/a	n/a	1	50	1
909.133	1	10	n/a	n/a	1	50	2
910.333	1	10	n/a	n/a	1	50	3
911.5662	1	10	n/a	n/a	1	50	4
912.5994	1	10	n/a	n/a	1	50	5
913.6328	1	21	n/a	n/a	1	50	0
914.8994	1	10	n/a	n/a	1	50	1
916.1492	1	10	n/a	n/a	1	50	2
917.2326	1	10	n/a	n/a	1	50	3
918.4824	1	10	n/a	n/a	1	50	4
919.599	1	10	n/a	n/a	1	50	5
920.7156	1	21	n/a	n/a	1	50	0
921.799	1	10	n/a	n/a	1	50	1
922.8488	1	10	n/a	n/a	1	50	2
923.9154	1	10	n/a	n/a	1	50	3
925.032	1	10	n/a	n/a	1	50	4
926.282	1	10	n/a	n/a	1	50	5
927.532	1	21	n/a	n/a	1	50	0
928.7152	1	10	n/a	n/a	1	50	1
929.9152	1	10	n/a	n/a	1	50	2
930.6388	1	81	n/a	n/a	1	0	0
930.8388	1	81	n/a	n/a	1	0	0
931.0388	1	81	n/a	n/a	1	0	0
931.2388	1	81	n/a	n/a	1	0	0
931.4388	1	81	n/a	n/a	1	0	0
931.6388	1	81	n/a	n/a	1	0	0
931.8388	1	81	n/a	n/a	1	0	0
932.0388	1	81	n/a	n/a	1	0	0
932.2388	1	81	n/a	n/a	1	0	0
932.4388	1	81	n/a	n/a	1	0	0
933.8482	1	10	n/a	n/a	1	50	1
935.0982	1	10	n/a	n/a	1	50	2
936.298	1	10	n/a	n/a	1	50	3
937.4646	1	10	n/a	n/a	1	50	4
938.698	1	10	n/a	n/a	1	50	5
939.9312	1	21	n/a	n/a	1	50	0
941.1644	1	10	n/a	n/a	1	50	1
942.3978	1	21	n/a	n/a	1	50	0
943.481	1	10	n/a	n/a	1	50	1
944.5642	1	10	n/a	n/a	1	50	2
945.8642	1	10	n/a	n/a	1	50	3
947.0808	1	10	n/a	n/a	1	50	4
948.2974	1	10	n/a	n/a	1	50	5
949.514	1	10	n/a	n/a	1	50	6
950.714	1	10	n/a	n/a	1	50	7
951.9138	1	21	n/a	n/a	1	50	0
953.1138	1	10	n/a	n/a	1	50	1
954.3138	1	21	n/a	n/a	1	50	0
955.3804	1	10	n/a	n/a	1	50	1
956.447	1	21	n/a	n/a	1	50	0
957.4876	1	81	n/a	n/a	1	0	0
957.6876	1	81	n/a	n/a	1	0	0
957.8876	1	81	n/a	n/a	1	0	0
958.0876	1	81	n/a	n/a	1	0	0
958.2876	1	81	n/a	n/a	1	0	0
958.4876	1	81	n/a	n/a	1	0	0
958.6876	1	81	n/a	n/a	1	0	0
958.8876	1	81	n/a	n/a	1	0	0
959.0876	1	81	n/a	n/a	1	0	0
959.2876	1	81	n/a	n/a	1	0	0
960.58	1	10	n/a	n/a	1	50	1
961.78	1	10	n/a	n/a	1	50	2
962.8966	1	10	n/a	n/a	1	50	3
964.1132	1	10	n/a	n/a	1	50	4
965.4298	1	10	n/a	n/a	1	50	5
966.7464	1	21	n/a	n/a	1	50	0
968.063	1	10	n/a	n/a	1	50	1
969.2628	1	10	n/a	n/a	1	50	2
970.5628	1	10	n/a	n/a	1	50	3
971.8294	1	10	n/a	n/a	1	50	4
972.8626	1	10	n/a	n/a	1	50	5
974.0292	1	10	n/a	n/a	1	50	6
975.1124	1	10	n/a	n/a	1	50	7
976.1958	1	21	n/a	n/a	1	50	0
977.4624	1	10	n/a	n/a	1	50	1
978.7622	1	10	n/a	n/a	1	50	2
979.8288	1	10	n/a	n/a	1	50	3
981.1122	1	10	n/a	n/a	1	50	4
982.2788	1	10	n/a	n/a	1	50	5
983.4454	1	21	n/a	n/a	1	50	0
984.262	1	81	n/a	n/a	1	0	0
984.462	1	81	n/a	n/a	1	0	0
984.662	1	81	n/a	n/a	1	0	0
984.862	1	81	n/a	n/a	1	0	0
985.062	1	81	n/a	n/a	1	0	0
985.262	1	81	n/a	n/a	1	0	0
985.462	1	81	n/a	n/a	1	0	0
985.662	1	81	n/a	n/a	1	0	0
985.862	1	81	n/a	n/a	1	0	0
986.062	1	81	n/a	n/a	1	0	0
987.3784	1	10	n/a	n/a	1	50	1
988.4784	1	10	n/a	n/a	1	50	2
989.7284	1	10	n/a	n/a	1	50	3
991.0282	1	10	n/a	n/a	1	50	4
992.1282	1	10	n/a	n/a	1	50	5
993.228	1	21	n/a	n/a	1	50	0
994.4946	1	10	n/a	n/a	1	50	1
995.5946	1	10	n/a	n/a	1	50	2
996.8446	1	10	n/a	n/a	1	50	3
998.1112	1	10	n/a	n/a	1	50	4
999.2778	1	10	n/a	n/a	1	50	5
1000.4444	1	21	n/a	n/a	1	50	0
1001.6776	1	10	n/a	n/a	1	50	1
1002.7442	1	10	n/a	n/a	1	50	2
1004.0608	1	10	n/a	n/a	1	50	3
1005.2774	1	10	n/a	n/a	1	50	4
1006.5274	1	10	n/a	n/a	1	50	5
1007.7772	1	10	n/a	n/a	1	50	6
1008.9272	1	10	n/a	n/a	1	50	7
1010.0772	1	21	n/a	n/a	1	50	0
1045.2874	1	81	n/a	n/a	1	0	0
1045.4874	1	81	n/a	n/a	1	0	0
1045.6874	1	81	n/a	n/a	1	0	0
1045.8874	1	81	n/a	n/a	1	0	0
1046.0874	1	81	n/a	n/a	1	0	0
1046.2874	1	81	n/a	n/a	1	0	0
1046.4874	1	81	n/a	n/a	1	0	0
1046.6874	1	81	n/a	n/a	1	0	0
1046.8874	1	81	n/a	n/a	1	0	0
1047.0874	1	81	n/a	n/a	1	0	0
1048.4416	1	10	n/a	n/a	1	52	1
1049.4914	1	10	n/a	n/a	1	52	2
1050.5248	1	10	n/a	n/a	1	52	3
1051.558	1	21	n/a	n/a	1	52	0
1052.8746	1	10	n/a	n/a	1	52	1
1054.1912	1	10	n/a	n/a	1	52	2
1055.2744	1	10	n/a	n/a	1	52	3
1056.3578	1	10	n/a	n/a	1	52	4
1057.441	1	10	n/a	n/a	1	52	5
1058.6076	1	10	n/a	n/a	1	52	6
1059.6408	1	10	n/a	n/a	1	52	7
1060.6742	1	21	n/a	n/a	1	52	0
1061.824	1	10	n/a	n/a	1	52	1
1063.0406	1	10	n/a	n/a	1	52	2
1064.1572	1	10	n/a	n/a	1	52	3
1065.3906	1	10	n/a	n/a	1	52	4
1066.5238	1	10	n/a	n/a	1	52	5
1067.657	1	21	n/a	n/a	1	52	0
1068.7904	1	10	n/a	n/a	1	52	1
1070.107	1	10	n/a	n/a	1	52	2
1071.1844	1	81	n/a	n/a	1	0	0
1071.3844	1	81	n/a	n/a	1	0	0
1071.5844	1	81	n/a	n/a	1	0	0
1071.7844	1	81	n/a	n/a	1	0	0
1071.9844	1	81	n/a	n/a	1	0	0
1072.1844	1	81	n/a	n/a	1	0	0
1072.3844	1	81	n/a	n/a	1	0	0
1072.5844	1	81	n/a	n/a	1	0	0
1072.7844	1	81	n/a	n/a	1	0	0
1072.9844	1	81	n/a	n/a	1	0	0
1074.14	1	10	n/a	n/a	1	52	1
1075.2066	1	21	n/a	n/a	1	52	0
1076.5066	1	10	n/a	n/a	1	52	1
1077.8064	1	10	n/a	n/a	1	52	2
1078.873	1	10	n/a	n/a	1	52	3
1080.123	1	10	n/a	n/a	1	52	4
1081.4396	1	10	n/a	n/a	1	52	5
1082.7562	1	10	n/a	n/a	1	52	6
1084.0062	1	10	n/a	n/a	1	52	7
1085.256	1	21	n/a	n/a	1	52	0
1086.506	1	10	n/a	n/a	1	52	1
1087.7558	1	21	n/a	n/a	1	52	0
1088.9892	1	10	n/a	n/a	1	52	1
1090.0724	1	10	n/a	n/a	1	52	2
1091.389	1	10	n/a	n/a	1	52	3
1092.7056	1	21	n/a	n/a	1	52	0
1093.9388	1	10	n/a	n/a	1	52	1
1095.0222	1	10	n/a	n/a	1	52	2
1096.3054	1	10	n/a	n/a	1	52	3
1097.5886	1	21	n/a	n/a	1	52	0
1098.6904	1	81	n/a	n/a	1	0	0
1098.8904	1	81	n/a	n/a	1	0	0
1099.0904	1	81	n/a	n/a	1	0	0
1099.2904	1	81	n/a	n/a	1	0	0
1099.4902	1	81	n/a	n/a	1	0	0
1099.6904	1	81	n/a	n/a	1	0	0
1099.8904	1	81	n/a	n/a	1	0	0
1100.0904	1	81	n/a	n/a	1	0	0
1100.2904	1	81	n/a	n/a	1	0	0
1100.4904	1	81	n/a	n/a	1	0	0
1101.8718	1	10	n/a	n/a	1	52	1
1103.0216	1	10	n/a	n/a	1	52	2
1104.105	1	10	n/a	n/a	1	52	3
1105.1382	1	10	n/a	n/a	1	52	4
1106.3214	1	10	n/a	n/a	1	52	5
1107.4214	1	10	n/a	n/a	1	52	6
1108.538	1	10	n/a	n/a	1	52	7
1109.6546	1	21	n/a	n/a	1	52	0
1110.7546	1	10	n/a	n/a	1	52	1
1111.8544	1	21	n/a	n/a	1	52	0
1113.1544	1	10	n/a	n/a	1	52	1
1114.4544	1	21	n/a	n/a	1	52	0
1115.4876	1	10	n/a	n/a	1	52	1
1116.7376	1	10	n/a	n/a	1	52	2
1117.8042	1	10	n/a	n/a	1	52	3
1118.904	1	10	n/a	n/a	1	52	4
1119.9706	1	10	n/a	n/a	1	52	5
1121.0372	1	21	n/a	n/a	1	52	0
1122.1538	1	10	n/a	n/a	1	52	1
1123.2704	1	21	n/a	n/a	1	52	0
1124.2532	1	81	n/a	n/a	1	0	0
1124.4532	1	81	n/a	n/a	1	0	0
1124.6532	1	81	n/a	n/a	1	0	0
1124.8532	1	81	n/a	n/a	1	0	0
1125.0532	1	81	n/a	n/a	1	0	0
1125.2532	1	81	n/a	n/a	1	0	0
1125.4532	1	81	n/a	n/a	1	0	0
1125.6532	1	81	n/a	n/a	1	0	0
1125.8532	1	81	n/a	n/a	1	0	0
1126.0532	1	81	n/a	n/a	1	0	0
1127.287	1	10	n/a	n/a	1	52	1
1128.4702	1	10	n/a	n/a	1	52	2
1129.5534	1	10	n/a	n/a	1	52	3
1130.6368	1	21	n/a	n/a	1	52	0
1131.7866	1	10	n/a	n/a	1	52	1
1132.9366	1	10	n/a	n/a	1	52	2
1133.9698	1	10	n/a	n/a	1	52	3
1135.0198	1	10	n/a	n/a	1	52	4
1136.1864	1	10	n/a	n/a	1	52	5
1137.4864	1	10	n/a	n/a	1	52	6
1138.6696	1	10	n/a	n/a	1	52	7
1139.8528	1	21	n/a	n/a	1	52	0
1140.9194	1	10	n/a	n/a	1	52	1
1142.0194	1	10	n/a	n/a	1	52	2
1143.0526	1	10	n/a	n/a	1	52	3
1144.086	1	21	n/a	n/a	1	52	0
1145.2358	1	10	n/a	n/a	1	52	1
1146.5358	1	10	n/a	n/a	1	52	2
1147.569	1	10	n/a	n/a	1	52	3
1148.719	1	10	n/a	n/a	1	52	4
1149.4704	1	81	n/a	n/a	1	0	0
1149.6704	1	81	n/a	n/a	1	0	0
1149.8704	1	81	n/a	n/a	1	0	0
1150.0704	1	81	n/a	n/a	1	0	0
1150.2704	1	81	n/a	n/a	1	0	0
1150.4704	1	81	n/a	n/a	1	0	0
1150.6704	1	81	n/a	n/a	1	0	0
1150.8704	1	81	n/a	n/a	1	0	0
1151.0704	1	81	n/a	n/a	1	0	0
1151.2704	1	81	n/a	n/a	1	0	0
1152.4354	1	10	n/a	n/a	1	52	1
1153.652	1	10	n/a	n/a	1	52	2
1154.702	1	10	n/a	n/a	1	52	3
1155.7518	1	21	n/a	n/a	1	52	0
1156.8018	1	10	n/a	n/a	1	52	1
1158.1018	1	10	n/a	n/a	1	52	2
1159.3684	1	10	n/a	n/a	1	52	3
1160.5016	1	10	n/a	n/a	1	52	4
1161.7348	1	10	n/a	n/a	1	52	5
1163.0014	1	10	n/a	n/a	1	52	6
1164.3014	1	10	n/a	n/a	1	52	7
1165.6014	1	21	n/a	n/a	1	52	0
1166.8346	1	10	n/a	n/a	1	52	1
1167.9346	1	10	n/a	n/a	1	52	2
1169.1012	1	10	n/a	n/a	1	52	3
1170.2678	1	21	n/a	n/a	1	52	0
1171.5676	1	10	n/a	n/a	1	52	1
1172.801	1	10	n/a	n/a	1	52	2
1173.9342	1	10	n/a	n/a	1	52	3
1175.2174	1	10	n/a	n/a	1	52	4
1251.7474	1	81	n/a	n/a	1	0	0
1251.9474	1	81	n/a	n/a	1	0	0
1252.1474	1	81	n/a	n/a	1	0	0
1252.3474	1	81	n/a	n/a	1	0	0
1252.5474	1	81	n/a	n/a	1	0	0
1252.7474	1	81	n/a	n/a	1	0	0
1252.9474	1	81	n/a	n/a	1	0	0
1253.1474	1	81	n/a	n/a	1	0	0
1253.3474	1	81	n/a	n/a	1	0	0
1253.5474	1	81	n/a	n/a	1	0	0
1254.846	1	10	n/a	n/a	1	52	1
1256.046	1	21	n/a	n/a	1	52	0
1257.2126	1	10	n/a	n/a	1	52	1
1258.2458	1	10	n/a	n/a	1	52	2
1259.3624	1	10	n/a	n/a	1	52	3
1260.479	1	21	n/a	n/a	1	52	0
1261.6124	1	10	n/a	n/a	1	52	1
1262.7456	1	21	n/a	n/a	1	52	0
1263.7956	1	10	n/a	n/a	1	52	1
1264.8454	1	21	n/a	n/a	1	52	0
1266.0954	1	10	n/a	n/a	1	52	1
1267.3454	1	21	n/a	n/a	1	52	0
1268.4952	1	10	n/a	n/a	1	52	1
1269.6786	1	10	n/a	n/a	1	52	2
1270.7618	1	10	n/a	n/a	1	52	3
1271.845	1	21	n/a	n/a	1	52	0
1273.0284	1	10	n/a	n/a	1	52	1
1274.2282	1	10	n/a	n/a	1	52	2
1275.5448	1	10	n/a	n/a	1	52	3
1276.5782	1	10	n/a	n/a	1	52	4
1277.5726	1	81	n/a	n/a	1	0	0
1277.7726	1	81	n/a	n/a	1	0	0
1277.9726	1	81	n/a	n/a	1	0	0
1278.1726	1	81	n/a	n/a	1	0	0
1278.3726	1	81	n/a	n/a	1	0	0
1278.5726	1	81	n/a	n/a	1	0	0
1278.7726	1	81	n/a	n/a	1	0	0
1278.9726	1	81	n/a	n/a	1	0	0
1279.1726	1	81	n/a	n/a	1	0	0
1279.3726	1	81	n/a	n/a	1	0	0
1280.5446	1	10	n/a	n/a	1	52	1
1281.7112	1	10	n/a	n/a	1	52	2
1282.9112	1	10	n/a	n/a	1	52	3
1284.0778	1	10	n/a	n/a	1	52	4
1285.3442	1	10	n/a	n/a	1	52	5
1286.5108	1	10	n/a	n/a	1	52	6
1287.7276	1	10	n/a	n/a	1	52	7
1288.944	1	21	n/a	n/a	1	52	0
1290.044	1	10	n/a	n/a	1	52	1
1291.144	1	10	n/a	n/a	1	52	2
1292.1938	1	10	n/a	n/a	1	52	3
1293.4272	1	10	n/a	n/a	1	52	4
1294.4938	1	10	n/a	n/a	1	52	5
1295.5604	1	21	n/a	n/a	1	52	0
1296.7436	1	10	n/a	n/a	1	52	1
1297.8102	1	10	n/a	n/a	1	52	2
1299.0934	1	10	n/a	n/a	1	52	3
1300.3768	1	21	n/a	n/a	1	52	0
1301.4934	1	10	n/a	n/a	1	52	1
1302.7932	1	10	n/a	n/a	1	52	2
1303.8838	1	81	n/a	n/a	1	0	0
1304.0838	1	81	n/a	n/a	1	0	0
1304.2838	1	81	n/a	n/a	1	0	0
1304.4838	1	81	n/a	n/a	1	0	0
1304.6838	1	81	n/a	n/a	1	0	0
1304.8838	1	81	n/a	n/a	1	0	0
1305.0838	1	81	n/a	n/a	1	0	0
1305.2838	1	81	n/a	n/a	1	0	0
1305.4838	1	81	n/a	n/a	1	0	0
1305.6838	1	81	n/a	n/a	1	0	0
1306.8098	1	10	n/a	n/a	1	52	1
1307.843	1	21	n/a	n/a	1	52	0
1308.9096	1	10	n/a	n/a	1	52	1
1309.9928	1	10	n/a	n/a	1	52	2
1311.1594	1	10	n/a	n/a	1	52	3
1312.476	1	10	n/a	n/a	1	52	4
1313.5926	1	10	n/a	n/a	1	52	5
1314.7092	1	21	n/a	n/a	1	52	0
1315.7592	1	10	n/a	n/a	1	52	1
1316.9258	1	10	n/a	n/a	1	52	2
1318.109	1	10	n/a	n/a	1	52	3
1319.2256	1	10	n/a	n/a	1	52	4
1320.359	1	10	n/a	n/a	1	52	5
1321.4256	1	10	n/a	n/a	1	52	6
1322.5422	1	10	n/a	n/a	1	52	7
1323.6588	1	21	n/a	n/a	1	52	0
1324.8086	1	10	n/a	n/a	1	52	1
1326.092	1	10	n/a	n/a	1	52	2
1327.2086	1	10	n/a	n/a	1	52	3
1328.2584	1	10	n/a	n/a	1	52	4
1329.267	1	81	n/a	n/a	1	0	0
1329.467	1	81	n/a	n/a	1	0	0
1329.667	1	81	n/a	n/a	1	0	0
1329.867	1	81	n/a	n/a	1	0	0
1330.067	1	81	n/a	n/a	1	0	0
1330.267	1	81	n/a	n/a	1	0	0
1330.467	1	81	n/a	n/a	1	0	0
1330.667	1	81	n/a	n/a	1	0	0
1330.867	1	81	n/a	n/a	1	0	0
1331.067	1	81	n/a	n/a	1	0	0
1332.3082	1	10	n/a	n/a	1	52	1
1333.5414	1	10	n/a	n/a	1	52	2
1334.6914	1	10	n/a	n/a	1	52	3
1335.9414	1	10	n/a	n/a	1	52	4
1337.1412	1	10	n/a	n/a	1	52	5
1338.3412	1	21	n/a	n/a	1	52	0
1339.3912	1	10	n/a	n/a	1	52	1
1340.6578	1	10	n/a	n/a	1	52	2
1341.7576	1	10	n/a	n/a	1	52	3
1343.0242	1	10	n/a	n/a	1	52	4
1344.3576	1	10	n/a	n/a	1	52	5
1345.4074	1	10	n/a	n/a	1	52	6
1346.5408	1	10	n/a	n/a	1	52	7
1347.674	1	21	n/a	n/a	1	52	0
1348.7406	1	10	n/a	n/a	1	52	1
1349.8738	1	10	n/a	n/a	1	52	2
1351.0406	1	10	n/a	n/a	1	52	3
1352.207	1	21	n/a	n/a	1	52	0
1353.507	1	10	n/a	n/a	1	52	1
1354.557	1	10	n/a	n/a	1	52	2
1355.5092	1	81	n/a	n/a	1	0	0
1355.7092	1	81	n/a	n/a	1	0	0
1355.9092	1	81	n/a	n/a	1	0	0
1356.1092	1	81	n/a	n/a	1	0	0
1356.3092	1	81	n/a	n/a	1	0	0
1356.5094	1	81	n/a	n/a	1	0	0
1356.7094	1	81	n/a	n/a	1	0	0
1356.9094	1	81	n/a	n/a	1	0	0
1357.1094	1	81	n/a	n/a	1	0	0
1357.3094	1	81	n/a	n/a	1	0	0
1358.6566	1	10	n/a	n/a	1	52	1
1359.89	1	10	n/a	n/a	1	52	2
1360.9232	1	10	n/a	n/a	1	52	3
1362.2232	1	10	n/a	n/a	1	52	4
1363.323	1	10	n/a	n/a	1	52	5
1364.423	1	21	n/a	n/a	1	52	0
1365.623	1	10	n/a	n/a	1	52	1
1366.6728	1	10	n/a	n/a	1	52	2
1367.8894	1	10	n/a	n/a	1	52	3
1369.106	1	21	n/a	n/a	1	52	0
1370.306	1	10	n/a	n/a	1	52	1
1371.606	1	10	n/a	n/a	1	52	2
1372.7726	1	10	n/a	n/a	1	52	3
1373.989	1	10	n/a	n/a	1	52	4
1375.039	1	10	n/a	n/a	1	52	5
1376.089	1	21	n/a	n/a	1	52	0
1377.4056	1	10	n/a	n/a	1	52	1
1378.6554	1	10	n/a	n/a	1	52	2
1379.922	1	10	n/a	n/a	1	52	3
1381.1886	1	21	n/a	n/a	1	52	0
1392.8312	1	82	n/a	n/a	1	0	0
1392.8932	1	82	n/a	n/a	1	0	0
1392.9882	1	82	n/a	n/a	1	0	0
1393.1782	1	82	n/a	n/a	1	0	0
1393.6072	1	82	n/a	n/a	1	0	0
1393.8312	1	82	n/a	n/a	1	0	0
1393.9462	1	82	n/a	n/a	1	0	0
1394.2772	1	82	n/a	n/a	1	0	0
1394.3652	1	82	n/a	n/a	1	0	0
1394.5142	1	82	n/a	n/a	1	0	0
1396.0212	1	10	n/a	n/a	1	50	1
1397.2378	1	10	n/a	n/a	1	50	2
1398.4544	1	10	n/a	n/a	1	50	3
1399.5376	1	10	n/a	n/a	1	50	4
1400.8542	1	10	n/a	n/a	1	50	5
1402.0374	1	10	n/a	n/a	1	50	6
1403.2374	1	10	n/a	n/a	1	50	7
1404.4374	1	21	n/a	n/a	1	50	0
1405.6372	1	10	n/a	n/a	1	50	1
1406.8538	1	10	n/a	n/a	1	50	2
1408.0372	1	10	n/a	n/a	1	50	3
1409.287	1	10	n/a	n/a	1	50	4
1410.4536	1	10	n/a	n/a	1	50	5
1411.5036	1	10	n/a	n/a	1	50	6
1412.5536	1	10	n/a	n/a	1	50	7
1413.6034	1	21	n/a	n/a	1	50	0
1414.8534	1	10	n/a	n/a	1	50	1
1415.9866	1	10	n/a	n/a	1	50	2
1417.2866	1	10	n/a	n/a	1	50	3
1418.4198	1	10	n/a	n/a	1	50	4
1419.1642	1	82	n/a	n/a	1	0	0
1419.2702	1	82	n/a	n/a	1	0	0
1419.5152	1	82	n/a	n/a	1	0	0
1419.7972	1	82	n/a	n/a	1	0	0
1419.9552	1	82	n/a	n/a	1	0	0
1420.1642	1	82	n/a	n/a	1	0	0
1420.3992	1	82	n/a	n/a	1	0	0
1420.8092	1	82	n/a	n/a	1	0	0
1420.9672	1	82	n/a	n/a	1	0	0
1421.0612	1	82	n/a	n/a	1	0	0
1422.253	1	10	n/a	n/a	1	50	1
1423.5528	1	10	n/a	n/a	1	50	2
1424.7362	1	10	n/a	n/a	1	50	3
1426.036	1	10	n/a	n/a	1	50	4
1427.1526	1	10	n/a	n/a	1	50	5
1428.4192	1	10	n/a	n/a	1	50	6
1429.6192	1	10	n/a	n/a	1	50	7
1430.8192	1	21	n/a	n/a	1	50	0
1431.919	1	10	n/a	n/a	1	50	1
1433.119	1	10	n/a	n/a	1	50	2
1434.3022	1	10	n/a	n/a	1	50	3
1435.5022	1	10	n/a	n/a	1	50	4
1436.8188	1	10	n/a	n/a	1	50	5
1438.002	1	10	n/a	n/a	1	50	6
1439.1686	1	10	n/a	n/a	1	50	7
1440.3352	1	21	n/a	n/a	1	50	0
1441.4518	1	10	n/a	n/a	1	50	1
1442.5518	1	10	n/a	n/a	1	50	2
1443.7516	1	10	n/a	n/a	1	50	3
1444.985	1	10	n/a	n/a	1	50	4
1445.7496	1	82	n/a	n/a	1	0	0
1445.9056	1	82	n/a	n/a	1	0	0
1446.0346	1	82	n/a	n/a	1	0	0
1446.1426	1	82	n/a	n/a	1	0	0
1446.3746	1	82	n/a	n/a	1	0	0
1446.7496	1	82	n/a	n/a	1	0	0
1447.1866	1	82	n/a	n/a	1	0	0
1447.3646	1	82	n/a	n/a	1	0	0
1447.4556	1	82	n/a	n/a	1	0	0
1447.6126	1	82	n/a	n/a	1	0	0
1448.7348	1	10	n/a	n/a	1	50	1
1449.8014	1	10	n/a	n/a	1	50	2
1450.8512	1	10	n/a	n/a	1	50	3
1451.9678	1	10	n/a	n/a	1	50	4
1453.2844	1	10	n/a	n/a	1	50	5
1454.601	1	21	n/a	n/a	1	50	0
1455.901	1	10	n/a	n/a	1	50	1
1456.9676	1	10	n/a	n/a	1	50	2
1458.0842	1	10	n/a	n/a	1	50	3
1459.2008	1	21	n/a	n/a	1	50	0
1460.2674	1	10	n/a	n/a	1	50	1
1461.4506	1	10	n/a	n/a	1	50	2
1462.6506	1	10	n/a	n/a	1	50	3
1463.9338	1	10	n/a	n/a	1	50	4
1465.217	1	10	n/a	n/a	1	50	5
1466.2504	1	10	n/a	n/a	1	50	6
1467.3836	1	10	n/a	n/a	1	50	7
1468.5168	1	21	n/a	n/a	1	50	0
1469.6334	1	10	n/a	n/a	1	50	1
1470.8668	1	10	n/a	n/a	1	50	2
1471.7032	1	82	n/a	n/a	1	0	0
1472.0962	1	82	n/a	n/a	1	0	0
1472.1772	1	82	n/a	n/a	1	0	0
1472.4412	1	82	n/a	n/a	1	0	0
1472.5612	1	82	n/a	n/a	1	0	0
1472.7032	1	82	n/a	n/a	1	0	0
1472.7572	1	82	n/a	n/a	1	0	0
1473.1692	1	82	n/a	n/a	1	0	0
1473.2452	1	82	n/a	n/a	1	0	0
1473.5942	1	82	n/a	n/a	1	0	0
1474.7166	1	10	n/a	n/a	1	50	1
1475.9164	1	10	n/a	n/a	1	50	2
1476.9498	1	10	n/a	n/a	1	50	3
1478.233	1	10	n/a	n/a	1	50	4
1479.3996	1	10	n/a	n/a	1	50	5
1480.5662	1	10	n/a	n/a	1	50	6
1481.7662	1	10	n/a	n/a	1	50	7
1482.966	1	21	n/a	n/a	1	50	0
1485.266	1	10	n/a	n/a	1	50	2
1486.3826	1	10	n/a	n/a	1	50	3
1487.4992	1	21	n/a	n/a	1	50	0
1489.6824	1	10	n/a	n/a	1	50	2
1490.8322	1	10	n/a	n/a	1	50	3
1492.1154	1	10	n/a	n/a	1	50	4
1493.4154	1	10	n/a	n/a	1	50	5
1494.7154	1	21	n/a	n/a	1	50	0
1496.0152	1	10	n/a	n/a	1	50	1
1497.1152	1	10	n/a	n/a	1	50	2
1498.1456	1	82	n/a	n/a	1	0	0
1498.3746	1	82	n/a	n/a	1	0	0
1498.5526	1	82	n/a	n/a	1	0	0
1498.9286	1	82	n/a	n/a	1	0	0
1499.0306	1	82	n/a	n/a	1	0	0
1499.1464	1	82	n/a	n/a	1	0	0
1499.3024	1	82	n/a	n/a	1	0	0
1499.3714	1	82	n/a	n/a	1	0	0
1499.6594	1	82	n/a	n/a	1	0	0
1499.7524	1	82	n/a	n/a	1	0	0
1501.0984	1	10	n/a	n/a	1	50	1
1502.165	1	21	n/a	n/a	1	50	0
1503.3148	1	10	n/a	n/a	1	50	1
1504.3982	1	10	n/a	n/a	1	50	2
1505.6314	1	10	n/a	n/a	1	50	3
1506.698	1	10	n/a	n/a	1	50	4
1507.9978	1	10	n/a	n/a	1	50	5
1509.2978	1	21	n/a	n/a	1	50	0
1510.5144	1	10	n/a	n/a	1	50	1
1511.5644	1	10	n/a	n/a	1	50	2
1512.7642	1	10	n/a	n/a	1	50	3
1513.8808	1	10	n/a	n/a	1	50	4
1515.0974	1	10	n/a	n/a	1	50	5
1516.314	1	21	n/a	n/a	1	50	0
1517.3474	1	10	n/a	n/a	1	50	1
1518.6472	1	10	n/a	n/a	1	50	2
1519.9638	1	10	n/a	n/a	1	50	3
1521.2804	1	21	n/a	n/a	1	50	0
1522.3804	1	10	n/a	n/a	1	50	1
1523.6804	1	10	n/a	n/a	1	50	2
1547.658	1	82	n/a	n/a	1	0	0
1547.687	1	82	n/a	n/a	1	0	0
1547.831	1	82	n/a	n/a	1	0	0
1548.035	1	82	n/a	n/a	1	0	0
1548.124	1	82	n/a	n/a	1	0	0
1548.658	1	82	n/a	n/a	1	0	0
1548.695	1	82	n/a	n/a	1	0	0
1548.852	1	82	n/a	n/a	1	0	0
1549.223	1	82	n/a	n/a	1	0	0
1549.514	1	82	n/a	n/a	1	0	0
1550.812	1	10	n/a	n/a	1	51	1
1552.0786	1	21	n/a	n/a	1	51	0
1553.1952	1	10	n/a	n/a	1	51	1
1554.2618	1	10	n/a	n/a	1	51	2
1555.3452	1	10	n/a	n/a	1	51	3
1556.445	1	10	n/a	n/a	1	51	4
1557.5616	1	10	n/a	n/a	1	51	5
1558.845	1	10	n/a	n/a	1	51	6
1560.0616	1	10	n/a	n/a	1	51	7
1561.2782	1	21	n/a	n/a	1	51	0
1562.528	1	10	n/a	n/a	1	51	1
1563.678	1	10	n/a	n/a	1	51	2
1564.9278	1	10	n/a	n/a	1	51	3
1566.0278	1	10	n/a	n/a	1	51	4
1567.2278	1	10	n/a	n/a	1	51	5
1568.311	1	10	n/a	n/a	1	51	6
1569.511	1	10	n/a	n/a	1	51	7
1570.7108	1	21	n/a	n/a	1	51	0
1571.8442	1	10	n/a	n/a	1	51	1
1573.0108	1	10	n/a	n/a	1	51	2
1574.0062	1	82	n/a	n/a	1	0	0
1574.0922	1	82	n/a	n/a	1	0	0
1574.2232	1	82	n/a	n/a	1	0	0
1574.5132	1	82	n/a	n/a	1	0	0
1574.9432	1	82	n/a	n/a	1	0	0
1575.0062	1	82	n/a	n/a	1	0	0
1575.0822	1	82	n/a	n/a	1	0	0
1575.2362	1	82	n/a	n/a	1	0	0
1575.5912	1	82	n/a	n/a	1	0	0
1575.6232	1	82	n/a	n/a	1	0	0
1576.9938	1	10	n/a	n/a	1	51	1
1578.0772	1	10	n/a	n/a	1	51	2
1579.377	1	10	n/a	n/a	1	51	3
1580.4936	1	10	n/a	n/a	1	51	4
1581.5602	1	10	n/a	n/a	1	51	5
1582.7268	1	10	n/a	n/a	1	51	6
1583.8934	1	10	n/a	n/a	1	51	7
1585.06	1	21	n/a	n/a	1	51	0
1586.11	1	10	n/a	n/a	1	51	1
1587.4432	1	10	n/a	n/a	1	51	2
1588.5766	1	10	n/a	n/a	1	51	3
1589.6598	1	10	n/a	n/a	1	51	4
1590.7264	1	10	n/a	n/a	1	51	5
1591.793	1	21	n/a	n/a	1	51	0
1593.0762	1	10	n/a	n/a	1	51	1
1594.2096	1	10	n/a	n/a	1	51	2
1595.4428	1	10	n/a	n/a	1	51	3
1596.676	1	21	n/a	n/a	1	51	0
1597.876	1	10	n/a	n/a	1	51	1
1599.0758	1	21	n/a	n/a	1	51	0
1600.1746	1	82	n/a	n/a	1	0	0
1600.3066	1	82	n/a	n/a	1	0	0
1600.5676	1	82	n/a	n/a	1	0	0
1600.7416	1	82	n/a	n/a	1	0	0
1600.9786	1	82	n/a	n/a	1	0	0
1601.1746	1	82	n/a	n/a	1	0	0
1601.2726	1	82	n/a	n/a	1	0	0
1601.3236	1	82	n/a	n/a	1	0	0
1601.6636	1	82	n/a	n/a	1	0	0
1602.0796	1	82	n/a	n/a	1	0	0
1603.3256	1	10	n/a	n/a	1	51	1
1604.6088	1	10	n/a	n/a	1	51	2
1605.8754	1	10	n/a	n/a	1	51	3
1607.092	1	10	n/a	n/a	1	51	4
1608.2586	1	10	n/a	n/a	1	51	5
1609.342	1	10	n/a	n/a	1	51	6
1610.4918	1	10	n/a	n/a	1	51	7
1611.6418	1	21	n/a	n/a	1	51	0
1612.825	1	10	n/a	n/a	1	51	1
1614.025	1	10	n/a	n/a	1	51	2
1615.0582	1	10	n/a	n/a	1	51	3
1616.2748	1	10	n/a	n/a	1	51	4
1617.4082	1	10	n/a	n/a	1	51	5
1618.4748	1	10	n/a	n/a	1	51	6
1619.6246	1	10	n/a	n/a	1	51	7
1620.7746	1	21	n/a	n/a	1	51	0
1621.8578	1	10	n/a	n/a	1	51	1
1622.9412	1	21	n/a	n/a	1	51	0
1624.241	1	10	n/a	n/a	1	51	1
1625.541	1	10	n/a	n/a	1	51	2
1626.5518	1	82	n/a	n/a	1	0	0
1626.7308	1	82	n/a	n/a	1	0	0
1627.0258	1	82	n/a	n/a	1	0	0
1627.2888	1	82	n/a	n/a	1	0	0
1627.3158	1	82	n/a	n/a	1	0	0
1627.5518	1	82	n/a	n/a	1	0	0
1627.8868	1	82	n/a	n/a	1	0	0
1627.9698	1	82	n/a	n/a	1	0	0
1628.1138	1	82	n/a	n/a	1	0	0
1628.3988	1	82	n/a	n/a	1	0	0
1629.6408	1	10	n/a	n/a	1	51	1
1630.7074	1	10	n/a	n/a	1	51	2
1631.924	1	10	n/a	n/a	1	51	3
1633.0406	1	10	n/a	n/a	1	51	4
1634.2072	1	10	n/a	n/a	1	51	5
1635.3738	1	21	n/a	n/a	1	51	0
1636.407	1	10	n/a	n/a	1	51	1
1637.7236	1	10	n/a	n/a	1	51	2
1638.7736	1	10	n/a	n/a	1	51	3
1639.9234	1	10	n/a	n/a	1	51	4
1641.14	1	10	n/a	n/a	1	51	5
1642.2566	1	10	n/a	n/a	1	51	6
1643.5566	1	10	n/a	n/a	1	51	7
1644.8566	1	21	n/a	n/a	1	51	0
1646.0398	1	10	n/a	n/a	1	51	1
1647.3398	1	10	n/a	n/a	1	51	2
1648.623	1	10	n/a	n/a	1	51	3
1649.873	1	10	n/a	n/a	1	51	4
1651.0728	1	10	n/a	n/a	1	51	5
1652.2228	1	10	n/a	n/a	1	51	6
1652.9402	1	82	n/a	n/a	1	0	0
1653.1972	1	82	n/a	n/a	1	0	0
1653.2992	1	82	n/a	n/a	1	0	0
1653.7192	1	82	n/a	n/a	1	0	0
1653.8692	1	82	n/a	n/a	1	0	0
1653.9402	1	82	n/a	n/a	1	0	0
1654.2172	1	82	n/a	n/a	1	0	0
1654.3512	1	82	n/a	n/a	1	0	0
1654.4592	1	82	n/a	n/a	1	0	0
1654.6272	1	82	n/a	n/a	1	0	0
1655.9558	1	10	n/a	n/a	1	51	1
1657.0724	1	21	n/a	n/a	1	51	0
1658.1724	1	10	n/a	n/a	1	51	1
1659.4556	1	10	n/a	n/a	1	51	2
1660.589	1	10	n/a	n/a	1	51	3
1661.7222	1	21	n/a	n/a	1	51	0
1662.9222	1	10	n/a	n/a	1	51	1
1663.9888	1	10	n/a	n/a	1	51	2
1665.1554	1	10	n/a	n/a	1	51	3
1666.3052	1	10	n/a	n/a	1	51	4
1667.3886	1	10	n/a	n/a	1	51	5
1668.5884	1	10	n/a	n/a	1	51	6
1669.855	1	10	n/a	n/a	1	51	7
1671.1216	1	21	n/a	n/a	1	51	0
1672.305	1	10	n/a	n/a	1	51	1
1673.3382	1	10	n/a	n/a	1	51	2
1674.5714	1	10	n/a	n/a	1	51	3
1675.8048	1	21	n/a	n/a	1	51	0
1677.0714	1	10	n/a	n/a	1	51	1
1678.1212	1	10	n/a	n/a	1	51	2
1748.2158	1	81	n/a	n/a	1	0	0
1748.4158	1	81	n/a	n/a	1	0	0
1748.6158	1	81	n/a	n/a	1	0	0
1748.8158	1	81	n/a	n/a	1	0	0
1749.0158	1	81	n/a	n/a	1	0	0
1749.2158	1	81	n/a	n/a	1	0	0
1749.4158	1	81	n/a	n/a	1	0	0
1749.6158	1	81	n/a	n/a	1	0	0
1749.8158	1	81	n/a	n/a	1	0	0
1750.0158	1	81	n/a	n/a	1	0	0
1751.367	1	10	n/a	n/a	1	52	1
1752.4002	1	10	n/a	n/a	1	52	2
1753.6502	1	10	n/a	n/a	1	52	3
1754.6834	1	10	n/a	n/a	1	52	4
1755.7834	1	10	n/a	n/a	1	52	5
1756.9332	1	10	n/a	n/a	1	52	6
1758.1498	1	10	n/a	n/a	1	52	7
1759.3664	1	21	n/a	n/a	1	52	0
1760.683	1	10	n/a	n/a	1	52	1
1761.8164	1	10	n/a	n/a	1	52	2
1763.0662	1	10	n/a	n/a	1	52	3
1764.3162	1	21	n/a	n/a	1	52	0
1765.4328	1	10	n/a	n/a	1	52	1
1766.6494	1	10	n/a	n/a	1	52	2
1767.916	1	10	n/a	n/a	1	52	3
1769.1826	1	21	n/a	n/a	1	52	0
1770.2992	1	10	n/a	n/a	1	52	1
1771.4158	1	21	n/a	n/a	1	52	0
1772.6824	1	10	n/a	n/a	1	52	1
1773.949	1	10	n/a	n/a	1	52	2
1774.9714	1	81	n/a	n/a	1	0	0
1775.1714	1	81	n/a	n/a	1	0	0
1775.3714	1	81	n/a	n/a	1	0	0
1775.5714	1	81	n/a	n/a	1	0	0
1775.7714	1	81	n/a	n/a	1	0	0
1775.9714	1	81	n/a	n/a	1	0	0
1776.1714	1	81	n/a	n/a	1	0	0
1776.3714	1	81	n/a	n/a	1	0	0
1776.5714	1	81	n/a	n/a	1	0	0
1776.7714	1	81	n/a	n/a	1	0	0
1777.932	1	10	n/a	n/a	1	52	1
1779.1154	1	10	n/a	n/a	1	52	2
1780.2986	1	10	n/a	n/a	1	52	3
1781.4652	1	10	n/a	n/a	1	52	4
1782.6818	1	10	n/a	n/a	1	52	5
1783.8984	1	21	n/a	n/a	1	52	0
1785.165	1	10	n/a	n/a	1	52	1
1786.3982	1	10	n/a	n/a	1	52	2
1787.6814	1	10	n/a	n/a	1	52	3
1788.9648	1	21	n/a	n/a	1	52	0
1790.0146	1	10	n/a	n/a	1	52	1
1791.1312	1	10	n/a	n/a	1	52	2
1792.3812	1	10	n/a	n/a	1	52	3
1793.5478	1	10	n/a	n/a	1	52	4
1794.681	1	10	n/a	n/a	1	52	5
1795.931	1	10	n/a	n/a	1	52	6
1797.181	1	10	n/a	n/a	1	52	7
1798.4308	1	21	n/a	n/a	1	52	0
1799.5808	1	10	n/a	n/a	1	52	1
1800.6974	1	10	n/a	n/a	1	52	2
1801.4278	1	81	n/a	n/a	1	0	0
1801.6278	1	81	n/a	n/a	1	0	0
1801.8278	1	81	n/a	n/a	1	0	0
1802.0278	1	81	n/a	n/a	1	0	0
1802.2278	1	81	n/a	n/a	1	0	0
1802.4278	1	81	n/a	n/a	1	0	0
1802.6278	1	81	n/a	n/a	1	0	0
1802.8278	1	81	n/a	n/a	1	0	0
1803.0278	1	81	n/a	n/a	1	0	0
1803.2278	1	81	n/a	n/a	1	0	0
1804.4638	1	10	n/a	n/a	1	52	1
1805.5138	1	10	n/a	n/a	1	52	2
1806.5804	1	10	n/a	n/a	1	52	3
1807.897	1	10	n/a	n/a	1	52	4
1809.0802	1	10	n/a	n/a	1	52	5
1810.1636	1	10	n/a	n/a	1	52	6
1811.1968	1	10	n/a	n/a	1	52	7
1812.23	1	21	n/a	n/a	1	52	0
1813.48	1	10	n/a	n/a	1	52	1
1814.7298	1	21	n/a	n/a	1	52	0
1815.9298	1	10	n/a	n/a	1	52	1
1817.1298	1	21	n/a	n/a	1	52	0
1818.1964	1	10	n/a	n/a	1	52	1
1819.263	1	21	n/a	n/a	1	52	0
1820.5628	1	10	n/a	n/a	1	52	1
1821.7294	1	10	n/a	n/a	1	52	2
1823.046	1	10	n/a	n/a	1	52	3
1824.2126	1	10	n/a	n/a	1	52	4
1825.446	1	10	n/a	n/a	1	52	5
1826.5626	1	10	n/a	n/a	1	52	6
1827.592	1	81	n/a	n/a	1	0	0
1827.792	1	81	n/a	n/a	1	0	0
1827.992	1	81	n/a	n/a	1	0	0
1828.192	1	81	n/a	n/a	1	0	0
1828.392	1	81	n/a	n/a	1	0	0
1828.592	1	81	n/a	n/a	1	0	0
1828.792	1	81	n/a	n/a	1	0	0
1828.992	1	81	n/a	n/a	1	0	0
1829.192	1	81	n/a	n/a	1	0	0
1829.392	1	81	n/a	n/a	1	0	0
1830.729	1	10	n/a	n/a	1	52	1
1831.9788	1	21	n/a	n/a	1	52	0
1833.2622	1	10	n/a	n/a	1	52	1
1834.312	1	10	n/a	n/a	1	52	2
1835.4454	1	10	n/a	n/a	1	52	3
1836.5786	1	21	n/a	n/a	1	52	0
1837.8618	1	10	n/a	n/a	1	52	1
1839.1284	1	10	n/a	n/a	1	52	2
1840.4118	1	10	n/a	n/a	1	52	3
1841.6116	1	10	n/a	n/a	1	52	4
1842.795	1	10	n/a	n/a	1	52	5
1843.9616	1	10	n/a	n/a	1	52	6
1845.2614	1	10	n/a	n/a	1	52	7
1846.5614	1	21	n/a	n/a	1	52	0
1847.5946	1	10	n/a	n/a	1	52	1
1848.628	1	21	n/a	n/a	1	52	0
1849.8612	1	10	n/a	n/a	1	52	1
1851.0112	1	10	n/a	n/a	1	52	2
1852.1444	1	10	n/a	n/a	1	52	3
1853.211	1	10	n/a	n/a	1	52	4
1854.2014	1	81	n/a	n/a	1	0	0
1854.4014	1	81	n/a	n/a	1	0	0
1854.6014	1	81	n/a	n/a	1	0	0
1854.8014	1	81	n/a	n/a	1	0	0
1855.0014	1	81	n/a	n/a	1	0	0
1855.2014	1	81	n/a	n/a	1	0	0
1855.4014	1	81	n/a	n/a	1	0	0
1855.6014	1	81	n/a	n/a	1	0	0
1855.8014	1	81	n/a	n/a	1	0	0
1856.0014	1	81	n/a	n/a	1	0	0
1857.144	1	10	n/a	n/a	1	52	1
1858.194	1	21	n/a	n/a	1	52	0
1859.2272	1	10	n/a	n/a	1	52	1
1860.3272	1	10	n/a	n/a	1	52	2
1861.6104	1	10	n/a	n/a	1	52	3
1862.8104	1	10	n/a	n/a	1	52	4
1863.877	1	10	n/a	n/a	1	52	5
1864.9436	1	21	n/a	n/a	1	52	0
1865.9936	1	10	n/a	n/a	1	52	1
1867.0602	1	10	n/a	n/a	1	52	2
1868.2434	1	10	n/a	n/a	1	52	3
1869.51	1	10	n/a	n/a	1	52	4
1870.7932	1	10	n/a	n/a	1	52	5
1872.0766	1	21	n/a	n/a	1	52	0
1873.1764	1	10	n/a	n/a	1	52	1
1874.2764	1	21	n/a	n/a	1	52	0
1875.543	1	10	n/a	n/a	1	52	1
1876.7596	1	10	n/a	n/a	1	52	2
1878.0762	1	10	n/a	n/a	1	52	3
1879.3928	1	21	n/a	n/a	1	52	0
1888.379	1	82	n/a	n/a	1	0	0
1888.435	1	82	n/a	n/a	1	0	0
1888.516	1	82	n/a	n/a	1	0	0
1888.71	1	82	n/a	n/a	1	0	0
1888.87	1	82	n/a	n/a	1	0	0
1889.379	1	82	n/a	n/a	1	0	0
1889.463	1	82	n/a	n/a	1	0	0
1889.756	1	82	n/a	n/a	1	0	0
1889.813	1	82	n/a	n/a	1	0	0
1890.065	1	82	n/a	n/a	1	0	0
1891.5754	1	10	n/a	n/a	1	50	1
1892.6586	1	10	n/a	n/a	1	50	2
1893.692	1	10	n/a	n/a	1	50	3
1894.9918	1	10	n/a	n/a	1	50	4
1896.0584	1	10	n/a	n/a	1	50	5
1897.1584	1	10	n/a	n/a	1	50	6
1898.4916	1	10	n/a	n/a	1	50	7
1899.825	1	21	n/a	n/a	1	50	0
1900.9082	1	10	n/a	n/a	1	50	1
1901.9914	1	21	n/a	n/a	1	50	0
1903.208	1	10	n/a	n/a	1	50	1
1904.4246	1	21	n/a	n/a	1	50	0
1905.5746	1	10	n/a	n/a	1	50	1
1906.7244	1	21	n/a	n/a	1	50	0
1908.0078	1	10	n/a	n/a	1	50	1
1909.291	1	21	n/a	n/a	1	50	0
1910.441	1	10	n/a	n/a	1	50	1
1911.5908	1	21	n/a	n/a	1	50	0
1912.8408	1	10	n/a	n/a	1	50	1
1914.0408	1	10	n/a	n/a	1	50	2
1914.9942	1	82	n/a	n/a	1	0	0
1915.0902	1	82	n/a	n/a	1	0	0
1915.4782	1	82	n/a	n/a	1	0	0
1915.8092	1	82	n/a	n/a	1	0	0
1915.9272	1	82	n/a	n/a	1	0	0
1915.9942	1	82	n/a	n/a	1	0	0
1916.1202	1	82	n/a	n/a	1	0	0
1916.2812	1	82	n/a	n/a	1	0	0
1916.4782	1	82	n/a	n/a	1	0	0
1916.5292	1	82	n/a	n/a	1	0	0
1918.0404	1	10	n/a	n/a	1	50	1
1919.207	1	10	n/a	n/a	1	50	2
1920.4404	1	10	n/a	n/a	1	50	3
1921.4902	1	10	n/a	n/a	1	50	4
1922.5736	1	10	n/a	n/a	1	50	5
1923.6568	1	21	n/a	n/a	1	50	0
1924.7568	1	10	n/a	n/a	1	50	1
1925.8568	1	21	n/a	n/a	1	50	0
1927.1732	1	10	n/a	n/a	1	50	1
1928.3732	1	10	n/a	n/a	1	50	2
1929.6898	1	10	n/a	n/a	1	50	3
1930.823	1	10	n/a	n/a	1	50	4
1932.0396	1	10	n/a	n/a	1	50	5
1933.2562	1	21	n/a	n/a	1	50	0
1934.3228	1	10	n/a	n/a	1	50	1
1935.3894	1	21	n/a	n/a	1	50	0
1936.506	1	10	n/a	n/a	1	50	1
1937.6226	1	10	n/a	n/a	1	50	2
1938.656	1	10	n/a	n/a	1	50	3
1939.9392	1	10	n/a	n/a	1	50	4
1940.6966	1	82	n/a	n/a	1	0	0
1940.7266	1	82	n/a	n/a	1	0	0
1940.8336	1	82	n/a	n/a	1	0	0
1941.0066	1	82	n/a	n/a	1	0	0
1941.0696	1	82	n/a	n/a	1	0	0
1941.6966	1	82	n/a	n/a	1	0	0
1941.7826	1	82	n/a	n/a	1	0	0
1942.1356	1	82	n/a	n/a	1	0	0
1942.2856	1	82	n/a	n/a	1	0	0
1942.5726	1	82	n/a	n/a	1	0	0
1943.9056	1	10	n/a	n/a	1	50	1
1944.9556	1	10	n/a	n/a	1	50	2
1946.2556	1	10	n/a	n/a	1	50	3
1947.4054	1	10	n/a	n/a	1	50	4
1948.672	1	10	n/a	n/a	1	50	5
1949.9552	1	10	n/a	n/a	1	50	6
1951.1386	1	10	n/a	n/a	1	50	7
1952.3218	1	21	n/a	n/a	1	50	0
1953.4218	1	10	n/a	n/a	1	50	1
1954.5884	1	10	n/a	n/a	1	50	2
1955.805	1	10	n/a	n/a	1	50	3
1957.0216	1	21	n/a	n/a	1	50	0
1958.1214	1	10	n/a	n/a	1	50	1
1959.2214	1	21	n/a	n/a	1	50	0
1960.4046	1	10	n/a	n/a	1	50	1
1961.588	1	21	n/a	n/a	1	50	0
1962.6212	1	10	n/a	n/a	1	50	1
1963.8878	1	10	n/a	n/a	1	50	2
1965.1044	1	10	n/a	n/a	1	50	3
1966.3544	1	10	n/a	n/a	1	50	4
1967.4238	1	82	n/a	n/a	1	0	0
1967.6758	1	82	n/a	n/a	1	0	0
1967.8128	1	82	n/a	n/a	1	0	0
1967.8348	1	82	n/a	n/a	1	0	0
1968.1408	1	82	n/a	n/a	1	0	0
1968.4238	1	82	n/a	n/a	1	0	0
1968.5388	1	82	n/a	n/a	1	0	0
1968.9598	1	82	n/a	n/a	1	0	0
1969.2338	1	82	n/a	n/a	1	0	0
1969.3148	1	82	n/a	n/a	1	0	0
1970.5708	1	10	n/a	n/a	1	50	1
1971.7706	1	10	n/a	n/a	1	50	2
1973.004	1	10	n/a	n/a	1	50	3
1974.1206	1	10	n/a	n/a	1	50	4
1975.3038	1	10	n/a	n/a	1	50	5
1976.387	1	10	n/a	n/a	1	50	6
1977.637	1	10	n/a	n/a	1	50	7
1978.887	1	21	n/a	n/a	1	50	0
1980.1536	1	10	n/a	n/a	1	50	1
1981.3368	1	10	n/a	n/a	1	50	2
1982.6368	1	10	n/a	n/a	1	50	3
1983.9032	1	10	n/a	n/a	1	50	4
1985.1198	1	10	n/a	n/a	1	50	5
1986.3364	1	21	n/a	n/a	1	50	0
1987.503	1	10	n/a	n/a	1	50	1
1988.6696	1	21	n/a	n/a	1	50	0
1989.9362	1	10	n/a	n/a	1	50	1
1991.1862	1	21	n/a	n/a	1	50	0
1992.4694	1	10	n/a	n/a	1	50	1
1993.536	1	10	n/a	n/a	1	50	2
1994.4396	1	82	n/a	n/a	1	0	0
1994.7746	1	82	n/a	n/a	1	0	0
1994.8706	1	82	n/a	n/a	1	0	0
1995.1556	1	82	n/a	n/a	1	0	0
1995.4086	1	82	n/a	n/a	1	0	0
1995.4396	1	82	n/a	n/a	1	0	0
1995.6816	1	82	n/a	n/a	1	0	0
1995.7256	1	82	n/a	n/a	1	0	0
1995.8076	1	82	n/a	n/a	1	0	0
1996.1996	1	82	n/a	n/a	1	0	0
1997.5692	1	10	n/a	n/a	1	50	1
1998.8858	1	10	n/a	n/a	1	50	2
1999.919	1	10	n/a	n/a	1	50	3
2001.1022	1	10	n/a	n/a	1	50	4
2002.3356	1	10	n/a	n/a	1	50	5
2003.5688	1	21	n/a	n/a	1	50	0
2004.802	1	10	n/a	n/a	1	50	1
2006.0354	1	10	n/a	n/a	1	50	2
2007.3352	1	10	n/a	n/a	1	50	3
2008.6352	1	10	n/a	n/a	1	50	4
2009.7852	1	10	n/a	n/a	1	50	5
2011.0684	1	10	n/a	n/a	1	50	6
2012.1684	1	10	n/a	n/a	1	50	7
2013.2682	1	21	n/a	n/a	1	50	0
2014.4682	1	10	n/a	n/a	1	50	1
2015.7348	1	10	n/a	n/a	1	50	2
2017.0014	1	10	n/a	n/a	1	50	3
2018.3012	1	10	n/a	n/a	1	50	4
2019.4012	1	10	n/a	n/a	1	50	5
2020.4678	1	10	n/a	n/a	1	50	6
2049.4038	1	82	n/a	n/a	1	0	0
2049.8168	1	82	n/a	n/a	1	0	0
2050.1128	1	82	n/a	n/a	1	0	0
2050.3338	1	82	n/a	n/a	1	0	0
2050.3588	1	82	n/a	n/a	1	0	0
2050.4038	1	82	n/a	n/a	1	0	0
2050.7228	1	82	n/a	n/a	1	0	0
2050.8618	1	82	n/a	n/a	1	0	0
2051.1258	1	82	n/a	n/a	1	0	0
2051.2138	1	82	n/a	n/a	1	0	0
2052.4826	1	10	n/a	n/a	1	51	1
2053.6658	1	10	n/a	n/a	1	51	2
2054.9824	1	10	n/a	n/a	1	51	3
2056.299	1	21	n/a	n/a	1	51	0
2057.4324	1	10	n/a	n/a	1	51	1
2058.6322	1	10	n/a	n/a	1	51	2
2059.6988	1	10	n/a	n/a	1	51	3
2060.7654	1	21	n/a	n/a	1	51	0
2061.8654	1	10	n/a	n/a	1	51	1
2062.9154	1	10	n/a	n/a	1	51	2
2063.9486	1	10	n/a	n/a	1	51	3
2064.9818	1	21	n/a	n/a	1	51	0
2066.2484	1	10	n/a	n/a	1	51	1
2067.515	1	21	n/a	n/a	1	51	0
2069.6816	1	21	n/a	n/a	1	51	0
2070.8482	1	10	n/a	n/a	1	51	1
2071.8982	1	10	n/a	n/a	1	51	2
2073.1814	1	10	n/a	n/a	1	51	3
2074.298	1	10	n/a	n/a	1	51	4
2075.0984	1	82	n/a	n/a	1	0	0
2075.1214	1	82	n/a	n/a	1	0	0
2075.2134	1	82	n/a	n/a	1	0	0
2075.3364	1	82	n/a	n/a	1	0	0
2075.6114	1	82	n/a	n/a	1	0	0
2076.0984	1	82	n/a	n/a	1	0	0
2076.2464	1	82	n/a	n/a	1	0	0
2076.3294	1	82	n/a	n/a	1	0	0
2076.3914	1	82	n/a	n/a	1	0	0
2076.7584	1	82	n/a	n/a	1	0	0
2078.1978	1	10	n/a	n/a	1	51	1
2079.4644	1	10	n/a	n/a	1	51	2
2080.631	1	10	n/a	n/a	1	51	3
2081.7976	1	10	n/a	n/a	1	51	4
2082.9642	1	10	n/a	n/a	1	51	5
2084.1308	1	21	n/a	n/a	1	51	0
2085.4474	1	10	n/a	n/a	1	51	1
2086.764	1	21	n/a	n/a	1	51	0
2087.9472	1	10	n/a	n/a	1	51	1
2089.1304	1	21	n/a	n/a	1	51	0
2090.2304	1	10	n/a	n/a	1	51	1
2091.2636	1	10	n/a	n/a	1	51	2
2092.3302	1	10	n/a	n/a	1	51	3
2093.6302	1	10	n/a	n/a	1	51	4
2094.7302	1	10	n/a	n/a	1	51	5
2095.93	1	10	n/a	n/a	1	51	6
2097.08	1	10	n/a	n/a	1	51	7
2098.23	1	21	n/a	n/a	1	51	0
2099.4632	1	10	n/a	n/a	1	51	1
2100.6964	1	21	n/a	n/a	1	51	0
2101.5632	1	82	n/a	n/a	1	0	0
2101.6392	1	82	n/a	n/a	1	0	0
2101.7662	1	82	n/a	n/a	1	0	0
2102.0822	1	82	n/a	n/a	1	0	0
2102.1272	1	82	n/a	n/a	1	0	0
2102.5632	1	82	n/a	n/a	1	0	0
2102.8612	1	82	n/a	n/a	1	0	0
2102.9662	1	82	n/a	n/a	1	0	0
2102.9882	1	82	n/a	n/a	1	0	0
2103.0392	1	82	n/a	n/a	1	0	0
2104.6128	1	10	n/a	n/a	1	51	1
2105.6628	1	10	n/a	n/a	1	51	2
2106.746	1	10	n/a	n/a	1	51	3
2108.0126	1	10	n/a	n/a	1	51	4
2109.146	1	10	n/a	n/a	1	51	5
2110.4626	1	10	n/a	n/a	1	51	6
2111.6458	1	10	n/a	n/a	1	51	7
2112.829	1	21	n/a	n/a	1	51	0
2114.1124	1	10	n/a	n/a	1	51	1
2115.3956	1	21	n/a	n/a	1	51	0
2116.5956	1	10	n/a	n/a	1	51	1
2117.912	1	10	n/a	n/a	1	51	2
2119.2286	1	10	n/a	n/a	1	51	3
2120.4786	1	10	n/a	n/a	1	51	4
2121.5618	1	10	n/a	n/a	1	51	5
2122.7118	1	10	n/a	n/a	1	51	6
2124.0284	1	10	n/a	n/a	1	51	7
2125.345	1	21	n/a	n/a	1	51	0
2126.4116	1	10	n/a	n/a	1	51	1
2127.4782	1	21	n/a	n/a	1	51	0
2128.3836	1	82	n/a	n/a	1	0	0
2128.8026	1	82	n/a	n/a	1	0	0
2129.1836	1	82	n/a	n/a	1	0	0
2129.2316	1	82	n/a	n/a	1	0	0
2129.2576	1	82	n/a	n/a	1	0	0
2129.3836	1	82	n/a	n/a	1	0	0
2129.5336	1	82	n/a	n/a	1	0	0
2129.6146	1	82	n/a	n/a	1	0	0
2129.8556	1	82	n/a	n/a	1	0	0
2130.2806	1	82	n/a	n/a	1	0	0
2131.428	1	10	n/a	n/a	1	51	1
2132.578	1	21	n/a	n/a	1	51	0
2133.8612	1	10	n/a	n/a	1	51	1
2135.161	1	10	n/a	n/a	1	51	2
2136.3276	1	10	n/a	n/a	1	51	3
2137.6442	1	10	n/a	n/a	1	51	4
2138.7608	1	10	n/a	n/a	1	51	5
2139.8774	1	21	n/a	n/a	1	51	0
2141.1774	1	10	n/a	n/a	1	51	1
2142.344	1	10	n/a	n/a	1	51	2
2143.5272	1	10	n/a	n/a	1	51	3
2144.8272	1	10	n/a	n/a	1	51	4
2145.9604	1	10	n/a	n/a	1	51	5
2147.1604	1	10	n/a	n/a	1	51	6
2148.4602	1	10	n/a	n/a	1	51	7
2149.7602	1	21	n/a	n/a	1	51	0
2150.9434	1	10	n/a	n/a	1	51	1
2152.1268	1	21	n/a	n/a	1	51	0
2153.3934	1	10	n/a	n/a	1	51	1
2154.46	1	10	n/a	n/a	1	51	2
2155.3244	1	82	n/a	n/a	1	0	0
2155.4014	1	82	n/a	n/a	1	0	0
2155.8184	1	82	n/a	n/a	1	0	0
2156.1824	1	82	n/a	n/a	1	0	0
2156.2224	1	82	n/a	n/a	1	0	0
2156.3244	1	82	n/a	n/a	1	0	0
2156.3854	1	82	n/a	n/a	1	0	0
2156.6924	1	82	n/a	n/a	1	0	0
2156.9764	1	82	n/a	n/a	1	0	0
2157.1044	1	82	n/a	n/a	1	0	0
2158.4264	1	10	n/a	n/a	1	51	1
2159.5596	1	10	n/a	n/a	1	51	2
2160.8262	1	10	n/a	n/a	1	51	3
2162.0596	1	10	n/a	n/a	1	51	4
2163.1094	1	10	n/a	n/a	1	51	5
2164.2094	1	10	n/a	n/a	1	51	6
2165.276	1	10	n/a	n/a	1	51	7
2166.3426	1	21	n/a	n/a	1	51	0
2167.5092	1	10	n/a	n/a	1	51	1
2168.6258	1	10	n/a	n/a	1	51	2
2169.8258	1	10	n/a	n/a	1	51	3
2170.9424	1	10	n/a	n/a	1	51	4
2172.0422	1	10	n/a	n/a	1	51	5
2173.1588	1	10	n/a	n/a	1	51	6
2174.4254	1	10	n/a	n/a	1	51	7
2175.692	1	21	n/a	n/a	1	51	0
2176.9252	1	10	n/a	n/a	1	51	1
2178.0918	1	10	n/a	n/a	1	51	2
2179.2418	1	10	n/a	n/a	1	51	3
2180.2918	1	10	n/a	n/a	1	51	4
