onset	duration	value	response	rt	good	TMS	seq
269.3842	1	82	n/a	n/a	1	0	0
269.4772	1	82	n/a	n/a	1	0	0
269.8292	1	82	n/a	n/a	1	0	0
270.0782	1	82	n/a	n/a	1	0	0
270.1452	1	82	n/a	n/a	1	0	0
270.3842	1	82	n/a	n/a	1	0	0
270.4112	1	82	n/a	n/a	1	0	0
270.5372	1	82	n/a	n/a	1	0	0
270.9312	1	82	n/a	n/a	1	0	0
271.2042	1	82	n/a	n/a	1	0	0
272.3582	1	10	n/a	n/a	1	52	1
273.5414	1	10	n/a	n/a	1	52	2
274.658	1	10	n/a	n/a	1	52	3
275.908	1	10	n/a	n/a	1	52	4
277.0912	1	10	n/a	n/a	1	52	5
278.2746	1	21	n/a	n/a	1	52	0
279.3912	1	10	n/a	n/a	1	52	1
280.6078	1	10	n/a	n/a	1	52	2
281.841	1	10	n/a	n/a	1	52	3
283.0742	1	21	n/a	n/a	1	52	0
284.1076	1	10	n/a	n/a	1	52	1
285.1908	1	10	n/a	n/a	1	52	2
286.2908	1	10	n/a	n/a	1	52	3
287.5906	1	10	n/a	n/a	1	52	4
288.674	1	10	n/a	n/a	1	52	5
289.7572	1	21	n/a	n/a	1	52	0
291.0072	1	10	n/a	n/a	1	52	1
292.257	1	21	n/a	n/a	1	52	0
293.407	1	10	n/a	n/a	1	52	1
294.5736	1	21	n/a	n/a	1	52	0
295.6084	1	82	n/a	n/a	1	0	0
295.6994	1	82	n/a	n/a	1	0	0
295.9754	1	82	n/a	n/a	1	0	0
296.1704	1	82	n/a	n/a	1	0	0
296.4924	1	82	n/a	n/a	1	0	0
296.6084	1	82	n/a	n/a	1	0	0
296.8474	1	82	n/a	n/a	1	0	0
296.9514	1	82	n/a	n/a	1	0	0
297.1314	1	82	n/a	n/a	1	0	0
297.4104	1	82	n/a	n/a	1	0	0
298.74	1	10	n/a	n/a	1	52	1
299.89	1	10	n/a	n/a	1	52	2
301.0732	1	10	n/a	n/a	1	52	3
302.2232	1	10	n/a	n/a	1	52	4
303.3564	1	10	n/a	n/a	1	52	5
304.473	1	10	n/a	n/a	1	52	6
305.7396	1	10	n/a	n/a	1	52	7
307.0062	1	21	n/a	n/a	1	52	0
308.1228	1	10	n/a	n/a	1	52	1
309.406	1	10	n/a	n/a	1	52	2
310.4894	1	10	n/a	n/a	1	52	3
311.5726	1	21	n/a	n/a	1	52	0
312.7226	1	10	n/a	n/a	1	52	1
313.8724	1	21	n/a	n/a	1	52	0
315.1224	1	10	n/a	n/a	1	52	1
316.3224	1	10	n/a	n/a	1	52	2
317.4556	1	10	n/a	n/a	1	52	3
318.5888	1	21	n/a	n/a	1	52	0
319.7054	1	10	n/a	n/a	1	52	1
320.8388	1	10	n/a	n/a	1	52	2
321.8224	1	82	n/a	n/a	1	0	0
321.9544	1	82	n/a	n/a	1	0	0
322.3714	1	82	n/a	n/a	1	0	0
322.4624	1	82	n/a	n/a	1	0	0
322.6384	1	82	n/a	n/a	1	0	0
322.8224	1	82	n/a	n/a	1	0	0
322.8654	1	82	n/a	n/a	1	0	0
322.9794	1	82	n/a	n/a	1	0	0
323.3904	1	82	n/a	n/a	1	0	0
323.6814	1	82	n/a	n/a	1	0	0
324.9552	1	10	n/a	n/a	1	52	1
326.2718	1	10	n/a	n/a	1	52	2
327.305	1	10	n/a	n/a	1	52	3
328.5382	1	10	n/a	n/a	1	52	4
329.7216	1	10	n/a	n/a	1	52	5
330.7714	1	10	n/a	n/a	1	52	6
331.938	1	10	n/a	n/a	1	52	7
333.1046	1	21	n/a	n/a	1	52	0
334.3712	1	10	n/a	n/a	1	52	1
335.6046	1	10	n/a	n/a	1	52	2
336.8212	1	10	n/a	n/a	1	52	3
338.0378	1	10	n/a	n/a	1	52	4
339.0876	1	10	n/a	n/a	1	52	5
340.1376	1	21	n/a	n/a	1	52	0
341.2376	1	10	n/a	n/a	1	52	1
342.5042	1	10	n/a	n/a	1	52	2
343.654	1	10	n/a	n/a	1	52	3
344.9706	1	10	n/a	n/a	1	52	4
346.0372	1	10	n/a	n/a	1	52	5
347.1038	1	21	n/a	n/a	1	52	0
347.9746	1	82	n/a	n/a	1	0	0
348.0566	1	82	n/a	n/a	1	0	0
348.2026	1	82	n/a	n/a	1	0	0
348.3276	1	82	n/a	n/a	1	0	0
348.5706	1	82	n/a	n/a	1	0	0
348.9746	1	82	n/a	n/a	1	0	0
349.2976	1	82	n/a	n/a	1	0	0
349.3456	1	82	n/a	n/a	1	0	0
349.6176	1	82	n/a	n/a	1	0	0
349.6876	1	82	n/a	n/a	1	0	0
351.1704	1	10	n/a	n/a	1	52	1
352.4202	1	10	n/a	n/a	1	52	2
353.4868	1	10	n/a	n/a	1	52	3
354.7368	1	10	n/a	n/a	1	52	4
355.8866	1	10	n/a	n/a	1	52	5
357.1032	1	10	n/a	n/a	1	52	6
358.4032	1	10	n/a	n/a	1	52	7
359.7032	1	21	n/a	n/a	1	52	0
360.9864	1	10	n/a	n/a	1	52	1
362.153	1	10	n/a	n/a	1	52	2
363.4696	1	10	n/a	n/a	1	52	3
364.7862	1	21	n/a	n/a	1	52	0
366.0028	1	10	n/a	n/a	1	52	1
367.2194	1	21	n/a	n/a	1	52	0
368.2694	1	10	n/a	n/a	1	52	1
369.3192	1	21	n/a	n/a	1	52	0
370.3692	1	10	n/a	n/a	1	52	1
371.6358	1	10	n/a	n/a	1	52	2
372.8524	1	10	n/a	n/a	1	52	3
374.1356	1	10	n/a	n/a	1	52	4
375.1392	1	82	n/a	n/a	1	0	0
375.4672	1	82	n/a	n/a	1	0	0
375.5282	1	82	n/a	n/a	1	0	0
375.7362	1	82	n/a	n/a	1	0	0
376.0852	1	82	n/a	n/a	1	0	0
376.1392	1	82	n/a	n/a	1	0	0
376.1732	1	82	n/a	n/a	1	0	0
376.2422	1	82	n/a	n/a	1	0	0
376.4732	1	82	n/a	n/a	1	0	0
376.7572	1	82	n/a	n/a	1	0	0
378.2188	1	10	n/a	n/a	1	52	1
379.402	1	10	n/a	n/a	1	52	2
380.5686	1	10	n/a	n/a	1	52	3
381.6852	1	10	n/a	n/a	1	52	4
382.8518	1	10	n/a	n/a	1	52	5
384.035	1	10	n/a	n/a	1	52	6
385.3184	1	10	n/a	n/a	1	52	7
386.6016	1	21	n/a	n/a	1	52	0
387.8348	1	10	n/a	n/a	1	52	1
388.9014	1	10	n/a	n/a	1	52	2
389.968	1	10	n/a	n/a	1	52	3
391.068	1	10	n/a	n/a	1	52	4
392.1346	1	10	n/a	n/a	1	52	5
393.2178	1	10	n/a	n/a	1	52	6
394.3178	1	10	n/a	n/a	1	52	7
395.4178	1	21	n/a	n/a	1	52	0
396.701	1	10	n/a	n/a	1	52	1
398.001	1	10	n/a	n/a	1	52	2
399.2676	1	10	n/a	n/a	1	52	3
400.3342	1	10	n/a	n/a	1	52	4
437.2044	1	82	n/a	n/a	1	0	0
437.4844	1	82	n/a	n/a	1	0	0
437.7064	1	82	n/a	n/a	1	0	0
437.7534	1	82	n/a	n/a	1	0	0
437.8454	1	82	n/a	n/a	1	0	0
438.2044	1	82	n/a	n/a	1	0	0
438.4754	1	82	n/a	n/a	1	0	0
438.6004	1	82	n/a	n/a	1	0	0
438.6564	1	82	n/a	n/a	1	0	0
438.8194	1	82	n/a	n/a	1	0	0
440.2152	1	10	n/a	n/a	1	50	1
441.4318	1	10	n/a	n/a	1	50	2
442.465	1	10	n/a	n/a	1	50	3
443.6982	1	10	n/a	n/a	1	50	4
444.9982	1	10	n/a	n/a	1	50	5
446.1148	1	10	n/a	n/a	1	50	6
447.3648	1	10	n/a	n/a	1	50	7
448.6146	1	21	n/a	n/a	1	50	0
449.798	1	10	n/a	n/a	1	50	1
451.1146	1	10	n/a	n/a	1	50	2
452.431	1	10	n/a	n/a	1	50	3
453.5476	1	10	n/a	n/a	1	50	4
454.6142	1	10	n/a	n/a	1	50	5
455.8142	1	10	n/a	n/a	1	50	6
456.9308	1	10	n/a	n/a	1	50	7
458.0474	1	21	n/a	n/a	1	50	0
459.1974	1	10	n/a	n/a	1	50	1
460.364	1	10	n/a	n/a	1	50	2
461.6138	1	10	n/a	n/a	1	50	3
462.8638	1	21	n/a	n/a	1	50	0
463.9676	1	82	n/a	n/a	1	0	0
464.3956	1	82	n/a	n/a	1	0	0
464.6196	1	82	n/a	n/a	1	0	0
464.6406	1	82	n/a	n/a	1	0	0
464.8196	1	82	n/a	n/a	1	0	0
464.9676	1	82	n/a	n/a	1	0	0
465.3706	1	82	n/a	n/a	1	0	0
465.4146	1	82	n/a	n/a	1	0	0
465.5676	1	82	n/a	n/a	1	0	0
465.6986	1	82	n/a	n/a	1	0	0
467.147	1	10	n/a	n/a	1	50	1
468.1968	1	10	n/a	n/a	1	50	2
469.2968	1	10	n/a	n/a	1	50	3
470.3968	1	21	n/a	n/a	1	50	0
471.5634	1	10	n/a	n/a	1	50	1
472.7966	1	10	n/a	n/a	1	50	2
473.8966	1	10	n/a	n/a	1	50	3
475.1964	1	10	n/a	n/a	1	50	4
476.3298	1	10	n/a	n/a	1	50	5
477.463	1	21	n/a	n/a	1	50	0
478.713	1	10	n/a	n/a	1	50	1
479.9628	1	21	n/a	n/a	1	50	0
481.1128	1	10	n/a	n/a	1	50	1
482.3794	1	10	n/a	n/a	1	50	2
483.6292	1	10	n/a	n/a	1	50	3
484.8792	1	21	n/a	n/a	1	50	0
485.9624	1	10	n/a	n/a	1	50	1
487.0458	1	21	n/a	n/a	1	50	0
488.129	1	10	n/a	n/a	1	50	1
489.3622	1	10	n/a	n/a	1	50	2
490.0878	1	82	n/a	n/a	1	0	0
490.1178	1	82	n/a	n/a	1	0	0
490.4588	1	82	n/a	n/a	1	0	0
490.6708	1	82	n/a	n/a	1	0	0
490.8238	1	82	n/a	n/a	1	0	0
491.0878	1	82	n/a	n/a	1	0	0
491.2568	1	82	n/a	n/a	1	0	0
491.6448	1	82	n/a	n/a	1	0	0
491.7198	1	82	n/a	n/a	1	0	0
491.8278	1	82	n/a	n/a	1	0	0
493.2954	1	10	n/a	n/a	1	50	1
494.362	1	10	n/a	n/a	1	50	2
495.662	1	10	n/a	n/a	1	50	3
496.8286	1	10	n/a	n/a	1	50	4
498.1118	1	10	n/a	n/a	1	50	5
499.395	1	21	n/a	n/a	1	50	0
500.6282	1	10	n/a	n/a	1	50	1
501.7448	1	10	n/a	n/a	1	50	2
502.7782	1	10	n/a	n/a	1	50	3
503.8114	1	21	n/a	n/a	1	50	0
504.9614	1	10	n/a	n/a	1	50	1
506.1114	1	21	n/a	n/a	1	50	0
507.3112	1	10	n/a	n/a	1	50	1
508.4778	1	10	n/a	n/a	1	50	2
509.6444	1	10	n/a	n/a	1	50	3
510.761	1	10	n/a	n/a	1	50	4
511.911	1	10	n/a	n/a	1	50	5
513.061	1	21	n/a	n/a	1	50	0
514.1776	1	10	n/a	n/a	1	50	1
515.2942	1	10	n/a	n/a	1	50	2
516.3946	1	82	n/a	n/a	1	0	0
516.4776	1	82	n/a	n/a	1	0	0
516.8556	1	82	n/a	n/a	1	0	0
517.1426	1	82	n/a	n/a	1	0	0
517.2896	1	82	n/a	n/a	1	0	0
517.3946	1	82	n/a	n/a	1	0	0
517.4226	1	82	n/a	n/a	1	0	0
517.7646	1	82	n/a	n/a	1	0	0
517.9256	1	82	n/a	n/a	1	0	0
518.1746	1	82	n/a	n/a	1	0	0
519.3772	1	10	n/a	n/a	1	50	1
520.6772	1	10	n/a	n/a	1	50	2
521.9604	1	10	n/a	n/a	1	50	3
523.1936	1	10	n/a	n/a	1	50	4
524.427	1	10	n/a	n/a	1	50	5
525.6602	1	21	n/a	n/a	1	50	0
526.8602	1	10	n/a	n/a	1	50	1
528.0268	1	10	n/a	n/a	1	50	2
529.0934	1	10	n/a	n/a	1	50	3
530.16	1	21	n/a	n/a	1	50	0
531.2932	1	10	n/a	n/a	1	50	1
532.5098	1	10	n/a	n/a	1	50	2
533.7264	1	10	n/a	n/a	1	50	3
534.9264	1	10	n/a	n/a	1	50	4
535.993	1	10	n/a	n/a	1	50	5
537.0596	1	21	n/a	n/a	1	50	0
538.2928	1	10	n/a	n/a	1	50	1
539.526	1	10	n/a	n/a	1	50	2
540.6426	1	10	n/a	n/a	1	50	3
541.876	1	10	n/a	n/a	1	50	4
542.6596	1	82	n/a	n/a	1	0	0
542.7476	1	82	n/a	n/a	1	0	0
543.1696	1	82	n/a	n/a	1	0	0
543.3296	1	82	n/a	n/a	1	0	0
543.4616	1	82	n/a	n/a	1	0	0
543.6596	1	82	n/a	n/a	1	0	0
543.7746	1	82	n/a	n/a	1	0	0
543.8606	1	82	n/a	n/a	1	0	0
544.1476	1	82	n/a	n/a	1	0	0
544.5796	1	82	n/a	n/a	1	0	0
545.6256	1	10	n/a	n/a	1	50	1
546.6756	1	10	n/a	n/a	1	50	2
547.9422	1	10	n/a	n/a	1	50	3
549.0588	1	10	n/a	n/a	1	50	4
550.092	1	10	n/a	n/a	1	50	5
551.1254	1	21	n/a	n/a	1	50	0
552.342	1	10	n/a	n/a	1	50	1
553.5586	1	21	n/a	n/a	1	50	0
554.7584	1	10	n/a	n/a	1	50	1
556.0584	1	10	n/a	n/a	1	50	2
557.325	1	10	n/a	n/a	1	50	3
558.425	1	10	n/a	n/a	1	50	4
559.4748	1	10	n/a	n/a	1	50	5
560.6082	1	10	n/a	n/a	1	50	6
561.8248	1	10	n/a	n/a	1	50	7
563.0414	1	21	n/a	n/a	1	50	0
564.1746	1	10	n/a	n/a	1	50	1
565.3912	1	10	n/a	n/a	1	50	2
566.6244	1	10	n/a	n/a	1	50	3
567.8578	1	21	n/a	n/a	1	50	0
606.5382	1	81	n/a	n/a	1	0	0
606.7382	1	81	n/a	n/a	1	0	0
606.9382	1	81	n/a	n/a	1	0	0
607.1382	1	81	n/a	n/a	1	0	0
607.3382	1	81	n/a	n/a	1	0	0
607.5382	1	81	n/a	n/a	1	0	0
607.7382	1	81	n/a	n/a	1	0	0
607.9382	1	81	n/a	n/a	1	0	0
608.1382	1	81	n/a	n/a	1	0	0
608.3382	1	81	n/a	n/a	1	0	0
609.572	1	10	n/a	n/a	1	51	1
610.622	1	10	n/a	n/a	1	51	2
611.7386	1	10	n/a	n/a	1	51	3
612.8552	1	21	n/a	n/a	1	51	0
613.955	1	10	n/a	n/a	1	51	1
615.0716	1	10	n/a	n/a	1	51	2
616.255	1	10	n/a	n/a	1	51	3
617.5716	1	10	n/a	n/a	1	51	4
618.7714	1	10	n/a	n/a	1	51	5
619.9714	1	21	n/a	n/a	1	51	0
621.0546	1	10	n/a	n/a	1	51	1
622.238	1	10	n/a	n/a	1	51	2
623.5212	1	10	n/a	n/a	1	51	3
624.7544	1	10	n/a	n/a	1	51	4
625.8044	1	10	n/a	n/a	1	51	5
626.8544	1	21	n/a	n/a	1	51	0
628.0376	1	10	n/a	n/a	1	51	1
629.0876	1	10	n/a	n/a	1	51	2
630.2542	1	10	n/a	n/a	1	51	3
631.3708	1	10	n/a	n/a	1	51	4
632.2792	1	81	n/a	n/a	1	0	0
632.4792	1	81	n/a	n/a	1	0	0
632.6792	1	81	n/a	n/a	1	0	0
632.8792	1	81	n/a	n/a	1	0	0
633.0792	1	81	n/a	n/a	1	0	0
633.2792	1	81	n/a	n/a	1	0	0
633.4792	1	81	n/a	n/a	1	0	0
633.6792	1	81	n/a	n/a	1	0	0
633.8792	1	81	n/a	n/a	1	0	0
634.0792	1	81	n/a	n/a	1	0	0
635.3704	1	10	n/a	n/a	1	51	1
636.5704	1	21	n/a	n/a	1	51	0
637.837	1	10	n/a	n/a	1	51	1
639.1536	1	10	n/a	n/a	1	51	2
640.2702	1	10	n/a	n/a	1	51	3
641.3868	1	21	n/a	n/a	1	51	0
642.6534	1	10	n/a	n/a	1	51	1
643.9534	1	10	n/a	n/a	1	51	2
645.0366	1	10	n/a	n/a	1	51	3
646.2366	1	10	n/a	n/a	1	51	4
647.3198	1	10	n/a	n/a	1	51	5
648.403	1	21	n/a	n/a	1	51	0
649.6864	1	10	n/a	n/a	1	51	1
650.803	1	10	n/a	n/a	1	51	2
652.0362	1	10	n/a	n/a	1	51	3
653.2194	1	10	n/a	n/a	1	51	4
654.386	1	10	n/a	n/a	1	51	5
655.5526	1	21	n/a	n/a	1	51	0
656.6526	1	10	n/a	n/a	1	51	1
657.8358	1	10	n/a	n/a	1	51	2
658.8932	1	81	n/a	n/a	1	0	0
659.0932	1	81	n/a	n/a	1	0	0
659.2932	1	81	n/a	n/a	1	0	0
659.4932	1	81	n/a	n/a	1	0	0
659.6932	1	81	n/a	n/a	1	0	0
659.8932	1	81	n/a	n/a	1	0	0
660.0932	1	81	n/a	n/a	1	0	0
660.2932	1	81	n/a	n/a	1	0	0
660.4932	1	81	n/a	n/a	1	0	0
660.6932	1	81	n/a	n/a	1	0	0
661.9022	1	10	n/a	n/a	1	51	1
663.0022	1	10	n/a	n/a	1	51	2
664.2522	1	10	n/a	n/a	1	51	3
665.4188	1	10	n/a	n/a	1	51	4
666.7186	1	10	n/a	n/a	1	51	5
667.8352	1	10	n/a	n/a	1	51	6
669.1352	1	10	n/a	n/a	1	51	7
670.4352	1	21	n/a	n/a	1	51	0
671.6018	1	10	n/a	n/a	1	51	1
672.7684	1	21	n/a	n/a	1	51	0
673.8182	1	10	n/a	n/a	1	51	1
675.0682	1	10	n/a	n/a	1	51	2
676.1514	1	10	n/a	n/a	1	51	3
677.2848	1	10	n/a	n/a	1	51	4
678.3514	1	10	n/a	n/a	1	51	5
679.418	1	21	n/a	n/a	1	51	0
680.5846	1	10	n/a	n/a	1	51	1
681.7512	1	21	n/a	n/a	1	51	0
682.8844	1	10	n/a	n/a	1	51	1
683.9344	1	10	n/a	n/a	1	51	2
684.6878	1	81	n/a	n/a	1	0	0
684.8878	1	81	n/a	n/a	1	0	0
685.0878	1	81	n/a	n/a	1	0	0
685.2878	1	81	n/a	n/a	1	0	0
685.4878	1	81	n/a	n/a	1	0	0
685.6878	1	81	n/a	n/a	1	0	0
685.8878	1	81	n/a	n/a	1	0	0
686.0878	1	81	n/a	n/a	1	0	0
686.2878	1	81	n/a	n/a	1	0	0
686.4878	1	81	n/a	n/a	1	0	0
687.8342	1	10	n/a	n/a	1	51	1
689.084	1	21	n/a	n/a	1	51	0
690.384	1	10	n/a	n/a	1	51	1
691.5838	1	10	n/a	n/a	1	51	2
692.9004	1	10	n/a	n/a	1	51	3
694.117	1	10	n/a	n/a	1	51	4
695.367	1	10	n/a	n/a	1	51	5
696.6502	1	10	n/a	n/a	1	51	6
697.8336	1	10	n/a	n/a	1	51	7
699.0168	1	21	n/a	n/a	1	51	0
700.1	1	10	n/a	n/a	1	51	1
701.1834	1	21	n/a	n/a	1	51	0
702.4666	1	10	n/a	n/a	1	51	1
703.6998	1	10	n/a	n/a	1	51	2
704.9664	1	10	n/a	n/a	1	51	3
706.233	1	21	n/a	n/a	1	51	0
707.283	1	10	n/a	n/a	1	51	1
708.3662	1	10	n/a	n/a	1	51	2
709.6496	1	10	n/a	n/a	1	51	3
710.9328	1	21	n/a	n/a	1	51	0
711.9874	1	81	n/a	n/a	1	0	0
712.1874	1	81	n/a	n/a	1	0	0
712.3874	1	81	n/a	n/a	1	0	0
712.5874	1	81	n/a	n/a	1	0	0
712.7874	1	81	n/a	n/a	1	0	0
712.9882	1	81	n/a	n/a	1	0	0
713.1882	1	81	n/a	n/a	1	0	0
713.3882	1	81	n/a	n/a	1	0	0
713.5882	1	81	n/a	n/a	1	0	0
713.7882	1	81	n/a	n/a	1	0	0
715.0326	1	10	n/a	n/a	1	51	1
716.2492	1	10	n/a	n/a	1	51	2
717.3824	1	10	n/a	n/a	1	51	3
718.5156	1	21	n/a	n/a	1	51	0
719.8322	1	10	n/a	n/a	1	51	1
720.8822	1	10	n/a	n/a	1	51	2
722.1322	1	10	n/a	n/a	1	51	3
723.382	1	21	n/a	n/a	1	51	0
724.6986	1	10	n/a	n/a	1	51	1
725.9652	1	10	n/a	n/a	1	51	2
727.0652	1	10	n/a	n/a	1	51	3
728.2318	1	10	n/a	n/a	1	51	4
729.4484	1	10	n/a	n/a	1	51	5
730.665	1	21	n/a	n/a	1	51	0
731.9982	1	10	n/a	n/a	1	51	1
733.2148	1	10	n/a	n/a	1	51	2
734.248	1	10	n/a	n/a	1	51	3
735.448	1	10	n/a	n/a	1	51	4
736.6312	1	10	n/a	n/a	1	51	5
737.8146	1	21	n/a	n/a	1	51	0
891.1004	1	81	n/a	n/a	1	0	0
891.3004	1	81	n/a	n/a	1	0	0
891.5004	1	81	n/a	n/a	1	0	0
891.7004	1	81	n/a	n/a	1	0	0
891.9004	1	81	n/a	n/a	1	0	0
892.1004	1	81	n/a	n/a	1	0	0
892.3004	1	81	n/a	n/a	1	0	0
892.5004	1	81	n/a	n/a	1	0	0
892.7004	1	81	n/a	n/a	1	0	0
892.9004	1	81	n/a	n/a	1	0	0
894.1888	1	10	n/a	n/a	1	51	1
895.3054	1	10	n/a	n/a	1	51	2
896.472	1	10	n/a	n/a	1	51	3
897.722	1	10	n/a	n/a	1	51	4
898.9718	1	10	n/a	n/a	1	51	5
900.0384	1	10	n/a	n/a	1	51	6
901.1884	1	10	n/a	n/a	1	51	7
902.3384	1	21	n/a	n/a	1	51	0
903.5382	1	10	n/a	n/a	1	51	1
904.7216	1	10	n/a	n/a	1	51	2
905.9548	1	10	n/a	n/a	1	51	3
907.1048	1	10	n/a	n/a	1	51	4
908.1714	1	10	n/a	n/a	1	51	5
909.238	1	21	n/a	n/a	1	51	0
910.3546	1	10	n/a	n/a	1	51	1
911.5878	1	10	n/a	n/a	1	51	2
912.7878	1	10	n/a	n/a	1	51	3
913.971	1	10	n/a	n/a	1	51	4
915.0042	1	10	n/a	n/a	1	51	5
916.2376	1	10	n/a	n/a	1	51	6
917.094	1	81	n/a	n/a	1	0	0
917.294	1	81	n/a	n/a	1	0	0
917.494	1	81	n/a	n/a	1	0	0
917.694	1	81	n/a	n/a	1	0	0
917.894	1	81	n/a	n/a	1	0	0
918.094	1	81	n/a	n/a	1	0	0
918.294	1	81	n/a	n/a	1	0	0
918.494	1	81	n/a	n/a	1	0	0
918.694	1	81	n/a	n/a	1	0	0
918.894	1	81	n/a	n/a	1	0	0
920.1872	1	10	n/a	n/a	1	51	1
921.3872	1	21	n/a	n/a	1	51	0
922.6038	1	10	n/a	n/a	1	51	1
923.737	1	10	n/a	n/a	1	51	2
925.037	1	10	n/a	n/a	1	51	3
926.137	1	10	n/a	n/a	1	51	4
927.3702	1	10	n/a	n/a	1	51	5
928.6034	1	21	n/a	n/a	1	51	0
929.8034	1	10	n/a	n/a	1	51	1
930.97	1	10	n/a	n/a	1	51	2
932.0032	1	10	n/a	n/a	1	51	3
933.0366	1	10	n/a	n/a	1	51	4
934.1032	1	10	n/a	n/a	1	51	5
935.1698	1	10	n/a	n/a	1	51	6
936.4364	1	10	n/a	n/a	1	51	7
937.703	1	21	n/a	n/a	1	51	0
938.7528	1	10	n/a	n/a	1	51	1
939.9362	1	10	n/a	n/a	1	51	2
941.1694	1	10	n/a	n/a	1	51	3
942.4026	1	21	n/a	n/a	1	51	0
943.4714	1	81	n/a	n/a	1	0	0
943.6714	1	81	n/a	n/a	1	0	0
943.8714	1	81	n/a	n/a	1	0	0
944.0714	1	81	n/a	n/a	1	0	0
944.2714	1	81	n/a	n/a	1	0	0
944.4714	1	81	n/a	n/a	1	0	0
944.6714	1	81	n/a	n/a	1	0	0
944.8714	1	81	n/a	n/a	1	0	0
945.0714	1	81	n/a	n/a	1	0	0
945.2714	1	81	n/a	n/a	1	0	0
946.4024	1	10	n/a	n/a	1	51	1
947.6856	1	10	n/a	n/a	1	51	2
948.9856	1	10	n/a	n/a	1	51	3
950.2356	1	10	n/a	n/a	1	51	4
951.4522	1	10	n/a	n/a	1	51	5
952.6688	1	21	n/a	n/a	1	51	0
953.7186	1	10	n/a	n/a	1	51	1
954.7686	1	21	n/a	n/a	1	51	0
955.8018	1	10	n/a	n/a	1	51	1
956.8352	1	21	n/a	n/a	1	51	0
958.085	1	10	n/a	n/a	1	51	1
959.3516	1	10	n/a	n/a	1	51	2
960.6516	1	10	n/a	n/a	1	51	3
961.7016	1	10	n/a	n/a	1	51	4
962.9848	1	10	n/a	n/a	1	51	5
964.0348	1	10	n/a	n/a	1	51	6
965.2014	1	10	n/a	n/a	1	51	7
966.368	1	21	n/a	n/a	1	51	0
967.5346	1	10	n/a	n/a	1	51	1
968.7012	1	21	n/a	n/a	1	51	0
969.5158	1	81	n/a	n/a	1	0	0
969.7158	1	81	n/a	n/a	1	0	0
969.9158	1	81	n/a	n/a	1	0	0
970.1158	1	81	n/a	n/a	1	0	0
970.3158	1	81	n/a	n/a	1	0	0
970.5158	1	81	n/a	n/a	1	0	0
970.7158	1	81	n/a	n/a	1	0	0
970.9158	1	81	n/a	n/a	1	0	0
971.1158	1	81	n/a	n/a	1	0	0
971.3158	1	81	n/a	n/a	1	0	0
972.4342	1	10	n/a	n/a	1	51	1
973.4842	1	21	n/a	n/a	1	51	0
974.6508	1	10	n/a	n/a	1	51	1
975.684	1	10	n/a	n/a	1	51	2
977.0006	1	10	n/a	n/a	1	51	3
978.0672	1	10	n/a	n/a	1	51	4
979.2172	1	10	n/a	n/a	1	51	5
980.4838	1	10	n/a	n/a	1	51	6
981.567	1	10	n/a	n/a	1	51	7
982.6504	1	21	n/a	n/a	1	51	0
983.7336	1	10	n/a	n/a	1	51	1
984.9168	1	10	n/a	n/a	1	51	2
986.0168	1	10	n/a	n/a	1	51	3
987.1168	1	21	n/a	n/a	1	51	0
988.3666	1	10	n/a	n/a	1	51	1
989.4166	1	10	n/a	n/a	1	51	2
990.5666	1	10	n/a	n/a	1	51	3
991.6498	1	10	n/a	n/a	1	51	4
992.9664	1	10	n/a	n/a	1	51	5
994.283	1	21	n/a	n/a	1	51	0
995.2676	1	81	n/a	n/a	1	0	0
995.4676	1	81	n/a	n/a	1	0	0
995.6676	1	81	n/a	n/a	1	0	0
995.8676	1	81	n/a	n/a	1	0	0
996.0676	1	81	n/a	n/a	1	0	0
996.2676	1	81	n/a	n/a	1	0	0
996.4676	1	81	n/a	n/a	1	0	0
996.6676	1	81	n/a	n/a	1	0	0
996.8676	1	81	n/a	n/a	1	0	0
997.0676	1	81	n/a	n/a	1	0	0
998.316	1	10	n/a	n/a	1	51	1
999.6326	1	10	n/a	n/a	1	51	2
1000.6826	1	10	n/a	n/a	1	51	3
1001.9158	1	10	n/a	n/a	1	51	4
1003.0158	1	10	n/a	n/a	1	51	5
1004.2158	1	10	n/a	n/a	1	51	6
1005.5156	1	10	n/a	n/a	1	51	7
1006.8156	1	21	n/a	n/a	1	51	0
1008.1322	1	10	n/a	n/a	1	51	1
1009.2988	1	10	n/a	n/a	1	51	2
1010.432	1	10	n/a	n/a	1	51	3
1011.7486	1	10	n/a	n/a	1	51	4
1013.0652	1	10	n/a	n/a	1	51	5
1014.3818	1	21	n/a	n/a	1	51	0
1015.565	1	10	n/a	n/a	1	51	1
1016.6484	1	10	n/a	n/a	1	51	2
1017.765	1	10	n/a	n/a	1	51	3
1018.8648	1	10	n/a	n/a	1	51	4
1019.9148	1	10	n/a	n/a	1	51	5
1020.9648	1	21	n/a	n/a	1	51	0
1034.7146	1	81	n/a	n/a	1	0	0
1034.9146	1	81	n/a	n/a	1	0	0
1035.1146	1	81	n/a	n/a	1	0	0
1035.3146	1	81	n/a	n/a	1	0	0
1035.5146	1	81	n/a	n/a	1	0	0
1035.7148	1	81	n/a	n/a	1	0	0
1035.9148	1	81	n/a	n/a	1	0	0
1036.1148	1	81	n/a	n/a	1	0	0
1036.3146	1	81	n/a	n/a	1	0	0
1036.5146	1	81	n/a	n/a	1	0	0
1037.7472	1	10	n/a	n/a	1	50	1
1038.8804	1	21	n/a	n/a	1	50	0
1039.9304	1	10	n/a	n/a	1	50	1
1041.047	1	10	n/a	n/a	1	50	2
1042.1636	1	10	n/a	n/a	1	50	3
1043.3634	1	10	n/a	n/a	1	50	4
1044.5968	1	10	n/a	n/a	1	50	5
1045.8466	1	10	n/a	n/a	1	50	6
1047.03	1	10	n/a	n/a	1	50	7
1048.2132	1	21	n/a	n/a	1	50	0
1049.4132	1	10	n/a	n/a	1	50	1
1050.463	1	10	n/a	n/a	1	50	2
1051.663	1	10	n/a	n/a	1	50	3
1052.8962	1	10	n/a	n/a	1	50	4
1054.1296	1	10	n/a	n/a	1	50	5
1055.3794	1	10	n/a	n/a	1	50	6
1056.5294	1	10	n/a	n/a	1	50	7
1057.6794	1	21	n/a	n/a	1	50	0
1058.8126	1	10	n/a	n/a	1	50	1
1059.9458	1	21	n/a	n/a	1	50	0
1061.0426	1	81	n/a	n/a	1	0	0
1061.2426	1	81	n/a	n/a	1	0	0
1061.4426	1	81	n/a	n/a	1	0	0
1061.6426	1	81	n/a	n/a	1	0	0
1061.8426	1	81	n/a	n/a	1	0	0
1062.0426	1	81	n/a	n/a	1	0	0
1062.2426	1	81	n/a	n/a	1	0	0
1062.4426	1	81	n/a	n/a	1	0	0
1062.6426	1	81	n/a	n/a	1	0	0
1062.8426	1	81	n/a	n/a	1	0	0
1064.029	1	10	n/a	n/a	1	50	1
1065.1122	1	10	n/a	n/a	1	50	2
1066.3454	1	10	n/a	n/a	1	50	3
1067.6454	1	10	n/a	n/a	1	50	4
1068.7286	1	10	n/a	n/a	1	50	5
1069.7952	1	10	n/a	n/a	1	50	6
1071.0952	1	10	n/a	n/a	1	50	7
1072.3952	1	21	n/a	n/a	1	50	0
1073.495	1	10	n/a	n/a	1	50	1
1074.595	1	21	n/a	n/a	1	50	0
1075.8116	1	10	n/a	n/a	1	50	1
1077.0782	1	10	n/a	n/a	1	50	2
1078.3448	1	10	n/a	n/a	1	50	3
1079.4114	1	10	n/a	n/a	1	50	4
1080.4614	1	10	n/a	n/a	1	50	5
1081.6112	1	10	n/a	n/a	1	50	6
1082.6946	1	10	n/a	n/a	1	50	7
1083.7778	1	21	n/a	n/a	1	50	0
1084.961	1	10	n/a	n/a	1	50	1
1086.111	1	10	n/a	n/a	1	50	2
1087.1054	1	81	n/a	n/a	1	0	0
1087.3054	1	81	n/a	n/a	1	0	0
1087.5054	1	81	n/a	n/a	1	0	0
1087.7054	1	81	n/a	n/a	1	0	0
1087.9054	1	81	n/a	n/a	1	0	0
1088.1054	1	81	n/a	n/a	1	0	0
1088.3054	1	81	n/a	n/a	1	0	0
1088.5054	1	81	n/a	n/a	1	0	0
1088.7054	1	81	n/a	n/a	1	0	0
1088.9054	1	81	n/a	n/a	1	0	0
1090.294	1	10	n/a	n/a	1	50	1
1091.494	1	10	n/a	n/a	1	50	2
1092.794	1	10	n/a	n/a	1	50	3
1094.1106	1	10	n/a	n/a	1	50	4
1095.2438	1	10	n/a	n/a	1	50	5
1096.377	1	21	n/a	n/a	1	50	0
1097.4436	1	10	n/a	n/a	1	50	1
1098.5102	1	21	n/a	n/a	1	50	0
1099.7436	1	10	n/a	n/a	1	50	1
1100.8768	1	10	n/a	n/a	1	50	2
1101.96	1	10	n/a	n/a	1	50	3
1103.0766	1	10	n/a	n/a	1	50	4
1104.3932	1	10	n/a	n/a	1	50	5
1105.7098	1	21	n/a	n/a	1	50	0
1106.9764	1	10	n/a	n/a	1	50	1
1108.293	1	10	n/a	n/a	1	50	2
1109.3264	1	10	n/a	n/a	1	50	3
1110.3596	1	21	n/a	n/a	1	50	0
1111.5928	1	10	n/a	n/a	1	50	1
1112.7094	1	10	n/a	n/a	1	50	2
1113.5458	1	81	n/a	n/a	1	0	0
1113.7458	1	81	n/a	n/a	1	0	0
1113.9458	1	81	n/a	n/a	1	0	0
1114.1458	1	81	n/a	n/a	1	0	0
1114.3458	1	81	n/a	n/a	1	0	0
1114.5458	1	81	n/a	n/a	1	0	0
1114.7458	1	81	n/a	n/a	1	0	0
1114.9458	1	81	n/a	n/a	1	0	0
1115.1458	1	81	n/a	n/a	1	0	0
1115.3458	1	81	n/a	n/a	1	0	0
1116.6258	1	10	n/a	n/a	1	50	1
1117.8092	1	21	n/a	n/a	1	50	0
1119.1424	1	10	n/a	n/a	1	50	1
1120.4756	1	21	n/a	n/a	1	50	0
1121.6756	1	10	n/a	n/a	1	50	1
1122.8088	1	10	n/a	n/a	1	50	2
1123.8754	1	10	n/a	n/a	1	50	3
1124.942	1	21	n/a	n/a	1	50	0
1126.0086	1	10	n/a	n/a	1	50	1
1127.3086	1	10	n/a	n/a	1	50	2
1128.4752	1	10	n/a	n/a	1	50	3
1129.6418	1	21	n/a	n/a	1	50	0
1130.675	1	10	n/a	n/a	1	50	1
1131.7584	1	10	n/a	n/a	1	50	2
1132.9416	1	10	n/a	n/a	1	50	3
1134.0248	1	10	n/a	n/a	1	50	4
1135.1582	1	10	n/a	n/a	1	50	5
1136.2914	1	21	n/a	n/a	1	50	0
1137.4246	1	10	n/a	n/a	1	50	1
1138.4914	1	10	n/a	n/a	1	50	2
1139.5708	1	81	n/a	n/a	1	0	0
1139.7708	1	81	n/a	n/a	1	0	0
1139.9706	1	81	n/a	n/a	1	0	0
1140.1706	1	81	n/a	n/a	1	0	0
1140.3706	1	81	n/a	n/a	1	0	0
1140.5708	1	81	n/a	n/a	1	0	0
1140.7708	1	81	n/a	n/a	1	0	0
1140.9708	1	81	n/a	n/a	1	0	0
1141.1708	1	81	n/a	n/a	1	0	0
1141.3708	1	81	n/a	n/a	1	0	0
1142.741	1	10	n/a	n/a	1	50	1
1143.891	1	10	n/a	n/a	1	50	2
1145.1076	1	10	n/a	n/a	1	50	3
1146.2908	1	10	n/a	n/a	1	50	4
1147.3408	1	10	n/a	n/a	1	50	5
1148.424	1	10	n/a	n/a	1	50	6
1149.524	1	10	n/a	n/a	1	50	7
1150.624	1	21	n/a	n/a	1	50	0
1151.6738	1	10	n/a	n/a	1	50	1
1152.9904	1	10	n/a	n/a	1	50	2
1154.0738	1	10	n/a	n/a	1	50	3
1155.2404	1	10	n/a	n/a	1	50	4
1156.3736	1	10	n/a	n/a	1	50	5
1157.4402	1	10	n/a	n/a	1	50	6
1158.7568	1	10	n/a	n/a	1	50	7
1160.0734	1	21	n/a	n/a	1	50	0
1161.3566	1	10	n/a	n/a	1	50	1
1162.6398	1	21	n/a	n/a	1	50	0
1163.7064	1	10	n/a	n/a	1	50	1
1164.7732	1	10	n/a	n/a	1	50	2
1188.006	1	82	n/a	n/a	1	0	0
1188.442	1	82	n/a	n/a	1	0	0
1188.497	1	82	n/a	n/a	1	0	0
1188.517	1	82	n/a	n/a	1	0	0
1188.67	1	82	n/a	n/a	1	0	0
1189.006	1	82	n/a	n/a	1	0	0
1189.037	1	82	n/a	n/a	1	0	0
1189.146	1	82	n/a	n/a	1	0	0
1189.349	1	82	n/a	n/a	1	0	0
1189.498	1	82	n/a	n/a	1	0	0
1191.0216	1	10	n/a	n/a	1	52	1
1192.1382	1	21	n/a	n/a	1	52	0
1193.2882	1	10	n/a	n/a	1	52	1
1194.4214	1	10	n/a	n/a	1	52	2
1195.6546	1	10	n/a	n/a	1	52	3
1196.8046	1	10	n/a	n/a	1	52	4
1198.0378	1	10	n/a	n/a	1	52	5
1199.2712	1	21	n/a	n/a	1	52	0
1200.3378	1	10	n/a	n/a	1	52	1
1201.4044	1	21	n/a	n/a	1	52	0
1202.6542	1	10	n/a	n/a	1	52	1
1203.9042	1	21	n/a	n/a	1	52	0
1205.104	1	10	n/a	n/a	1	52	1
1206.2874	1	10	n/a	n/a	1	52	2
1207.3372	1	10	n/a	n/a	1	52	3
1208.4372	1	10	n/a	n/a	1	52	4
1209.6038	1	10	n/a	n/a	1	52	5
1210.7704	1	21	n/a	n/a	1	52	0
1211.9536	1	10	n/a	n/a	1	52	1
1213.237	1	10	n/a	n/a	1	52	2
1214.3076	1	82	n/a	n/a	1	0	0
1214.4226	1	82	n/a	n/a	1	0	0
1214.5756	1	82	n/a	n/a	1	0	0
1214.9126	1	82	n/a	n/a	1	0	0
1214.9456	1	82	n/a	n/a	1	0	0
1215.3076	1	82	n/a	n/a	1	0	0
1215.4476	1	82	n/a	n/a	1	0	0
1215.6796	1	82	n/a	n/a	1	0	0
1215.7206	1	82	n/a	n/a	1	0	0
1215.8166	1	82	n/a	n/a	1	0	0
1217.42	1	10	n/a	n/a	1	52	1
1218.5366	1	10	n/a	n/a	1	52	2
1219.62	1	10	n/a	n/a	1	52	3
1220.7198	1	10	n/a	n/a	1	52	4
1221.9032	1	10	n/a	n/a	1	52	5
1223.0864	1	21	n/a	n/a	1	52	0
1224.1196	1	10	n/a	n/a	1	52	1
1225.2196	1	10	n/a	n/a	1	52	2
1226.4696	1	10	n/a	n/a	1	52	3
1227.6028	1	10	n/a	n/a	1	52	4
1228.7694	1	10	n/a	n/a	1	52	5
1229.9526	1	10	n/a	n/a	1	52	6
1230.986	1	10	n/a	n/a	1	52	7
1232.0192	1	21	n/a	n/a	1	52	0
1233.0524	1	10	n/a	n/a	1	52	1
1234.0858	1	21	n/a	n/a	1	52	0
1235.2524	1	10	n/a	n/a	1	52	1
1236.419	1	21	n/a	n/a	1	52	0
1237.6356	1	10	n/a	n/a	1	52	1
1238.8522	1	10	n/a	n/a	1	52	2
1239.9576	1	82	n/a	n/a	1	0	0
1240.2066	1	82	n/a	n/a	1	0	0
1240.3716	1	82	n/a	n/a	1	0	0
1240.5756	1	82	n/a	n/a	1	0	0
1240.8646	1	82	n/a	n/a	1	0	0
1240.9576	1	82	n/a	n/a	1	0	0
1241.1106	1	82	n/a	n/a	1	0	0
1241.4106	1	82	n/a	n/a	1	0	0
1241.7376	1	82	n/a	n/a	1	0	0
1241.7906	1	82	n/a	n/a	1	0	0
1243.0186	1	10	n/a	n/a	1	52	1
1244.2684	1	10	n/a	n/a	1	52	2
1245.485	1	10	n/a	n/a	1	52	3
1246.7016	1	21	n/a	n/a	1	52	0
1247.8182	1	10	n/a	n/a	1	52	1
1249.0182	1	10	n/a	n/a	1	52	2
1250.1014	1	10	n/a	n/a	1	52	3
1251.418	1	10	n/a	n/a	1	52	4
1252.7014	1	10	n/a	n/a	1	52	5
1253.9846	1	10	n/a	n/a	1	52	6
1255.0678	1	10	n/a	n/a	1	52	7
1256.1512	1	21	n/a	n/a	1	52	0
1257.251	1	10	n/a	n/a	1	52	1
1258.501	1	10	n/a	n/a	1	52	2
1259.6676	1	10	n/a	n/a	1	52	3
1260.7176	1	10	n/a	n/a	1	52	4
1261.8842	1	10	n/a	n/a	1	52	5
1263.0508	1	21	n/a	n/a	1	52	0
1264.084	1	10	n/a	n/a	1	52	1
1265.3006	1	10	n/a	n/a	1	52	2
1266.019	1	82	n/a	n/a	1	0	0
1266.346	1	82	n/a	n/a	1	0	0
1266.445	1	82	n/a	n/a	1	0	0
1266.623	1	82	n/a	n/a	1	0	0
1266.907	1	82	n/a	n/a	1	0	0
1267.019	1	82	n/a	n/a	1	0	0
1267.087	1	82	n/a	n/a	1	0	0
1267.241	1	82	n/a	n/a	1	0	0
1267.353	1	82	n/a	n/a	1	0	0
1267.607	1	82	n/a	n/a	1	0	0
1269.1504	1	10	n/a	n/a	1	52	1
1270.3836	1	10	n/a	n/a	1	52	2
1271.517	1	10	n/a	n/a	1	52	3
1272.6668	1	10	n/a	n/a	1	52	4
1273.7668	1	10	n/a	n/a	1	52	5
1274.8834	1	10	n/a	n/a	1	52	6
1276.05	1	10	n/a	n/a	1	52	7
1277.2166	1	21	n/a	n/a	1	52	0
1278.2666	1	10	n/a	n/a	1	52	1
1279.4998	1	10	n/a	n/a	1	52	2
1280.6664	1	10	n/a	n/a	1	52	3
1281.9664	1	10	n/a	n/a	1	52	4
1283.2662	1	10	n/a	n/a	1	52	5
1284.3828	1	10	n/a	n/a	1	52	6
1285.4328	1	10	n/a	n/a	1	52	7
1286.4828	1	21	n/a	n/a	1	52	0
1287.716	1	10	n/a	n/a	1	52	1
1288.9658	1	10	n/a	n/a	1	52	2
1290.0992	1	10	n/a	n/a	1	52	3
1291.1992	1	21	n/a	n/a	1	52	0
1292.0848	1	82	n/a	n/a	1	0	0
1292.4228	1	82	n/a	n/a	1	0	0
1292.6708	1	82	n/a	n/a	1	0	0
1292.7968	1	82	n/a	n/a	1	0	0
1292.9678	1	82	n/a	n/a	1	0	0
1293.0858	1	82	n/a	n/a	1	0	0
1293.4458	1	82	n/a	n/a	1	0	0
1293.5588	1	82	n/a	n/a	1	0	0
1293.6978	1	82	n/a	n/a	1	0	0
1293.8588	1	82	n/a	n/a	1	0	0
1295.0988	1	10	n/a	n/a	1	52	1
1296.2154	1	10	n/a	n/a	1	52	2
1297.532	1	10	n/a	n/a	1	52	3
1298.682	1	10	n/a	n/a	1	52	4
1299.882	1	10	n/a	n/a	1	52	5
1301.0818	1	21	n/a	n/a	1	52	0
1302.2318	1	10	n/a	n/a	1	52	1
1303.3818	1	10	n/a	n/a	1	52	2
1304.6984	1	10	n/a	n/a	1	52	3
1306.015	1	21	n/a	n/a	1	52	0
1307.0816	1	10	n/a	n/a	1	52	1
1308.2982	1	10	n/a	n/a	1	52	2
1309.5814	1	10	n/a	n/a	1	52	3
1310.7146	1	10	n/a	n/a	1	52	4
1311.948	1	10	n/a	n/a	1	52	5
1313.1812	1	21	n/a	n/a	1	52	0
1314.3144	1	10	n/a	n/a	1	52	1
1315.481	1	10	n/a	n/a	1	52	2
1316.5644	1	10	n/a	n/a	1	52	3
1317.8476	1	10	n/a	n/a	1	52	4
1400.0378	1	81	n/a	n/a	1	0	0
1400.2378	1	81	n/a	n/a	1	0	0
1400.4378	1	81	n/a	n/a	1	0	0
1400.6378	1	81	n/a	n/a	1	0	0
1400.8378	1	81	n/a	n/a	1	0	0
1401.0378	1	81	n/a	n/a	1	0	0
1401.2378	1	81	n/a	n/a	1	0	0
1401.4378	1	81	n/a	n/a	1	0	0
1401.6378	1	81	n/a	n/a	1	0	0
1401.8378	1	81	n/a	n/a	1	0	0
1402.976	1	10	n/a	n/a	1	51	1
1404.0092	1	10	n/a	n/a	1	51	2
1405.2258	1	10	n/a	n/a	1	51	3
1406.4924	1	10	n/a	n/a	1	51	4
1407.6924	1	10	n/a	n/a	1	51	5
1408.8922	1	21	n/a	n/a	1	51	0
1410.2088	1	10	n/a	n/a	1	51	1
1411.3422	1	10	n/a	n/a	1	51	2
1412.6254	1	10	n/a	n/a	1	51	3
1413.9086	1	21	n/a	n/a	1	51	0
1415.2252	1	10	n/a	n/a	1	51	1
1416.3086	1	10	n/a	n/a	1	51	2
1417.6252	1	10	n/a	n/a	1	51	3
1418.7918	1	10	n/a	n/a	1	51	4
1420.075	1	10	n/a	n/a	1	51	5
1421.1416	1	10	n/a	n/a	1	51	6
1422.3748	1	10	n/a	n/a	1	51	7
1423.608	1	21	n/a	n/a	1	51	0
1424.7914	1	10	n/a	n/a	1	51	1
1425.908	1	10	n/a	n/a	1	51	2
1426.9294	1	81	n/a	n/a	1	0	0
1427.1294	1	81	n/a	n/a	1	0	0
1427.3294	1	81	n/a	n/a	1	0	0
1427.5294	1	81	n/a	n/a	1	0	0
1427.7294	1	81	n/a	n/a	1	0	0
1427.9294	1	81	n/a	n/a	1	0	0
1428.1294	1	81	n/a	n/a	1	0	0
1428.3294	1	81	n/a	n/a	1	0	0
1428.5294	1	81	n/a	n/a	1	0	0
1428.7294	1	81	n/a	n/a	1	0	0
1430.041	1	10	n/a	n/a	1	51	1
1431.0744	1	10	n/a	n/a	1	51	2
1432.3742	1	10	n/a	n/a	1	51	3
1433.6742	1	21	n/a	n/a	1	51	0
1434.9908	1	10	n/a	n/a	1	51	1
1436.274	1	10	n/a	n/a	1	51	2
1437.4572	1	10	n/a	n/a	1	51	3
1438.6406	1	21	n/a	n/a	1	51	0
1439.9072	1	10	n/a	n/a	1	51	1
1441.157	1	10	n/a	n/a	1	51	2
1442.257	1	10	n/a	n/a	1	51	3
1443.4236	1	10	n/a	n/a	1	51	4
1444.4902	1	10	n/a	n/a	1	51	5
1445.5568	1	21	n/a	n/a	1	51	0
1446.6734	1	10	n/a	n/a	1	51	1
1447.9066	1	10	n/a	n/a	1	51	2
1449.2232	1	10	n/a	n/a	1	51	3
1450.4398	1	10	n/a	n/a	1	51	4
1451.5564	1	10	n/a	n/a	1	51	5
1452.8564	1	10	n/a	n/a	1	51	6
1453.6238	1	81	n/a	n/a	1	0	0
1453.8238	1	81	n/a	n/a	1	0	0
1454.0238	1	81	n/a	n/a	1	0	0
1454.2238	1	81	n/a	n/a	1	0	0
1454.4238	1	81	n/a	n/a	1	0	0
1454.6238	1	81	n/a	n/a	1	0	0
1454.8238	1	81	n/a	n/a	1	0	0
1455.0238	1	81	n/a	n/a	1	0	0
1455.2238	1	81	n/a	n/a	1	0	0
1455.4238	1	81	n/a	n/a	1	0	0
1456.5896	1	10	n/a	n/a	1	51	1
1457.6562	1	10	n/a	n/a	1	51	2
1458.9728	1	10	n/a	n/a	1	51	3
1460.156	1	10	n/a	n/a	1	51	4
1461.4726	1	10	n/a	n/a	1	51	5
1462.7892	1	21	n/a	n/a	1	51	0
1463.9724	1	10	n/a	n/a	1	51	1
1465.2224	1	10	n/a	n/a	1	51	2
1466.4222	1	10	n/a	n/a	1	51	3
1467.7388	1	10	n/a	n/a	1	51	4
1468.8722	1	10	n/a	n/a	1	51	5
1470.0054	1	21	n/a	n/a	1	51	0
1471.0886	1	10	n/a	n/a	1	51	1
1472.1552	1	10	n/a	n/a	1	51	2
1473.2552	1	10	n/a	n/a	1	51	3
1474.4552	1	10	n/a	n/a	1	51	4
1475.6718	1	10	n/a	n/a	1	51	5
1476.7216	1	10	n/a	n/a	1	51	6
1477.9216	1	10	n/a	n/a	1	51	7
1479.1216	1	21	n/a	n/a	1	51	0
1479.9472	1	81	n/a	n/a	1	0	0
1480.1472	1	81	n/a	n/a	1	0	0
1480.3472	1	81	n/a	n/a	1	0	0
1480.5472	1	81	n/a	n/a	1	0	0
1480.7472	1	81	n/a	n/a	1	0	0
1480.9472	1	81	n/a	n/a	1	0	0
1481.1472	1	81	n/a	n/a	1	0	0
1481.3472	1	81	n/a	n/a	1	0	0
1481.5472	1	81	n/a	n/a	1	0	0
1481.7472	1	81	n/a	n/a	1	0	0
1483.1214	1	10	n/a	n/a	1	51	1
1484.1712	1	10	n/a	n/a	1	51	2
1485.2878	1	10	n/a	n/a	1	51	3
1486.3544	1	10	n/a	n/a	1	51	4
1487.421	1	10	n/a	n/a	1	51	5
1488.4876	1	21	n/a	n/a	1	51	0
1489.6042	1	10	n/a	n/a	1	51	1
1490.8708	1	10	n/a	n/a	1	51	2
1492.1874	1	10	n/a	n/a	1	51	3
1493.304	1	10	n/a	n/a	1	51	4
1494.604	1	10	n/a	n/a	1	51	5
1495.9038	1	21	n/a	n/a	1	51	0
1497.2204	1	10	n/a	n/a	1	51	1
1498.537	1	21	n/a	n/a	1	51	0
1499.7536	1	10	n/a	n/a	1	51	1
1500.9702	1	21	n/a	n/a	1	51	0
1502.1368	1	10	n/a	n/a	1	51	1
1503.3034	1	21	n/a	n/a	1	51	0
1504.4034	1	10	n/a	n/a	1	51	1
1505.6534	1	10	n/a	n/a	1	51	2
1506.5958	1	81	n/a	n/a	1	0	0
1506.7958	1	81	n/a	n/a	1	0	0
1506.9958	1	81	n/a	n/a	1	0	0
1507.1958	1	81	n/a	n/a	1	0	0
1507.3958	1	81	n/a	n/a	1	0	0
1507.5958	1	81	n/a	n/a	1	0	0
1507.7958	1	81	n/a	n/a	1	0	0
1507.9958	1	81	n/a	n/a	1	0	0
1508.1958	1	81	n/a	n/a	1	0	0
1508.3958	1	81	n/a	n/a	1	0	0
1509.6032	1	10	n/a	n/a	1	51	1
1510.6698	1	10	n/a	n/a	1	51	2
1511.853	1	10	n/a	n/a	1	51	3
1513.003	1	10	n/a	n/a	1	51	4
1514.2362	1	10	n/a	n/a	1	51	5
1515.4694	1	21	n/a	n/a	1	51	0
1516.7194	1	10	n/a	n/a	1	51	1
1517.9192	1	10	n/a	n/a	1	51	2
1519.0526	1	10	n/a	n/a	1	51	3
1520.2192	1	10	n/a	n/a	1	51	4
1521.319	1	10	n/a	n/a	1	51	5
1522.6356	1	10	n/a	n/a	1	51	6
1523.669	1	10	n/a	n/a	1	51	7
1524.7022	1	21	n/a	n/a	1	51	0
1526.0188	1	10	n/a	n/a	1	51	1
1527.3354	1	21	n/a	n/a	1	51	0
1528.6186	1	10	n/a	n/a	1	51	1
1529.852	1	10	n/a	n/a	1	51	2
1531.0352	1	10	n/a	n/a	1	51	3
1532.2518	1	10	n/a	n/a	1	51	4
1542.5246	1	82	n/a	n/a	1	0	0
1542.9176	1	82	n/a	n/a	1	0	0
1543.2226	1	82	n/a	n/a	1	0	0
1543.3286	1	82	n/a	n/a	1	0	0
1543.4626	1	82	n/a	n/a	1	0	0
1543.5246	1	82	n/a	n/a	1	0	0
1543.8456	1	82	n/a	n/a	1	0	0
1543.9926	1	82	n/a	n/a	1	0	0
1544.0836	1	82	n/a	n/a	1	0	0
1544.3406	1	82	n/a	n/a	1	0	0
1545.6844	1	10	n/a	n/a	1	50	1
1546.7676	1	10	n/a	n/a	1	50	2
1548.0842	1	10	n/a	n/a	1	50	3
1549.3508	1	10	n/a	n/a	1	50	4
1550.6174	1	10	n/a	n/a	1	50	5
1551.884	1	21	n/a	n/a	1	50	0
1553.184	1	10	n/a	n/a	1	50	1
1554.2338	1	10	n/a	n/a	1	50	2
1555.3504	1	10	n/a	n/a	1	50	3
1556.617	1	10	n/a	n/a	1	50	4
1557.7504	1	10	n/a	n/a	1	50	5
1558.8836	1	21	n/a	n/a	1	50	0
1560.0002	1	10	n/a	n/a	1	50	1
1561.3002	1	10	n/a	n/a	1	50	2
1562.4668	1	10	n/a	n/a	1	50	3
1563.6334	1	21	n/a	n/a	1	50	0
1564.9332	1	10	n/a	n/a	1	50	1
1566.0998	1	10	n/a	n/a	1	50	2
1567.1998	1	10	n/a	n/a	1	50	3
1568.4996	1	10	n/a	n/a	1	50	4
1569.4822	1	82	n/a	n/a	1	0	0
1569.7312	1	82	n/a	n/a	1	0	0
1569.8532	1	82	n/a	n/a	1	0	0
1570.1722	1	82	n/a	n/a	1	0	0
1570.2072	1	82	n/a	n/a	1	0	0
1570.4822	1	82	n/a	n/a	1	0	0
1570.6042	1	82	n/a	n/a	1	0	0
1570.9642	1	82	n/a	n/a	1	0	0
1571.3902	1	82	n/a	n/a	1	0	0
1571.4162	1	82	n/a	n/a	1	0	0
1572.4828	1	10	n/a	n/a	1	50	1
1573.6994	1	10	n/a	n/a	1	50	2
1574.7994	1	10	n/a	n/a	1	50	3
1575.8992	1	21	n/a	n/a	1	50	0
1577.1658	1	10	n/a	n/a	1	50	1
1578.4158	1	10	n/a	n/a	1	50	2
1579.5824	1	10	n/a	n/a	1	50	3
1580.7324	1	10	n/a	n/a	1	50	4
1582.0322	1	10	n/a	n/a	1	50	5
1583.3322	1	21	n/a	n/a	1	50	0
1584.4988	1	10	n/a	n/a	1	50	1
1585.6654	1	10	n/a	n/a	1	50	2
1586.8152	1	10	n/a	n/a	1	50	3
1587.9818	1	10	n/a	n/a	1	50	4
1589.1818	1	10	n/a	n/a	1	50	5
1590.3818	1	21	n/a	n/a	1	50	0
1591.4484	1	10	n/a	n/a	1	50	1
1592.515	1	21	n/a	n/a	1	50	0
1593.7482	1	10	n/a	n/a	1	50	1
1595.0482	1	10	n/a	n/a	1	50	2
1596.0486	1	82	n/a	n/a	1	0	0
1596.1926	1	82	n/a	n/a	1	0	0
1596.2796	1	82	n/a	n/a	1	0	0
1596.5136	1	82	n/a	n/a	1	0	0
1596.8146	1	82	n/a	n/a	1	0	0
1597.0486	1	82	n/a	n/a	1	0	0
1597.2166	1	82	n/a	n/a	1	0	0
1597.3096	1	82	n/a	n/a	1	0	0
1597.3446	1	82	n/a	n/a	1	0	0
1597.4066	1	82	n/a	n/a	1	0	0
1599.1146	1	10	n/a	n/a	1	50	1
1600.2646	1	10	n/a	n/a	1	50	2
1601.3478	1	10	n/a	n/a	1	50	3
1602.431	1	21	n/a	n/a	1	50	0
1603.7144	1	10	n/a	n/a	1	50	1
1604.7476	1	10	n/a	n/a	1	50	2
1606.0308	1	10	n/a	n/a	1	50	3
1607.2142	1	10	n/a	n/a	1	50	4
1608.2474	1	10	n/a	n/a	1	50	5
1609.5306	1	10	n/a	n/a	1	50	6
1610.7806	1	10	n/a	n/a	1	50	7
1612.0306	1	21	n/a	n/a	1	50	0
1613.1304	1	10	n/a	n/a	1	50	1
1614.4136	1	10	n/a	n/a	1	50	2
1615.497	1	10	n/a	n/a	1	50	3
1616.5302	1	10	n/a	n/a	1	50	4
1617.8134	1	10	n/a	n/a	1	50	5
1619.0968	1	21	n/a	n/a	1	50	0
1620.38	1	10	n/a	n/a	1	50	1
1621.6132	1	10	n/a	n/a	1	50	2
1622.3388	1	82	n/a	n/a	1	0	0
1622.4158	1	82	n/a	n/a	1	0	0
1622.7638	1	82	n/a	n/a	1	0	0
1622.9998	1	82	n/a	n/a	1	0	0
1623.1348	1	82	n/a	n/a	1	0	0
1623.3388	1	82	n/a	n/a	1	0	0
1623.4648	1	82	n/a	n/a	1	0	0
1623.6378	1	82	n/a	n/a	1	0	0
1623.8878	1	82	n/a	n/a	1	0	0
1623.9568	1	82	n/a	n/a	1	0	0
1625.513	1	10	n/a	n/a	1	50	1
1626.663	1	10	n/a	n/a	1	50	2
1627.713	1	10	n/a	n/a	1	50	3
1629.0128	1	10	n/a	n/a	1	50	4
1630.2462	1	10	n/a	n/a	1	50	5
1631.496	1	21	n/a	n/a	1	50	0
1632.546	1	10	n/a	n/a	1	50	1
1633.6626	1	10	n/a	n/a	1	50	2
1634.9792	1	10	n/a	n/a	1	50	3
1636.0958	1	10	n/a	n/a	1	50	4
1637.3124	1	10	n/a	n/a	1	50	5
1638.529	1	21	n/a	n/a	1	50	0
1639.6288	1	10	n/a	n/a	1	50	1
1640.7622	1	10	n/a	n/a	1	50	2
1641.9954	1	10	n/a	n/a	1	50	3
1643.0788	1	10	n/a	n/a	1	50	4
1644.362	1	10	n/a	n/a	1	50	5
1645.6452	1	21	n/a	n/a	1	50	0
1646.7118	1	10	n/a	n/a	1	50	1
1647.995	1	10	n/a	n/a	1	50	2
1648.8316	1	82	n/a	n/a	1	0	0
1649.1006	1	82	n/a	n/a	1	0	0
1649.2096	1	82	n/a	n/a	1	0	0
1649.2596	1	82	n/a	n/a	1	0	0
1649.6136	1	82	n/a	n/a	1	0	0
1649.8316	1	82	n/a	n/a	1	0	0
1649.9366	1	82	n/a	n/a	1	0	0
1650.3286	1	82	n/a	n/a	1	0	0
1650.5336	1	82	n/a	n/a	1	0	0
1650.7906	1	82	n/a	n/a	1	0	0
1651.7782	1	10	n/a	n/a	1	50	1
1652.8282	1	10	n/a	n/a	1	50	2
1653.9114	1	10	n/a	n/a	1	50	3
1654.9946	1	21	n/a	n/a	1	50	0
1656.2446	1	10	n/a	n/a	1	50	1
1657.4946	1	21	n/a	n/a	1	50	0
1658.5778	1	10	n/a	n/a	1	50	1
1659.661	1	21	n/a	n/a	1	50	0
1660.8444	1	10	n/a	n/a	1	50	1
1662.1442	1	10	n/a	n/a	1	50	2
1663.1942	1	10	n/a	n/a	1	50	3
1664.2608	1	10	n/a	n/a	1	50	4
1665.294	1	10	n/a	n/a	1	50	5
1666.3274	1	21	n/a	n/a	1	50	0
1667.5772	1	10	n/a	n/a	1	50	1
1668.8438	1	10	n/a	n/a	1	50	2
1669.9104	1	10	n/a	n/a	1	50	3
1670.977	1	21	n/a	n/a	1	50	0
1672.2936	1	10	n/a	n/a	1	50	1
1673.377	1	10	n/a	n/a	1	50	2
1702.978	1	82	n/a	n/a	1	0	0
1703.041	1	82	n/a	n/a	1	0	0
1703.407	1	82	n/a	n/a	1	0	0
1703.572	1	82	n/a	n/a	1	0	0
1703.807	1	82	n/a	n/a	1	0	0
1703.978	1	82	n/a	n/a	1	0	0
1704.057	1	82	n/a	n/a	1	0	0
1704.223	1	82	n/a	n/a	1	0	0
1704.417	1	82	n/a	n/a	1	0	0
1704.663	1	82	n/a	n/a	1	0	0
1705.9084	1	10	n/a	n/a	1	52	1
1707.025	1	10	n/a	n/a	1	52	2
1708.0582	1	10	n/a	n/a	1	52	3
1709.1748	1	10	n/a	n/a	1	52	4
1710.3748	1	10	n/a	n/a	1	52	5
1711.4914	1	10	n/a	n/a	1	52	6
1712.5246	1	10	n/a	n/a	1	52	7
1713.558	1	21	n/a	n/a	1	52	0
1714.6746	1	10	n/a	n/a	1	52	1
1715.7912	1	21	n/a	n/a	1	52	0
1716.941	1	10	n/a	n/a	1	52	1
1718.0244	1	10	n/a	n/a	1	52	2
1719.0744	1	10	n/a	n/a	1	52	3
1720.1242	1	21	n/a	n/a	1	52	0
1721.2076	1	10	n/a	n/a	1	52	1
1722.2574	1	10	n/a	n/a	1	52	2
1723.5574	1	10	n/a	n/a	1	52	3
1724.8574	1	21	n/a	n/a	1	52	0
1726.0238	1	10	n/a	n/a	1	52	1
1727.1404	1	10	n/a	n/a	1	52	2
1727.917	1	82	n/a	n/a	1	0	0
1727.957	1	82	n/a	n/a	1	0	0
1728.062	1	82	n/a	n/a	1	0	0
1728.329	1	82	n/a	n/a	1	0	0
1728.553	1	82	n/a	n/a	1	0	0
1728.917	1	82	n/a	n/a	1	0	0
1729.234	1	82	n/a	n/a	1	0	0
1729.329	1	82	n/a	n/a	1	0	0
1729.452	1	82	n/a	n/a	1	0	0
1729.692	1	82	n/a	n/a	1	0	0
1730.9736	1	10	n/a	n/a	1	52	1
1732.1402	1	21	n/a	n/a	1	52	0
1733.3568	1	10	n/a	n/a	1	52	1
1734.5568	1	10	n/a	n/a	1	52	2
1735.6734	1	10	n/a	n/a	1	52	3
1736.79	1	21	n/a	n/a	1	52	0
1737.9898	1	10	n/a	n/a	1	52	1
1739.2398	1	10	n/a	n/a	1	52	2
1740.323	1	10	n/a	n/a	1	52	3
1741.4064	1	21	n/a	n/a	1	52	0
1742.573	1	10	n/a	n/a	1	52	1
1743.7396	1	21	n/a	n/a	1	52	0
1744.9894	1	10	n/a	n/a	1	52	1
1746.106	1	10	n/a	n/a	1	52	2
1747.3894	1	10	n/a	n/a	1	52	3
1748.556	1	10	n/a	n/a	1	52	4
1749.8226	1	10	n/a	n/a	1	52	5
1750.9558	1	10	n/a	n/a	1	52	6
1752.139	1	10	n/a	n/a	1	52	7
1753.3224	1	21	n/a	n/a	1	52	0
1754.16	1	82	n/a	n/a	1	0	0
1754.445	1	82	n/a	n/a	1	0	0
1754.704	1	82	n/a	n/a	1	0	0
1754.93	1	82	n/a	n/a	1	0	0
1755.059	1	82	n/a	n/a	1	0	0
1755.16	1	82	n/a	n/a	1	0	0
1755.449	1	82	n/a	n/a	1	0	0
1755.625	1	82	n/a	n/a	1	0	0
1755.724	1	82	n/a	n/a	1	0	0
1756.109	1	82	n/a	n/a	1	0	0
1757.1054	1	10	n/a	n/a	1	52	1
1758.2886	1	10	n/a	n/a	1	52	2
1759.5886	1	10	n/a	n/a	1	52	3
1760.7718	1	10	n/a	n/a	1	52	4
1761.8218	1	10	n/a	n/a	1	52	5
1762.955	1	10	n/a	n/a	1	52	6
1764.105	1	10	n/a	n/a	1	52	7
1765.255	1	21	n/a	n/a	1	52	0
1766.4048	1	10	n/a	n/a	1	52	1
1767.7048	1	10	n/a	n/a	1	52	2
1768.938	1	10	n/a	n/a	1	52	3
1770.2046	1	10	n/a	n/a	1	52	4
1771.4212	1	10	n/a	n/a	1	52	5
1772.6878	1	10	n/a	n/a	1	52	6
1773.9712	1	10	n/a	n/a	1	52	7
1775.2544	1	21	n/a	n/a	1	52	0
1776.3544	1	10	n/a	n/a	1	52	1
1777.671	1	10	n/a	n/a	1	52	2
1778.9874	1	10	n/a	n/a	1	52	3
1780.304	1	21	n/a	n/a	1	52	0
1781.0768	1	82	n/a	n/a	1	0	0
1781.2328	1	82	n/a	n/a	1	0	0
1781.5348	1	82	n/a	n/a	1	0	0
1781.6688	1	82	n/a	n/a	1	0	0
1781.7758	1	82	n/a	n/a	1	0	0
1782.0768	1	82	n/a	n/a	1	0	0
1782.1168	1	82	n/a	n/a	1	0	0
1782.1868	1	82	n/a	n/a	1	0	0
1782.3988	1	82	n/a	n/a	1	0	0
1782.6528	1	82	n/a	n/a	1	0	0
1784.2706	1	10	n/a	n/a	1	52	1
1785.5538	1	10	n/a	n/a	1	52	2
1786.637	1	10	n/a	n/a	1	52	3
1787.7204	1	21	n/a	n/a	1	52	0
1788.7536	1	10	n/a	n/a	1	52	1
1789.9368	1	10	n/a	n/a	1	52	2
1791.2368	1	10	n/a	n/a	1	52	3
1792.42	1	10	n/a	n/a	1	52	4
1793.7366	1	10	n/a	n/a	1	52	5
1795.0532	1	21	n/a	n/a	1	52	0
1796.2198	1	10	n/a	n/a	1	52	1
1797.2864	1	10	n/a	n/a	1	52	2
1798.4864	1	10	n/a	n/a	1	52	3
1799.5364	1	10	n/a	n/a	1	52	4
1800.5862	1	10	n/a	n/a	1	52	5
1801.6362	1	21	n/a	n/a	1	52	0
1802.8862	1	10	n/a	n/a	1	52	1
1804.0028	1	10	n/a	n/a	1	52	2
1805.1694	1	10	n/a	n/a	1	52	3
1806.3526	1	10	n/a	n/a	1	52	4
1807.077	1	82	n/a	n/a	1	0	0
1807.124	1	82	n/a	n/a	1	0	0
1807.528	1	82	n/a	n/a	1	0	0
1807.813	1	82	n/a	n/a	1	0	0
1807.938	1	82	n/a	n/a	1	0	0
1808.077	1	82	n/a	n/a	1	0	0
1808.186	1	82	n/a	n/a	1	0	0
1808.52	1	82	n/a	n/a	1	0	0
1808.943	1	82	n/a	n/a	1	0	0
1809.002	1	82	n/a	n/a	1	0	0
1810.0524	1	10	n/a	n/a	1	52	1
1811.3356	1	10	n/a	n/a	1	52	2
1812.4356	1	10	n/a	n/a	1	52	3
1813.5188	1	10	n/a	n/a	1	52	4
1814.7854	1	10	n/a	n/a	1	52	5
1816.002	1	10	n/a	n/a	1	52	6
1817.1186	1	10	n/a	n/a	1	52	7
1818.2352	1	21	n/a	n/a	1	52	0
1819.5018	1	10	n/a	n/a	1	52	1
1820.7684	1	21	n/a	n/a	1	52	0
1821.935	1	10	n/a	n/a	1	52	1
1823.1016	1	21	n/a	n/a	1	52	0
1824.3182	1	10	n/a	n/a	1	52	1
1825.5348	1	21	n/a	n/a	1	52	0
1826.6348	1	10	n/a	n/a	1	52	1
1827.7346	1	10	n/a	n/a	1	52	2
1829.068	1	10	n/a	n/a	1	52	3
1830.4012	1	21	n/a	n/a	1	52	0
1831.5844	1	10	n/a	n/a	1	52	1
1832.6178	1	10	n/a	n/a	1	52	2
1980.3352	1	81	n/a	n/a	1	0	0
1980.5352	1	81	n/a	n/a	1	0	0
1980.7352	1	81	n/a	n/a	1	0	0
1980.9352	1	81	n/a	n/a	1	0	0
1981.1352	1	81	n/a	n/a	1	0	0
1981.3352	1	81	n/a	n/a	1	0	0
1981.5352	1	81	n/a	n/a	1	0	0
1981.7352	1	81	n/a	n/a	1	0	0
1981.9352	1	81	n/a	n/a	1	0	0
1982.1352	1	81	n/a	n/a	1	0	0
1983.259	1	10	n/a	n/a	1	51	1
1984.309	1	10	n/a	n/a	1	51	2
1985.3922	1	10	n/a	n/a	1	51	3
1986.4754	1	21	n/a	n/a	1	51	0
1987.542	1	10	n/a	n/a	1	51	1
1988.742	1	10	n/a	n/a	1	51	2
1990.0086	1	10	n/a	n/a	1	51	3
1991.2752	1	21	n/a	n/a	1	51	0
1992.4918	1	10	n/a	n/a	1	51	1
1993.725	1	10	n/a	n/a	1	51	2
1994.9584	1	10	n/a	n/a	1	51	3
1996.1916	1	21	n/a	n/a	1	51	0
1997.4082	1	10	n/a	n/a	1	51	1
1998.6248	1	21	n/a	n/a	1	51	0
1999.7914	1	10	n/a	n/a	1	51	1
2000.958	1	21	n/a	n/a	1	51	0
2002.1246	1	10	n/a	n/a	1	51	1
2003.2078	1	10	n/a	n/a	1	51	2
2004.4578	1	10	n/a	n/a	1	51	3
2005.5744	1	10	n/a	n/a	1	51	4
2006.4768	1	81	n/a	n/a	1	0	0
2006.6768	1	81	n/a	n/a	1	0	0
2006.8768	1	81	n/a	n/a	1	0	0
2007.0768	1	81	n/a	n/a	1	0	0
2007.2768	1	81	n/a	n/a	1	0	0
2007.4768	1	81	n/a	n/a	1	0	0
2007.6768	1	81	n/a	n/a	1	0	0
2007.8768	1	81	n/a	n/a	1	0	0
2008.0768	1	81	n/a	n/a	1	0	0
2008.2768	1	81	n/a	n/a	1	0	0
2009.6074	1	10	n/a	n/a	1	51	1
2010.8574	1	10	n/a	n/a	1	51	2
2012.0906	1	10	n/a	n/a	1	51	3
2013.324	1	21	n/a	n/a	1	51	0
2014.6238	1	10	n/a	n/a	1	51	1
2015.8738	1	10	n/a	n/a	1	51	2
2017.0904	1	10	n/a	n/a	1	51	3
2018.307	1	21	n/a	n/a	1	51	0
2019.5902	1	10	n/a	n/a	1	51	1
2020.8734	1	21	n/a	n/a	1	51	0
2022.0568	1	10	n/a	n/a	1	51	1
2023.24	1	21	n/a	n/a	1	51	0
2024.5066	1	10	n/a	n/a	1	51	1
2025.7232	1	10	n/a	n/a	1	51	2
2026.8564	1	10	n/a	n/a	1	51	3
2027.9898	1	21	n/a	n/a	1	51	0
2029.223	1	10	n/a	n/a	1	51	1
2030.4562	1	21	n/a	n/a	1	51	0
2031.7396	1	10	n/a	n/a	1	51	1
2032.8062	1	10	n/a	n/a	1	51	2
2033.9036	1	81	n/a	n/a	1	0	0
2034.1036	1	81	n/a	n/a	1	0	0
2034.3036	1	81	n/a	n/a	1	0	0
2034.5036	1	81	n/a	n/a	1	0	0
2034.7036	1	81	n/a	n/a	1	0	0
2034.9036	1	81	n/a	n/a	1	0	0
2035.1036	1	81	n/a	n/a	1	0	0
2035.3036	1	81	n/a	n/a	1	0	0
2035.5036	1	81	n/a	n/a	1	0	0
2035.7036	1	81	n/a	n/a	1	0	0
2036.9226	1	10	n/a	n/a	1	51	1
2038.0558	1	21	n/a	n/a	1	51	0
2039.1224	1	10	n/a	n/a	1	51	1
2040.2056	1	10	n/a	n/a	1	51	2
2041.4722	1	10	n/a	n/a	1	51	3
2042.7722	1	10	n/a	n/a	1	51	4
2044.0888	1	10	n/a	n/a	1	51	5
2045.4054	1	21	n/a	n/a	1	51	0
2046.5054	1	10	n/a	n/a	1	51	1
2047.6052	1	21	n/a	n/a	1	51	0
2048.6386	1	10	n/a	n/a	1	51	1
2049.6718	1	21	n/a	n/a	1	51	0
2050.7718	1	10	n/a	n/a	1	51	1
2051.8716	1	21	n/a	n/a	1	51	0
2053.1216	1	10	n/a	n/a	1	51	1
2054.1716	1	10	n/a	n/a	1	51	2
2055.4714	1	10	n/a	n/a	1	51	3
2056.7714	1	10	n/a	n/a	1	51	4
2058.088	1	10	n/a	n/a	1	51	5
2059.2212	1	10	n/a	n/a	1	51	6
2060.0056	1	81	n/a	n/a	1	0	0
2060.2056	1	81	n/a	n/a	1	0	0
2060.4056	1	81	n/a	n/a	1	0	0
2060.6056	1	81	n/a	n/a	1	0	0
2060.8056	1	81	n/a	n/a	1	0	0
2061.0056	1	81	n/a	n/a	1	0	0
2061.2056	1	81	n/a	n/a	1	0	0
2061.4056	1	81	n/a	n/a	1	0	0
2061.6056	1	81	n/a	n/a	1	0	0
2061.8056	1	81	n/a	n/a	1	0	0
2062.971	1	10	n/a	n/a	1	51	1
2064.1544	1	10	n/a	n/a	1	51	2
2065.2542	1	10	n/a	n/a	1	51	3
2066.3542	1	21	n/a	n/a	1	51	0
2067.5874	1	10	n/a	n/a	1	51	1
2068.8206	1	21	n/a	n/a	1	51	0
2069.854	1	10	n/a	n/a	1	51	1
2071.0538	1	10	n/a	n/a	1	51	2
2072.1872	1	10	n/a	n/a	1	51	3
2073.3038	1	10	n/a	n/a	1	51	4
2074.3538	1	10	n/a	n/a	1	51	5
2075.537	1	10	n/a	n/a	1	51	6
2076.7536	1	10	n/a	n/a	1	51	7
2077.9702	1	21	n/a	n/a	1	51	0
2079.0534	1	10	n/a	n/a	1	51	1
2080.1534	1	10	n/a	n/a	1	51	2
2081.37	1	10	n/a	n/a	1	51	3
2082.5866	1	21	n/a	n/a	1	51	0
2083.6698	1	10	n/a	n/a	1	51	1
2084.7198	1	10	n/a	n/a	1	51	2
2085.5882	1	81	n/a	n/a	1	0	0
2085.7882	1	81	n/a	n/a	1	0	0
2085.9882	1	81	n/a	n/a	1	0	0
2086.1882	1	81	n/a	n/a	1	0	0
2086.3882	1	81	n/a	n/a	1	0	0
2086.5882	1	81	n/a	n/a	1	0	0
2086.7882	1	81	n/a	n/a	1	0	0
2086.9882	1	81	n/a	n/a	1	0	0
2087.1882	1	81	n/a	n/a	1	0	0
2087.3882	1	81	n/a	n/a	1	0	0
2088.7696	1	10	n/a	n/a	1	51	1
2089.8362	1	10	n/a	n/a	1	51	2
2091.0694	1	10	n/a	n/a	1	51	3
2092.236	1	10	n/a	n/a	1	51	4
2093.5026	1	10	n/a	n/a	1	51	5
2094.5526	1	10	n/a	n/a	1	51	6
2095.6358	1	10	n/a	n/a	1	51	7
2096.719	1	21	n/a	n/a	1	51	0
2097.8524	1	10	n/a	n/a	1	51	1
2099.1022	1	10	n/a	n/a	1	51	2
2100.2188	1	10	n/a	n/a	1	51	3
2101.4522	1	10	n/a	n/a	1	51	4
2102.752	1	10	n/a	n/a	1	51	5
2103.9354	1	10	n/a	n/a	1	51	6
2104.9852	1	10	n/a	n/a	1	51	7
2106.0352	1	21	n/a	n/a	1	51	0
2107.0852	1	10	n/a	n/a	1	51	1
2108.135	1	10	n/a	n/a	1	51	2
2109.2684	1	10	n/a	n/a	1	51	3
2110.4016	1	21	n/a	n/a	1	51	0
2120.2608	1	81	n/a	n/a	1	0	0
2120.4608	1	81	n/a	n/a	1	0	0
2120.6608	1	81	n/a	n/a	1	0	0
2120.8608	1	81	n/a	n/a	1	0	0
2121.0608	1	81	n/a	n/a	1	0	0
2121.2608	1	81	n/a	n/a	1	0	0
2121.4608	1	81	n/a	n/a	1	0	0
2121.6608	1	81	n/a	n/a	1	0	0
2121.8608	1	81	n/a	n/a	1	0	0
2122.0608	1	81	n/a	n/a	1	0	0
2123.2342	1	10	n/a	n/a	1	50	1
2124.3342	1	21	n/a	n/a	1	50	0
2125.5674	1	10	n/a	n/a	1	50	1
2126.8006	1	21	n/a	n/a	1	50	0
2127.834	1	10	n/a	n/a	1	50	1
2128.8838	1	10	n/a	n/a	1	50	2
2130.0672	1	10	n/a	n/a	1	50	3
2131.217	1	10	n/a	n/a	1	50	4
2132.3336	1	10	n/a	n/a	1	50	5
2133.4502	1	21	n/a	n/a	1	50	0
2134.5002	1	10	n/a	n/a	1	50	1
2135.6668	1	10	n/a	n/a	1	50	2
2136.8334	1	10	n/a	n/a	1	50	3
2137.9	1	10	n/a	n/a	1	50	4
2138.9332	1	10	n/a	n/a	1	50	5
2140	1	10	n/a	n/a	1	50	6
2141.2998	1	10	n/a	n/a	1	50	7
2142.5998	1	21	n/a	n/a	1	50	0
2143.633	1	10	n/a	n/a	1	50	1
2144.6662	1	21	n/a	n/a	1	50	0
2145.519	1	81	n/a	n/a	1	0	0
2145.719	1	81	n/a	n/a	1	0	0
2145.919	1	81	n/a	n/a	1	0	0
2146.119	1	81	n/a	n/a	1	0	0
2146.319	1	81	n/a	n/a	1	0	0
2146.519	1	81	n/a	n/a	1	0	0
2146.719	1	81	n/a	n/a	1	0	0
2146.919	1	81	n/a	n/a	1	0	0
2147.119	1	81	n/a	n/a	1	0	0
2147.319	1	81	n/a	n/a	1	0	0
2148.5328	1	10	n/a	n/a	1	50	1
2149.6494	1	10	n/a	n/a	1	50	2
2150.7326	1	10	n/a	n/a	1	50	3
2151.8158	1	21	n/a	n/a	1	50	0
2152.8492	1	10	n/a	n/a	1	50	1
2154.1158	1	10	n/a	n/a	1	50	2
2155.2156	1	10	n/a	n/a	1	50	3
2156.4322	1	10	n/a	n/a	1	50	4
2157.4988	1	10	n/a	n/a	1	50	5
2158.5654	1	21	n/a	n/a	1	50	0
2159.7988	1	10	n/a	n/a	1	50	1
2161.0986	1	10	n/a	n/a	1	50	2
2162.2486	1	10	n/a	n/a	1	50	3
2163.4652	1	10	n/a	n/a	1	50	4
2164.5984	1	10	n/a	n/a	1	50	5
2165.7318	1	21	n/a	n/a	1	50	0
2166.965	1	10	n/a	n/a	1	50	1
2168.1982	1	10	n/a	n/a	1	50	2
2169.3982	1	10	n/a	n/a	1	50	3
2170.6148	1	10	n/a	n/a	1	50	4
2171.5832	1	81	n/a	n/a	1	0	0
2171.7832	1	81	n/a	n/a	1	0	0
2171.9832	1	81	n/a	n/a	1	0	0
2172.1832	1	81	n/a	n/a	1	0	0
2172.3832	1	81	n/a	n/a	1	0	0
2172.5832	1	81	n/a	n/a	1	0	0
2172.7832	1	81	n/a	n/a	1	0	0
2172.9832	1	81	n/a	n/a	1	0	0
2173.1832	1	81	n/a	n/a	1	0	0
2173.3832	1	81	n/a	n/a	1	0	0
2174.5812	1	10	n/a	n/a	1	50	1
2175.8478	1	10	n/a	n/a	1	50	2
2177.0644	1	10	n/a	n/a	1	50	3
2178.231	1	10	n/a	n/a	1	50	4
2179.5476	1	10	n/a	n/a	1	50	5
2180.8642	1	21	n/a	n/a	1	50	0
2182.1808	1	10	n/a	n/a	1	50	1
2183.2474	1	10	n/a	n/a	1	50	2
2184.3306	1	10	n/a	n/a	1	50	3
2185.6306	1	10	n/a	n/a	1	50	4
2186.8138	1	10	n/a	n/a	1	50	5
2188.0472	1	10	n/a	n/a	1	50	6
2189.2638	1	10	n/a	n/a	1	50	7
2190.4804	1	21	n/a	n/a	1	50	0
2191.547	1	10	n/a	n/a	1	50	1
2192.6136	1	21	n/a	n/a	1	50	0
2193.6468	1	10	n/a	n/a	1	50	1
2194.7634	1	10	n/a	n/a	1	50	2
2195.9134	1	10	n/a	n/a	1	50	3
2196.9966	1	10	n/a	n/a	1	50	4
2197.955	1	81	n/a	n/a	1	0	0
2198.155	1	81	n/a	n/a	1	0	0
2198.355	1	81	n/a	n/a	1	0	0
2198.555	1	81	n/a	n/a	1	0	0
2198.755	1	81	n/a	n/a	1	0	0
2198.955	1	81	n/a	n/a	1	0	0
2199.155	1	81	n/a	n/a	1	0	0
2199.355	1	81	n/a	n/a	1	0	0
2199.555	1	81	n/a	n/a	1	0	0
2199.755	1	81	n/a	n/a	1	0	0
2201.0964	1	10	n/a	n/a	1	50	1
2202.263	1	10	n/a	n/a	1	50	2
2203.4962	1	10	n/a	n/a	1	50	3
2204.5462	1	10	n/a	n/a	1	50	4
2205.696	1	10	n/a	n/a	1	50	5
2206.9794	1	10	n/a	n/a	1	50	6
2208.246	1	10	n/a	n/a	1	50	7
2209.5126	1	21	n/a	n/a	1	50	0
2210.6124	1	10	n/a	n/a	1	50	1
2211.8958	1	10	n/a	n/a	1	50	2
2213.029	1	10	n/a	n/a	1	50	3
2214.329	1	10	n/a	n/a	1	50	4
2215.3788	1	10	n/a	n/a	1	50	5
2216.4788	1	10	n/a	n/a	1	50	6
2217.612	1	10	n/a	n/a	1	50	7
2218.7454	1	21	n/a	n/a	1	50	0
2219.9952	1	10	n/a	n/a	1	50	1
2221.2452	1	21	n/a	n/a	1	50	0
2222.3952	1	10	n/a	n/a	1	50	1
2223.545	1	21	n/a	n/a	1	50	0
2224.6548	1	81	n/a	n/a	1	0	0
2224.8548	1	81	n/a	n/a	1	0	0
2225.0548	1	81	n/a	n/a	1	0	0
2225.2548	1	81	n/a	n/a	1	0	0
2225.4548	1	81	n/a	n/a	1	0	0
2225.6554	1	81	n/a	n/a	1	0	0
2225.8554	1	81	n/a	n/a	1	0	0
2226.0554	1	81	n/a	n/a	1	0	0
2226.2554	1	81	n/a	n/a	1	0	0
2226.4554	1	81	n/a	n/a	1	0	0
2227.8614	1	10	n/a	n/a	1	50	1
2228.9114	1	10	n/a	n/a	1	50	2
2230.1114	1	10	n/a	n/a	1	50	3
2231.2112	1	10	n/a	n/a	1	50	4
2232.3612	1	10	n/a	n/a	1	50	5
2233.5112	1	21	n/a	n/a	1	50	0
2234.811	1	10	n/a	n/a	1	50	1
2235.911	1	10	n/a	n/a	1	50	2
2237.0776	1	10	n/a	n/a	1	50	3
2238.3108	1	10	n/a	n/a	1	50	4
2239.4942	1	10	n/a	n/a	1	50	5
2240.6774	1	21	n/a	n/a	1	50	0
2241.7606	1	10	n/a	n/a	1	50	1
2242.9606	1	10	n/a	n/a	1	50	2
2244.1438	1	10	n/a	n/a	1	50	3
2245.2938	1	10	n/a	n/a	1	50	4
2246.377	1	10	n/a	n/a	1	50	5
2247.4604	1	21	n/a	n/a	1	50	0
2248.6936	1	10	n/a	n/a	1	50	1
2249.9268	1	21	n/a	n/a	1	50	0
2278.8416	1	82	n/a	n/a	1	0	0
2278.9016	1	82	n/a	n/a	1	0	0
2279.1776	1	82	n/a	n/a	1	0	0
2279.3086	1	82	n/a	n/a	1	0	0
2279.6896	1	82	n/a	n/a	1	0	0
2279.8416	1	82	n/a	n/a	1	0	0
2280.2736	1	82	n/a	n/a	1	0	0
2280.3876	1	82	n/a	n/a	1	0	0
2280.6156	1	82	n/a	n/a	1	0	0
2280.6736	1	82	n/a	n/a	1	0	0
2281.975	1	10	n/a	n/a	1	52	1
2283.2082	1	21	n/a	n/a	1	52	0
2284.3582	1	10	n/a	n/a	1	52	1
2285.5082	1	21	n/a	n/a	1	52	0
2286.5414	1	10	n/a	n/a	1	52	1
2287.708	1	10	n/a	n/a	1	52	2
2288.7412	1	10	n/a	n/a	1	52	3
2289.7746	1	21	n/a	n/a	1	52	0
2291.0578	1	10	n/a	n/a	1	52	1
2292.091	1	10	n/a	n/a	1	52	2
2293.341	1	10	n/a	n/a	1	52	3
2294.4576	1	10	n/a	n/a	1	52	4
2295.7242	1	10	n/a	n/a	1	52	5
2296.8908	1	10	n/a	n/a	1	52	6
2298.174	1	10	n/a	n/a	1	52	7
2299.4574	1	21	n/a	n/a	1	52	0
2300.524	1	10	n/a	n/a	1	52	1
2301.5906	1	21	n/a	n/a	1	52	0
2302.9072	1	10	n/a	n/a	1	52	1
2303.9738	1	10	n/a	n/a	1	52	2
2304.7502	1	82	n/a	n/a	1	0	0
2304.9952	1	82	n/a	n/a	1	0	0
2305.0232	1	82	n/a	n/a	1	0	0
2305.3642	1	82	n/a	n/a	1	0	0
2305.5012	1	82	n/a	n/a	1	0	0
2305.7502	1	82	n/a	n/a	1	0	0
2305.8472	1	82	n/a	n/a	1	0	0
2306.1792	1	82	n/a	n/a	1	0	0
2306.2232	1	82	n/a	n/a	1	0	0
2306.6562	1	82	n/a	n/a	1	0	0
2307.8736	1	10	n/a	n/a	1	52	1
2309.0568	1	10	n/a	n/a	1	52	2
2310.2568	1	10	n/a	n/a	1	52	3
2311.4566	1	21	n/a	n/a	1	52	0
2312.6732	1	10	n/a	n/a	1	52	1
2313.7398	1	10	n/a	n/a	1	52	2
2314.8232	1	10	n/a	n/a	1	52	3
2315.9398	1	10	n/a	n/a	1	52	4
2317.1064	1	10	n/a	n/a	1	52	5
2318.273	1	21	n/a	n/a	1	52	0
2319.5728	1	10	n/a	n/a	1	52	1
2320.8894	1	21	n/a	n/a	1	52	0
2322.0394	1	10	n/a	n/a	1	52	1
2323.206	1	10	n/a	n/a	1	52	2
2324.5226	1	10	n/a	n/a	1	52	3
2325.6892	1	10	n/a	n/a	1	52	4
2326.8724	1	10	n/a	n/a	1	52	5
2328.189	1	10	n/a	n/a	1	52	6
2329.3722	1	10	n/a	n/a	1	52	7
2330.5556	1	21	n/a	n/a	1	52	0
2331.4192	1	82	n/a	n/a	1	0	0
2331.5272	1	82	n/a	n/a	1	0	0
2331.6762	1	82	n/a	n/a	1	0	0
2331.8632	1	82	n/a	n/a	1	0	0
2331.9312	1	82	n/a	n/a	1	0	0
2332.4192	1	82	n/a	n/a	1	0	0
2332.4392	1	82	n/a	n/a	1	0	0
2332.5332	1	82	n/a	n/a	1	0	0
2332.7402	1	82	n/a	n/a	1	0	0
2333.0372	1	82	n/a	n/a	1	0	0
2334.372	1	10	n/a	n/a	1	52	1
2335.6886	1	10	n/a	n/a	1	52	2
2336.7552	1	10	n/a	n/a	1	52	3
2337.9718	1	10	n/a	n/a	1	52	4
2339.1716	1	10	n/a	n/a	1	52	5
2340.3716	1	21	n/a	n/a	1	52	0
2341.5548	1	10	n/a	n/a	1	52	1
2342.6382	1	10	n/a	n/a	1	52	2
2343.7214	1	10	n/a	n/a	1	52	3
2344.9546	1	10	n/a	n/a	1	52	4
2346.088	1	10	n/a	n/a	1	52	5
2347.2378	1	10	n/a	n/a	1	52	6
2348.4378	1	10	n/a	n/a	1	52	7
2349.6378	1	21	n/a	n/a	1	52	0
2350.8376	1	10	n/a	n/a	1	52	1
2352.0376	1	21	n/a	n/a	1	52	0
2353.3208	1	10	n/a	n/a	1	52	1
2354.6042	1	21	n/a	n/a	1	52	0
2355.8208	1	10	n/a	n/a	1	52	1
2357.0706	1	10	n/a	n/a	1	52	2
2357.8502	1	82	n/a	n/a	1	0	0
2358.0872	1	82	n/a	n/a	1	0	0
2358.1652	1	82	n/a	n/a	1	0	0
2358.5452	1	82	n/a	n/a	1	0	0
2358.6672	1	82	n/a	n/a	1	0	0
2358.8502	1	82	n/a	n/a	1	0	0
2359.1642	1	82	n/a	n/a	1	0	0
2359.4022	1	82	n/a	n/a	1	0	0
2359.4262	1	82	n/a	n/a	1	0	0
2359.7012	1	82	n/a	n/a	1	0	0
2361.037	1	10	n/a	n/a	1	52	1
2362.337	1	21	n/a	n/a	1	52	0
2363.537	1	10	n/a	n/a	1	52	1
2364.6536	1	10	n/a	n/a	1	52	2
2365.7868	1	10	n/a	n/a	1	52	3
2366.97	1	10	n/a	n/a	1	52	4
2368.27	1	10	n/a	n/a	1	52	5
2369.3032	1	10	n/a	n/a	1	52	6
2370.4532	1	10	n/a	n/a	1	52	7
2371.6032	1	21	n/a	n/a	1	52	0
2372.7864	1	10	n/a	n/a	1	52	1
2374.0196	1	10	n/a	n/a	1	52	2
2375.0696	1	10	n/a	n/a	1	52	3
2376.1196	1	21	n/a	n/a	1	52	0
2377.2862	1	10	n/a	n/a	1	52	1
2378.386	1	10	n/a	n/a	1	52	2
2379.7026	1	10	n/a	n/a	1	52	3
2381.0192	1	21	n/a	n/a	1	52	0
2382.2026	1	10	n/a	n/a	1	52	1
2383.3024	1	10	n/a	n/a	1	52	2
2384.1498	1	82	n/a	n/a	1	0	0
2384.1788	1	82	n/a	n/a	1	0	0
2384.5558	1	82	n/a	n/a	1	0	0
2384.6258	1	82	n/a	n/a	1	0	0
2384.7688	1	82	n/a	n/a	1	0	0
2385.15	1	82	n/a	n/a	1	0	0
2385.535	1	82	n/a	n/a	1	0	0
2385.63	1	82	n/a	n/a	1	0	0
2385.701	1	82	n/a	n/a	1	0	0
2385.7368	1	82	n/a	n/a	1	0	0
2387.3022	1	10	n/a	n/a	1	52	1
2388.5688	1	21	n/a	n/a	1	52	0
2389.802	1	10	n/a	n/a	1	52	1
2391.102	1	10	n/a	n/a	1	52	2
2392.1352	1	10	n/a	n/a	1	52	3
2393.4186	1	10	n/a	n/a	1	52	4
2394.6184	1	10	n/a	n/a	1	52	5
2395.8518	1	10	n/a	n/a	1	52	6
2397.1184	1	10	n/a	n/a	1	52	7
2398.385	1	21	n/a	n/a	1	52	0
2399.5848	1	10	n/a	n/a	1	52	1
2400.7848	1	21	n/a	n/a	1	52	0
2401.968	1	10	n/a	n/a	1	52	1
2403.268	1	10	n/a	n/a	1	52	2
2404.3846	1	10	n/a	n/a	1	52	3
2405.6512	1	10	n/a	n/a	1	52	4
2406.901	1	10	n/a	n/a	1	52	5
2408.151	1	21	n/a	n/a	1	52	0
2409.2842	1	10	n/a	n/a	1	52	1
2410.5176	1	10	n/a	n/a	1	52	2
