onset	duration	value	response	rt	good	TMS	seq
95.4398	1	81	n/a	n/a	1	0	0
95.6398	1	81	n/a	n/a	1	0	0
95.8398	1	81	n/a	n/a	1	0	0
96.0396	1	81	n/a	n/a	1	0	0
96.2396	1	81	n/a	n/a	1	0	0
96.4398	1	81	n/a	n/a	1	0	0
96.6398	1	81	n/a	n/a	1	0	0
96.8398	1	81	n/a	n/a	1	0	0
97.0398	1	81	n/a	n/a	1	0	0
97.2398	1	81	n/a	n/a	1	0	0
98.3938	1	10	n/a	n/a	1	52	1
99.5604	1	10	n/a	n/a	1	52	2
100.5936	1	10	n/a	n/a	1	52	3
101.6436	1	10	n/a	n/a	1	52	4
102.9602	1	10	n/a	n/a	1	52	5
104.2602	1	10	n/a	n/a	1	52	6
105.4934	1	10	n/a	n/a	1	52	7
106.7266	1	21	n/a	n/a	1	52	0
107.76	1	10	n/a	n/a	1	52	1
109.0266	1	10	n/a	n/a	1	52	2
110.2432	1	10	n/a	n/a	1	52	3
111.3598	1	10	n/a	n/a	1	52	4
112.6264	1	10	n/a	n/a	1	52	5
113.893	1	21	n/a	n/a	1	52	0
115.1094	1	10	n/a	n/a	1	52	1
116.2928	1	10	n/a	n/a	1	52	2
117.4926	1	10	n/a	n/a	1	52	3
118.5426	1	10	n/a	n/a	1	52	4
119.576	1	10	n/a	n/a	1	52	5
120.8258	1	10	n/a	n/a	1	52	6
121.5612	1	81	n/a	n/a	1	0	0
121.7612	1	81	n/a	n/a	1	0	0
121.9612	1	81	n/a	n/a	1	0	0
122.1612	1	81	n/a	n/a	1	0	0
122.3612	1	81	n/a	n/a	1	0	0
122.5612	1	81	n/a	n/a	1	0	0
122.7612	1	81	n/a	n/a	1	0	0
122.9612	1	81	n/a	n/a	1	0	0
123.1612	1	81	n/a	n/a	1	0	0
123.3612	1	81	n/a	n/a	1	0	0
124.5922	1	10	n/a	n/a	1	52	1
125.7256	1	21	n/a	n/a	1	52	0
126.8088	1	10	n/a	n/a	1	52	1
128.0754	1	10	n/a	n/a	1	52	2
129.2254	1	10	n/a	n/a	1	52	3
130.342	1	10	n/a	n/a	1	52	4
131.5586	1	10	n/a	n/a	1	52	5
132.7752	1	21	n/a	n/a	1	52	0
133.9084	1	10	n/a	n/a	1	52	1
135.0584	1	10	n/a	n/a	1	52	2
136.1082	1	10	n/a	n/a	1	52	3
137.1416	1	10	n/a	n/a	1	52	4
138.3914	1	10	n/a	n/a	1	52	5
139.6414	1	21	n/a	n/a	1	52	0
140.7414	1	10	n/a	n/a	1	52	1
141.908	1	10	n/a	n/a	1	52	2
143.2246	1	10	n/a	n/a	1	52	3
144.541	1	21	n/a	n/a	1	52	0
145.741	1	10	n/a	n/a	1	52	1
146.941	1	10	n/a	n/a	1	52	2
147.6954	1	81	n/a	n/a	1	0	0
147.8954	1	81	n/a	n/a	1	0	0
148.0954	1	81	n/a	n/a	1	0	0
148.2954	1	81	n/a	n/a	1	0	0
148.4954	1	81	n/a	n/a	1	0	0
148.6954	1	81	n/a	n/a	1	0	0
148.8954	1	81	n/a	n/a	1	0	0
149.0954	1	81	n/a	n/a	1	0	0
149.2954	1	81	n/a	n/a	1	0	0
149.4954	1	81	n/a	n/a	1	0	0
150.7908	1	10	n/a	n/a	1	52	1
152.0074	1	10	n/a	n/a	1	52	2
153.2572	1	10	n/a	n/a	1	52	3
154.5072	1	21	n/a	n/a	1	52	0
155.6238	1	10	n/a	n/a	1	52	1
156.757	1	10	n/a	n/a	1	52	2
157.957	1	10	n/a	n/a	1	52	3
159.1236	1	10	n/a	n/a	1	52	4
160.3402	1	10	n/a	n/a	1	52	5
161.5234	1	10	n/a	n/a	1	52	6
162.59	1	10	n/a	n/a	1	52	7
163.6566	1	21	n/a	n/a	1	52	0
164.79	1	10	n/a	n/a	1	52	1
165.9232	1	21	n/a	n/a	1	52	0
167.2064	1	10	n/a	n/a	1	52	1
168.523	1	10	n/a	n/a	1	52	2
169.573	1	10	n/a	n/a	1	52	3
170.6228	1	21	n/a	n/a	1	52	0
171.7894	1	10	n/a	n/a	1	52	1
172.8728	1	10	n/a	n/a	1	52	2
173.6692	1	81	n/a	n/a	1	0	0
173.8692	1	81	n/a	n/a	1	0	0
174.0692	1	81	n/a	n/a	1	0	0
174.2692	1	81	n/a	n/a	1	0	0
174.4692	1	81	n/a	n/a	1	0	0
174.6692	1	81	n/a	n/a	1	0	0
174.8692	1	81	n/a	n/a	1	0	0
175.0692	1	81	n/a	n/a	1	0	0
175.2692	1	81	n/a	n/a	1	0	0
175.4692	1	81	n/a	n/a	1	0	0
176.6558	1	10	n/a	n/a	1	52	1
177.9892	1	10	n/a	n/a	1	52	2
179.2724	1	10	n/a	n/a	1	52	3
180.5224	1	10	n/a	n/a	1	52	4
181.7722	1	10	n/a	n/a	1	52	5
183.0222	1	21	n/a	n/a	1	52	0
184.222	1	10	n/a	n/a	1	52	1
185.4054	1	10	n/a	n/a	1	52	2
186.6052	1	10	n/a	n/a	1	52	3
187.8052	1	21	n/a	n/a	1	52	0
188.8718	1	10	n/a	n/a	1	52	1
190.105	1	10	n/a	n/a	1	52	2
191.355	1	10	n/a	n/a	1	52	3
192.6382	1	10	n/a	n/a	1	52	4
193.9548	1	10	n/a	n/a	1	52	5
195.2548	1	10	n/a	n/a	1	52	6
196.5546	1	10	n/a	n/a	1	52	7
197.8546	1	21	n/a	n/a	1	52	0
198.9712	1	10	n/a	n/a	1	52	1
200.1378	1	10	n/a	n/a	1	52	2
200.8822	1	81	n/a	n/a	1	0	0
201.0822	1	81	n/a	n/a	1	0	0
201.2822	1	81	n/a	n/a	1	0	0
201.4822	1	81	n/a	n/a	1	0	0
201.6822	1	81	n/a	n/a	1	0	0
201.8822	1	81	n/a	n/a	1	0	0
202.0822	1	81	n/a	n/a	1	0	0
202.2822	1	81	n/a	n/a	1	0	0
202.4822	1	81	n/a	n/a	1	0	0
202.6822	1	81	n/a	n/a	1	0	0
203.9042	1	10	n/a	n/a	1	52	1
205.1042	1	10	n/a	n/a	1	52	2
206.1708	1	10	n/a	n/a	1	52	3
207.304	1	10	n/a	n/a	1	52	4
208.6206	1	10	n/a	n/a	1	52	5
209.9372	1	21	n/a	n/a	1	52	0
211.2204	1	10	n/a	n/a	1	52	1
212.4538	1	10	n/a	n/a	1	52	2
213.7704	1	10	n/a	n/a	1	52	3
214.887	1	10	n/a	n/a	1	52	4
216.0536	1	10	n/a	n/a	1	52	5
217.2202	1	21	n/a	n/a	1	52	0
218.3868	1	10	n/a	n/a	1	52	1
219.6866	1	10	n/a	n/a	1	52	2
220.72	1	10	n/a	n/a	1	52	3
221.7698	1	10	n/a	n/a	1	52	4
222.9698	1	10	n/a	n/a	1	52	5
224.1698	1	21	n/a	n/a	1	52	0
225.4196	1	10	n/a	n/a	1	52	1
226.6696	1	21	n/a	n/a	1	52	0
244.145	1	82	n/a	n/a	1	0	0
244.442	1	82	n/a	n/a	1	0	0
244.491	1	82	n/a	n/a	1	0	0
244.65	1	82	n/a	n/a	1	0	0
244.779	1	82	n/a	n/a	1	0	0
245.145	1	82	n/a	n/a	1	0	0
245.283	1	82	n/a	n/a	1	0	0
245.392	1	82	n/a	n/a	1	0	0
245.461	1	82	n/a	n/a	1	0	0
245.892	1	82	n/a	n/a	1	0	0
247.2018	1	10	n/a	n/a	1	50	1
248.3684	1	21	n/a	n/a	1	50	0
249.5182	1	10	n/a	n/a	1	50	1
250.5682	1	10	n/a	n/a	1	50	2
251.8348	1	10	n/a	n/a	1	50	3
253.1014	1	21	n/a	n/a	1	50	0
254.3012	1	10	n/a	n/a	1	50	1
255.5178	1	10	n/a	n/a	1	50	2
256.7678	1	10	n/a	n/a	1	50	3
258.001	1	10	n/a	n/a	1	50	4
259.0844	1	10	n/a	n/a	1	50	5
260.1676	1	21	n/a	n/a	1	50	0
261.4176	1	10	n/a	n/a	1	50	1
262.7174	1	10	n/a	n/a	1	50	2
263.9508	1	10	n/a	n/a	1	50	3
265.184	1	21	n/a	n/a	1	50	0
266.4006	1	10	n/a	n/a	1	50	1
267.5006	1	10	n/a	n/a	1	50	2
268.5838	1	10	n/a	n/a	1	50	3
269.667	1	21	n/a	n/a	1	50	0
270.4778	1	82	n/a	n/a	1	0	0
270.6008	1	82	n/a	n/a	1	0	0
270.8578	1	82	n/a	n/a	1	0	0
271.0668	1	82	n/a	n/a	1	0	0
271.3958	1	82	n/a	n/a	1	0	0
271.4778	1	82	n/a	n/a	1	0	0
271.5848	1	82	n/a	n/a	1	0	0
271.7318	1	82	n/a	n/a	1	0	0
271.9478	1	82	n/a	n/a	1	0	0
272.0208	1	82	n/a	n/a	1	0	0
273.6168	1	10	n/a	n/a	1	50	1
274.7168	1	10	n/a	n/a	1	50	2
275.8	1	10	n/a	n/a	1	50	3
276.8832	1	21	n/a	n/a	1	50	0
278.0332	1	10	n/a	n/a	1	50	1
279.0664	1	10	n/a	n/a	1	50	2
280.383	1	10	n/a	n/a	1	50	3
281.6996	1	21	n/a	n/a	1	50	0
282.8496	1	10	n/a	n/a	1	50	1
283.9162	1	10	n/a	n/a	1	50	2
285.0496	1	10	n/a	n/a	1	50	3
286.1828	1	21	n/a	n/a	1	50	0
287.2326	1	10	n/a	n/a	1	50	1
288.5492	1	10	n/a	n/a	1	50	2
289.8158	1	10	n/a	n/a	1	50	3
291.0824	1	21	n/a	n/a	1	50	0
292.1824	1	10	n/a	n/a	1	50	1
293.3656	1	10	n/a	n/a	1	50	2
294.499	1	10	n/a	n/a	1	50	3
295.6322	1	21	n/a	n/a	1	50	0
296.5076	1	82	n/a	n/a	1	0	0
296.8936	1	82	n/a	n/a	1	0	0
297.1406	1	82	n/a	n/a	1	0	0
297.1956	1	82	n/a	n/a	1	0	0
297.3216	1	82	n/a	n/a	1	0	0
297.5076	1	82	n/a	n/a	1	0	0
297.8036	1	82	n/a	n/a	1	0	0
297.9396	1	82	n/a	n/a	1	0	0
297.9746	1	82	n/a	n/a	1	0	0
298.3036	1	82	n/a	n/a	1	0	0
299.4986	1	10	n/a	n/a	1	50	1
300.5986	1	21	n/a	n/a	1	50	0
301.6318	1	10	n/a	n/a	1	50	1
302.6652	1	10	n/a	n/a	1	50	2
303.865	1	10	n/a	n/a	1	50	3
305.015	1	10	n/a	n/a	1	50	4
306.165	1	10	n/a	n/a	1	50	5
307.3148	1	21	n/a	n/a	1	50	0
308.5148	1	10	n/a	n/a	1	50	1
309.798	1	10	n/a	n/a	1	50	2
310.848	1	10	n/a	n/a	1	50	3
312.1146	1	10	n/a	n/a	1	50	4
313.1812	1	10	n/a	n/a	1	50	5
314.2478	1	21	n/a	n/a	1	50	0
315.3644	1	10	n/a	n/a	1	50	1
316.5976	1	10	n/a	n/a	1	50	2
317.7142	1	10	n/a	n/a	1	50	3
318.7642	1	10	n/a	n/a	1	50	4
319.9974	1	10	n/a	n/a	1	50	5
321.1306	1	10	n/a	n/a	1	50	6
322.0292	1	82	n/a	n/a	1	0	0
322.2732	1	82	n/a	n/a	1	0	0
322.3042	1	82	n/a	n/a	1	0	0
322.5162	1	82	n/a	n/a	1	0	0
322.6242	1	82	n/a	n/a	1	0	0
323.0292	1	82	n/a	n/a	1	0	0
323.3992	1	82	n/a	n/a	1	0	0
323.5082	1	82	n/a	n/a	1	0	0
323.7132	1	82	n/a	n/a	1	0	0
323.9872	1	82	n/a	n/a	1	0	0
325.1304	1	10	n/a	n/a	1	50	1
326.4138	1	10	n/a	n/a	1	50	2
327.597	1	10	n/a	n/a	1	50	3
328.6636	1	10	n/a	n/a	1	50	4
329.7136	1	10	n/a	n/a	1	50	5
330.8802	1	10	n/a	n/a	1	50	6
331.93	1	10	n/a	n/a	1	50	7
332.98	1	21	n/a	n/a	1	50	0
334.28	1	10	n/a	n/a	1	50	1
335.5798	1	21	n/a	n/a	1	50	0
336.7798	1	10	n/a	n/a	1	50	1
337.9796	1	21	n/a	n/a	1	50	0
339.013	1	10	n/a	n/a	1	50	1
340.1296	1	10	n/a	n/a	1	50	2
341.2128	1	10	n/a	n/a	1	50	3
342.296	1	21	n/a	n/a	1	50	0
343.5126	1	10	n/a	n/a	1	50	1
344.596	1	10	n/a	n/a	1	50	2
345.7958	1	10	n/a	n/a	1	50	3
347.0458	1	10	n/a	n/a	1	50	4
347.7994	1	82	n/a	n/a	1	0	0
348.0634	1	82	n/a	n/a	1	0	0
348.1694	1	82	n/a	n/a	1	0	0
348.2144	1	82	n/a	n/a	1	0	0
348.3704	1	82	n/a	n/a	1	0	0
348.7994	1	82	n/a	n/a	1	0	0
349.0824	1	82	n/a	n/a	1	0	0
349.3094	1	82	n/a	n/a	1	0	0
349.4564	1	82	n/a	n/a	1	0	0
349.5524	1	82	n/a	n/a	1	0	0
351.029	1	10	n/a	n/a	1	50	1
352.3622	1	21	n/a	n/a	1	50	0
353.5788	1	10	n/a	n/a	1	50	1
354.7954	1	10	n/a	n/a	1	50	2
355.912	1	10	n/a	n/a	1	50	3
357.1786	1	10	n/a	n/a	1	50	4
358.2952	1	10	n/a	n/a	1	50	5
359.4118	1	10	n/a	n/a	1	50	6
360.6284	1	10	n/a	n/a	1	50	7
361.845	1	21	n/a	n/a	1	50	0
362.9448	1	10	n/a	n/a	1	50	1
364.2448	1	10	n/a	n/a	1	50	2
365.428	1	10	n/a	n/a	1	50	3
366.6614	1	10	n/a	n/a	1	50	4
367.8946	1	10	n/a	n/a	1	50	5
369.1112	1	10	n/a	n/a	1	50	6
370.3112	1	10	n/a	n/a	1	50	7
371.511	1	21	n/a	n/a	1	50	0
372.6944	1	10	n/a	n/a	1	50	1
373.8776	1	21	n/a	n/a	1	50	0
407.9176	1	82	n/a	n/a	1	0	0
407.9426	1	82	n/a	n/a	1	0	0
408.2226	1	82	n/a	n/a	1	0	0
408.3566	1	82	n/a	n/a	1	0	0
408.6626	1	82	n/a	n/a	1	0	0
408.9176	1	82	n/a	n/a	1	0	0
408.9686	1	82	n/a	n/a	1	0	0
409.0836	1	82	n/a	n/a	1	0	0
409.4746	1	82	n/a	n/a	1	0	0
409.7886	1	82	n/a	n/a	1	0	0
410.892	1	10	n/a	n/a	1	51	1
412.192	1	10	n/a	n/a	1	51	2
413.2252	1	10	n/a	n/a	1	51	3
414.3586	1	10	n/a	n/a	1	51	4
415.5918	1	10	n/a	n/a	1	51	5
416.825	1	21	n/a	n/a	1	51	0
417.9916	1	10	n/a	n/a	1	51	1
419.1582	1	10	n/a	n/a	1	51	2
420.4414	1	10	n/a	n/a	1	51	3
421.508	1	10	n/a	n/a	1	51	4
422.6914	1	10	n/a	n/a	1	51	5
423.808	1	10	n/a	n/a	1	51	6
424.9578	1	10	n/a	n/a	1	51	7
426.1078	1	21	n/a	n/a	1	51	0
427.4078	1	10	n/a	n/a	1	51	1
428.5576	1	10	n/a	n/a	1	51	2
429.8576	1	10	n/a	n/a	1	51	3
430.9742	1	10	n/a	n/a	1	51	4
432.1074	1	10	n/a	n/a	1	51	5
433.2408	1	21	n/a	n/a	1	51	0
434.3094	1	82	n/a	n/a	1	0	0
434.5784	1	82	n/a	n/a	1	0	0
434.9314	1	82	n/a	n/a	1	0	0
435.1494	1	82	n/a	n/a	1	0	0
435.2704	1	82	n/a	n/a	1	0	0
435.3102	1	82	n/a	n/a	1	0	0
435.6822	1	82	n/a	n/a	1	0	0
435.9572	1	82	n/a	n/a	1	0	0
436.0872	1	82	n/a	n/a	1	0	0
436.1502	1	82	n/a	n/a	1	0	0
437.2572	1	10	n/a	n/a	1	51	1
438.2904	1	10	n/a	n/a	1	51	2
439.5738	1	10	n/a	n/a	1	51	3
440.6736	1	10	n/a	n/a	1	51	4
441.9568	1	10	n/a	n/a	1	51	5
443.0902	1	10	n/a	n/a	1	51	6
444.3068	1	10	n/a	n/a	1	51	7
445.5234	1	21	n/a	n/a	1	51	0
446.7732	1	10	n/a	n/a	1	51	1
448.0232	1	21	n/a	n/a	1	51	0
449.1732	1	10	n/a	n/a	1	51	1
450.2564	1	10	n/a	n/a	1	51	2
451.373	1	10	n/a	n/a	1	51	3
452.673	1	10	n/a	n/a	1	51	4
453.7896	1	10	n/a	n/a	1	51	5
454.8228	1	10	n/a	n/a	1	51	6
456.006	1	10	n/a	n/a	1	51	7
457.1894	1	21	n/a	n/a	1	51	0
458.2392	1	10	n/a	n/a	1	51	1
459.5726	1	10	n/a	n/a	1	51	2
460.3298	1	82	n/a	n/a	1	0	0
460.6588	1	82	n/a	n/a	1	0	0
460.8158	1	82	n/a	n/a	1	0	0
461.0228	1	82	n/a	n/a	1	0	0
461.2848	1	82	n/a	n/a	1	0	0
461.33	1	82	n/a	n/a	1	0	0
461.49	1	82	n/a	n/a	1	0	0
461.878	1	82	n/a	n/a	1	0	0
461.904	1	82	n/a	n/a	1	0	0
462.002	1	82	n/a	n/a	1	0	0
463.4722	1	10	n/a	n/a	1	51	1
464.5888	1	10	n/a	n/a	1	51	2
465.7722	1	10	n/a	n/a	1	51	3
466.9554	1	21	n/a	n/a	1	51	0
468.172	1	10	n/a	n/a	1	51	1
469.3386	1	10	n/a	n/a	1	51	2
470.5552	1	10	n/a	n/a	1	51	3
471.8718	1	10	n/a	n/a	1	51	4
472.9718	1	10	n/a	n/a	1	51	5
474.055	1	10	n/a	n/a	1	51	6
475.255	1	10	n/a	n/a	1	51	7
476.4548	1	21	n/a	n/a	1	51	0
477.5548	1	10	n/a	n/a	1	51	1
478.8548	1	10	n/a	n/a	1	51	2
480.0546	1	10	n/a	n/a	1	51	3
481.3212	1	10	n/a	n/a	1	51	4
482.5378	1	10	n/a	n/a	1	51	5
483.7544	1	21	n/a	n/a	1	51	0
484.8876	1	10	n/a	n/a	1	51	1
486.021	1	21	n/a	n/a	1	51	0
487.1036	1	82	n/a	n/a	1	0	0
487.3786	1	82	n/a	n/a	1	0	0
487.6326	1	82	n/a	n/a	1	0	0
487.6756	1	82	n/a	n/a	1	0	0
487.9796	1	82	n/a	n/a	1	0	0
488.1046	1	82	n/a	n/a	1	0	0
488.4576	1	82	n/a	n/a	1	0	0
488.6176	1	82	n/a	n/a	1	0	0
488.6406	1	82	n/a	n/a	1	0	0
488.7426	1	82	n/a	n/a	1	0	0
490.1874	1	10	n/a	n/a	1	51	1
491.4874	1	10	n/a	n/a	1	51	2
492.6872	1	10	n/a	n/a	1	51	3
493.9872	1	10	n/a	n/a	1	51	4
495.1704	1	10	n/a	n/a	1	51	5
496.3538	1	21	n/a	n/a	1	51	0
497.537	1	10	n/a	n/a	1	51	1
498.7536	1	10	n/a	n/a	1	51	2
499.8202	1	10	n/a	n/a	1	51	3
500.8868	1	10	n/a	n/a	1	51	4
501.9366	1	10	n/a	n/a	1	51	5
503.0532	1	10	n/a	n/a	1	51	6
504.2366	1	10	n/a	n/a	1	51	7
505.4198	1	21	n/a	n/a	1	51	0
506.4864	1	10	n/a	n/a	1	51	1
507.553	1	21	n/a	n/a	1	51	0
508.7862	1	10	n/a	n/a	1	51	1
509.9528	1	10	n/a	n/a	1	51	2
511.1362	1	10	n/a	n/a	1	51	3
512.386	1	10	n/a	n/a	1	51	4
513.3806	1	82	n/a	n/a	1	0	0
513.6156	1	82	n/a	n/a	1	0	0
513.7266	1	82	n/a	n/a	1	0	0
513.8586	1	82	n/a	n/a	1	0	0
514.0126	1	82	n/a	n/a	1	0	0
514.3806	1	82	n/a	n/a	1	0	0
514.5166	1	82	n/a	n/a	1	0	0
514.6286	1	82	n/a	n/a	1	0	0
514.9456	1	82	n/a	n/a	1	0	0
514.9686	1	82	n/a	n/a	1	0	0
516.4192	1	10	n/a	n/a	1	51	1
517.6358	1	10	n/a	n/a	1	51	2
518.9524	1	10	n/a	n/a	1	51	3
520.2022	1	10	n/a	n/a	1	51	4
521.5022	1	10	n/a	n/a	1	51	5
522.8022	1	10	n/a	n/a	1	51	6
523.852	1	10	n/a	n/a	1	51	7
524.902	1	21	n/a	n/a	1	51	0
526.052	1	10	n/a	n/a	1	51	1
527.1686	1	10	n/a	n/a	1	51	2
528.4352	1	10	n/a	n/a	1	51	3
529.635	1	10	n/a	n/a	1	51	4
530.835	1	10	n/a	n/a	1	51	5
532.0516	1	10	n/a	n/a	1	51	6
533.3348	1	10	n/a	n/a	1	51	7
534.618	1	21	n/a	n/a	1	51	0
535.718	1	10	n/a	n/a	1	51	1
536.818	1	21	n/a	n/a	1	51	0
538.0178	1	10	n/a	n/a	1	51	1
539.2344	1	21	n/a	n/a	1	51	0
690.7154	1	82	n/a	n/a	1	0	0
690.8642	1	82	n/a	n/a	1	0	0
690.9922	1	82	n/a	n/a	1	0	0
691.2712	1	82	n/a	n/a	1	0	0
691.5982	1	82	n/a	n/a	1	0	0
691.7154	1	82	n/a	n/a	1	0	0
692.0894	1	82	n/a	n/a	1	0	0
692.2414	1	82	n/a	n/a	1	0	0
692.5724	1	82	n/a	n/a	1	0	0
692.6634	1	82	n/a	n/a	1	0	0
693.6754	1	10	n/a	n/a	1	52	1
694.8754	1	10	n/a	n/a	1	52	2
696.1418	1	10	n/a	n/a	1	52	3
697.3084	1	10	n/a	n/a	1	52	4
698.475	1	10	n/a	n/a	1	52	5
699.6916	1	10	n/a	n/a	1	52	6
700.9582	1	10	n/a	n/a	1	52	7
702.2248	1	21	n/a	n/a	1	52	0
703.4914	1	10	n/a	n/a	1	52	1
704.5914	1	10	n/a	n/a	1	52	2
705.858	1	10	n/a	n/a	1	52	3
707.158	1	10	n/a	n/a	1	52	4
708.4246	1	10	n/a	n/a	1	52	5
709.6912	1	21	n/a	n/a	1	52	0
710.8576	1	10	n/a	n/a	1	52	1
711.891	1	10	n/a	n/a	1	52	2
713.2076	1	10	n/a	n/a	1	52	3
714.3908	1	10	n/a	n/a	1	52	4
715.574	1	10	n/a	n/a	1	52	5
716.7574	1	21	n/a	n/a	1	52	0
717.6348	1	82	n/a	n/a	1	0	0
717.9368	1	82	n/a	n/a	1	0	0
718.2618	1	82	n/a	n/a	1	0	0
718.4808	1	82	n/a	n/a	1	0	0
718.5598	1	82	n/a	n/a	1	0	0
718.6348	1	82	n/a	n/a	1	0	0
718.8808	1	82	n/a	n/a	1	0	0
719.1888	1	82	n/a	n/a	1	0	0
719.5598	1	82	n/a	n/a	1	0	0
719.5848	1	82	n/a	n/a	1	0	0
720.7904	1	10	n/a	n/a	1	52	1
721.9904	1	10	n/a	n/a	1	52	2
723.307	1	10	n/a	n/a	1	52	3
724.5068	1	10	n/a	n/a	1	52	4
725.7568	1	10	n/a	n/a	1	52	5
727.0734	1	10	n/a	n/a	1	52	6
728.2066	1	10	n/a	n/a	1	52	7
729.34	1	21	n/a	n/a	1	52	0
730.4066	1	10	n/a	n/a	1	52	1
731.4732	1	21	n/a	n/a	1	52	0
732.7564	1	10	n/a	n/a	1	52	1
733.8564	1	10	n/a	n/a	1	52	2
735.073	1	10	n/a	n/a	1	52	3
736.2896	1	21	n/a	n/a	1	52	0
737.3228	1	10	n/a	n/a	1	52	1
738.606	1	10	n/a	n/a	1	52	2
739.7726	1	10	n/a	n/a	1	52	3
740.9392	1	21	n/a	n/a	1	52	0
742.0726	1	10	n/a	n/a	1	52	1
743.3058	1	10	n/a	n/a	1	52	2
744.1482	1	82	n/a	n/a	1	0	0
744.2562	1	82	n/a	n/a	1	0	0
744.6762	1	82	n/a	n/a	1	0	0
744.7362	1	82	n/a	n/a	1	0	0
745.0702	1	82	n/a	n/a	1	0	0
745.1482	1	82	n/a	n/a	1	0	0
745.3882	1	82	n/a	n/a	1	0	0
745.6622	1	82	n/a	n/a	1	0	0
745.8692	1	82	n/a	n/a	1	0	0
745.9682	1	82	n/a	n/a	1	0	0
747.0888	1	10	n/a	n/a	1	52	1
748.2388	1	10	n/a	n/a	1	52	2
749.2888	1	10	n/a	n/a	1	52	3
750.3554	1	10	n/a	n/a	1	52	4
751.522	1	10	n/a	n/a	1	52	5
752.6886	1	21	n/a	n/a	1	52	0
753.8718	1	10	n/a	n/a	1	52	1
755.1218	1	10	n/a	n/a	1	52	2
756.205	1	10	n/a	n/a	1	52	3
757.2882	1	21	n/a	n/a	1	52	0
758.4882	1	10	n/a	n/a	1	52	1
759.6214	1	10	n/a	n/a	1	52	2
760.6714	1	10	n/a	n/a	1	52	3
761.7546	1	10	n/a	n/a	1	52	4
762.8546	1	10	n/a	n/a	1	52	5
763.9546	1	21	n/a	n/a	1	52	0
765.2212	1	10	n/a	n/a	1	52	1
766.2878	1	10	n/a	n/a	1	52	2
767.471	1	10	n/a	n/a	1	52	3
768.6542	1	21	n/a	n/a	1	52	0
769.6938	1	82	n/a	n/a	1	0	0
769.8088	1	82	n/a	n/a	1	0	0
769.9028	1	82	n/a	n/a	1	0	0
770.2898	1	82	n/a	n/a	1	0	0
770.4538	1	82	n/a	n/a	1	0	0
770.6938	1	82	n/a	n/a	1	0	0
770.7548	1	82	n/a	n/a	1	0	0
771.1098	1	82	n/a	n/a	1	0	0
771.5208	1	82	n/a	n/a	1	0	0
771.6088	1	82	n/a	n/a	1	0	0
772.704	1	10	n/a	n/a	1	52	1
773.7374	1	10	n/a	n/a	1	52	2
774.9872	1	10	n/a	n/a	1	52	3
776.2038	1	10	n/a	n/a	1	52	4
777.2872	1	10	n/a	n/a	1	52	5
778.5538	1	10	n/a	n/a	1	52	6
779.6204	1	10	n/a	n/a	1	52	7
780.687	1	21	n/a	n/a	1	52	0
781.9202	1	10	n/a	n/a	1	52	1
783.0202	1	10	n/a	n/a	1	52	2
784.32	1	10	n/a	n/a	1	52	3
785.6366	1	10	n/a	n/a	1	52	4
786.8032	1	10	n/a	n/a	1	52	5
787.9698	1	21	n/a	n/a	1	52	0
789.2198	1	10	n/a	n/a	1	52	1
790.3696	1	10	n/a	n/a	1	52	2
791.6862	1	10	n/a	n/a	1	52	3
793.0028	1	21	n/a	n/a	1	52	0
794.0528	1	10	n/a	n/a	1	52	1
795.2194	1	10	n/a	n/a	1	52	2
796.1638	1	82	n/a	n/a	1	0	0
796.1848	1	82	n/a	n/a	1	0	0
796.2918	1	82	n/a	n/a	1	0	0
796.5728	1	82	n/a	n/a	1	0	0
796.7478	1	82	n/a	n/a	1	0	0
797.1638	1	82	n/a	n/a	1	0	0
797.2248	1	82	n/a	n/a	1	0	0
797.3638	1	82	n/a	n/a	1	0	0
797.5578	1	82	n/a	n/a	1	0	0
797.7978	1	82	n/a	n/a	1	0	0
799.3024	1	10	n/a	n/a	1	52	1
800.619	1	10	n/a	n/a	1	52	2
801.869	1	10	n/a	n/a	1	52	3
802.919	1	10	n/a	n/a	1	52	4
804.1188	1	10	n/a	n/a	1	52	5
805.1854	1	10	n/a	n/a	1	52	6
806.3354	1	10	n/a	n/a	1	52	7
807.4854	1	21	n/a	n/a	1	52	0
808.552	1	10	n/a	n/a	1	52	1
809.8686	1	10	n/a	n/a	1	52	2
811.1352	1	10	n/a	n/a	1	52	3
812.2018	1	10	n/a	n/a	1	52	4
813.4684	1	10	n/a	n/a	1	52	5
814.735	1	21	n/a	n/a	1	52	0
815.9848	1	10	n/a	n/a	1	52	1
817.2014	1	10	n/a	n/a	1	52	2
818.3514	1	10	n/a	n/a	1	52	3
819.4846	1	10	n/a	n/a	1	52	4
820.7012	1	10	n/a	n/a	1	52	5
821.9178	1	21	n/a	n/a	1	52	0
831.881	1	81	n/a	n/a	1	0	0
832.081	1	81	n/a	n/a	1	0	0
832.281	1	81	n/a	n/a	1	0	0
832.481	1	81	n/a	n/a	1	0	0
832.681	1	81	n/a	n/a	1	0	0
832.881	1	81	n/a	n/a	1	0	0
833.081	1	81	n/a	n/a	1	0	0
833.281	1	81	n/a	n/a	1	0	0
833.481	1	81	n/a	n/a	1	0	0
833.681	1	81	n/a	n/a	1	0	0
835.1004	1	10	n/a	n/a	1	50	1
836.2502	1	10	n/a	n/a	1	50	2
837.3502	1	10	n/a	n/a	1	50	3
838.4836	1	10	n/a	n/a	1	50	4
839.7668	1	10	n/a	n/a	1	50	5
841.05	1	21	n/a	n/a	1	50	0
842.1832	1	10	n/a	n/a	1	50	1
843.3998	1	10	n/a	n/a	1	50	2
844.6832	1	10	n/a	n/a	1	50	3
845.7164	1	10	n/a	n/a	1	50	4
846.8496	1	10	n/a	n/a	1	50	5
848.033	1	10	n/a	n/a	1	50	6
849.1662	1	10	n/a	n/a	1	50	7
850.2994	1	21	n/a	n/a	1	50	0
851.466	1	10	n/a	n/a	1	50	1
852.7326	1	10	n/a	n/a	1	50	2
853.8826	1	10	n/a	n/a	1	50	3
855.0326	1	21	n/a	n/a	1	50	0
856.0658	1	10	n/a	n/a	1	50	1
857.349	1	10	n/a	n/a	1	50	2
858.1814	1	81	n/a	n/a	1	0	0
858.3814	1	81	n/a	n/a	1	0	0
858.5814	1	81	n/a	n/a	1	0	0
858.7814	1	81	n/a	n/a	1	0	0
858.9814	1	81	n/a	n/a	1	0	0
859.1814	1	81	n/a	n/a	1	0	0
859.3814	1	81	n/a	n/a	1	0	0
859.5814	1	81	n/a	n/a	1	0	0
859.7814	1	81	n/a	n/a	1	0	0
859.9814	1	81	n/a	n/a	1	0	0
861.3488	1	10	n/a	n/a	1	50	1
862.5488	1	10	n/a	n/a	1	50	2
863.632	1	10	n/a	n/a	1	50	3
864.7486	1	10	n/a	n/a	1	50	4
866.0652	1	10	n/a	n/a	1	50	5
867.3818	1	21	n/a	n/a	1	50	0
868.6818	1	10	n/a	n/a	1	50	1
869.8316	1	10	n/a	n/a	1	50	2
870.9482	1	10	n/a	n/a	1	50	3
872.2648	1	10	n/a	n/a	1	50	4
873.3982	1	10	n/a	n/a	1	50	5
874.5314	1	21	n/a	n/a	1	50	0
875.598	1	10	n/a	n/a	1	50	1
876.6646	1	21	n/a	n/a	1	50	0
877.7812	1	10	n/a	n/a	1	50	1
878.8312	1	10	n/a	n/a	1	50	2
879.9144	1	10	n/a	n/a	1	50	3
880.9976	1	21	n/a	n/a	1	50	0
882.281	1	10	n/a	n/a	1	50	1
883.4642	1	10	n/a	n/a	1	50	2
884.3196	1	81	n/a	n/a	1	0	0
884.5196	1	81	n/a	n/a	1	0	0
884.7196	1	81	n/a	n/a	1	0	0
884.9196	1	81	n/a	n/a	1	0	0
885.1196	1	81	n/a	n/a	1	0	0
885.3196	1	81	n/a	n/a	1	0	0
885.5196	1	81	n/a	n/a	1	0	0
885.7196	1	81	n/a	n/a	1	0	0
885.9196	1	81	n/a	n/a	1	0	0
886.1196	1	81	n/a	n/a	1	0	0
887.3472	1	10	n/a	n/a	1	50	1
888.6638	1	10	n/a	n/a	1	50	2
889.9472	1	10	n/a	n/a	1	50	3
891.2304	1	21	n/a	n/a	1	50	0
892.3136	1	10	n/a	n/a	1	50	1
893.5802	1	10	n/a	n/a	1	50	2
894.7136	1	10	n/a	n/a	1	50	3
895.8468	1	21	n/a	n/a	1	50	0
897.1468	1	10	n/a	n/a	1	50	1
898.2634	1	10	n/a	n/a	1	50	2
899.4132	1	10	n/a	n/a	1	50	3
900.6798	1	10	n/a	n/a	1	50	4
901.7298	1	10	n/a	n/a	1	50	5
902.8798	1	10	n/a	n/a	1	50	6
904.0964	1	10	n/a	n/a	1	50	7
905.3128	1	21	n/a	n/a	1	50	0
906.4962	1	10	n/a	n/a	1	50	1
907.6794	1	21	n/a	n/a	1	50	0
908.996	1	10	n/a	n/a	1	50	1
910.0626	1	10	n/a	n/a	1	50	2
910.805	1	81	n/a	n/a	1	0	0
911.005	1	81	n/a	n/a	1	0	0
911.205	1	81	n/a	n/a	1	0	0
911.405	1	81	n/a	n/a	1	0	0
911.605	1	81	n/a	n/a	1	0	0
911.805	1	81	n/a	n/a	1	0	0
912.005	1	81	n/a	n/a	1	0	0
912.205	1	81	n/a	n/a	1	0	0
912.405	1	81	n/a	n/a	1	0	0
912.605	1	81	n/a	n/a	1	0	0
913.8124	1	10	n/a	n/a	1	50	1
914.9124	1	10	n/a	n/a	1	50	2
916.2456	1	10	n/a	n/a	1	50	3
917.3456	1	10	n/a	n/a	1	50	4
918.4622	1	10	n/a	n/a	1	50	5
919.5788	1	21	n/a	n/a	1	50	0
920.612	1	10	n/a	n/a	1	50	1
921.6786	1	10	n/a	n/a	1	50	2
922.8952	1	10	n/a	n/a	1	50	3
924.1118	1	21	n/a	n/a	1	50	0
925.2784	1	10	n/a	n/a	1	50	1
926.545	1	10	n/a	n/a	1	50	2
927.8448	1	10	n/a	n/a	1	50	3
928.8948	1	10	n/a	n/a	1	50	4
930.078	1	10	n/a	n/a	1	50	5
931.2614	1	21	n/a	n/a	1	50	0
932.3946	1	10	n/a	n/a	1	50	1
933.4946	1	10	n/a	n/a	1	50	2
934.5612	1	10	n/a	n/a	1	50	3
935.6278	1	21	n/a	n/a	1	50	0
936.4764	1	81	n/a	n/a	1	0	0
936.6764	1	81	n/a	n/a	1	0	0
936.8764	1	81	n/a	n/a	1	0	0
937.0764	1	81	n/a	n/a	1	0	0
937.2764	1	81	n/a	n/a	1	0	0
937.4764	1	81	n/a	n/a	1	0	0
937.6764	1	81	n/a	n/a	1	0	0
937.8764	1	81	n/a	n/a	1	0	0
938.0764	1	81	n/a	n/a	1	0	0
938.2764	1	81	n/a	n/a	1	0	0
939.5442	1	10	n/a	n/a	1	50	1
940.6274	1	10	n/a	n/a	1	50	2
941.7108	1	10	n/a	n/a	1	50	3
942.794	1	10	n/a	n/a	1	50	4
944.1106	1	10	n/a	n/a	1	50	5
945.4272	1	21	n/a	n/a	1	50	0
946.5938	1	10	n/a	n/a	1	50	1
947.7604	1	21	n/a	n/a	1	50	0
948.9436	1	10	n/a	n/a	1	50	1
950.127	1	10	n/a	n/a	1	50	2
951.3436	1	10	n/a	n/a	1	50	3
952.5602	1	21	n/a	n/a	1	50	0
953.66	1	10	n/a	n/a	1	50	1
954.8434	1	10	n/a	n/a	1	50	2
956.0266	1	10	n/a	n/a	1	50	3
957.2598	1	10	n/a	n/a	1	50	4
958.5264	1	10	n/a	n/a	1	50	5
959.793	1	21	n/a	n/a	1	50	0
960.8262	1	10	n/a	n/a	1	50	1
961.8596	1	10	n/a	n/a	1	50	2
1041.9558	1	81	n/a	n/a	1	0	0
1042.1558	1	81	n/a	n/a	1	0	0
1042.3558	1	81	n/a	n/a	1	0	0
1042.5558	1	81	n/a	n/a	1	0	0
1042.7558	1	81	n/a	n/a	1	0	0
1042.9558	1	81	n/a	n/a	1	0	0
1043.1558	1	81	n/a	n/a	1	0	0
1043.3558	1	81	n/a	n/a	1	0	0
1043.5558	1	81	n/a	n/a	1	0	0
1043.7558	1	81	n/a	n/a	1	0	0
1045.0046	1	10	n/a	n/a	1	51	1
1046.1712	1	10	n/a	n/a	1	51	2
1047.3046	1	10	n/a	n/a	1	51	3
1048.5378	1	10	n/a	n/a	1	51	4
1049.7878	1	10	n/a	n/a	1	51	5
1051.0376	1	21	n/a	n/a	1	51	0
1052.0708	1	10	n/a	n/a	1	51	1
1053.2708	1	10	n/a	n/a	1	51	2
1054.3208	1	10	n/a	n/a	1	51	3
1055.5374	1	10	n/a	n/a	1	51	4
1056.5706	1	10	n/a	n/a	1	51	5
1057.7206	1	10	n/a	n/a	1	51	6
1058.9204	1	10	n/a	n/a	1	51	7
1060.1204	1	21	n/a	n/a	1	51	0
1061.2204	1	10	n/a	n/a	1	51	1
1062.387	1	10	n/a	n/a	1	51	2
1063.6702	1	10	n/a	n/a	1	51	3
1064.9202	1	10	n/a	n/a	1	51	4
1066.1534	1	10	n/a	n/a	1	51	5
1067.3866	1	21	n/a	n/a	1	51	0
1068.3982	1	81	n/a	n/a	1	0	0
1068.5982	1	81	n/a	n/a	1	0	0
1068.7982	1	81	n/a	n/a	1	0	0
1068.9982	1	81	n/a	n/a	1	0	0
1069.1982	1	81	n/a	n/a	1	0	0
1069.3988	1	81	n/a	n/a	1	0	0
1069.5988	1	81	n/a	n/a	1	0	0
1069.7988	1	81	n/a	n/a	1	0	0
1069.9988	1	81	n/a	n/a	1	0	0
1070.1988	1	81	n/a	n/a	1	0	0
1071.3864	1	10	n/a	n/a	1	51	1
1072.4864	1	21	n/a	n/a	1	51	0
1073.6196	1	10	n/a	n/a	1	51	1
1074.8528	1	10	n/a	n/a	1	51	2
1075.9362	1	10	n/a	n/a	1	51	3
1077.0194	1	21	n/a	n/a	1	51	0
1078.186	1	10	n/a	n/a	1	51	1
1079.3526	1	21	n/a	n/a	1	51	0
1080.6526	1	10	n/a	n/a	1	51	1
1081.8858	1	10	n/a	n/a	1	51	2
1083.0024	1	10	n/a	n/a	1	51	3
1084.2856	1	10	n/a	n/a	1	51	4
1085.4356	1	10	n/a	n/a	1	51	5
1086.5856	1	21	n/a	n/a	1	51	0
1087.7022	1	10	n/a	n/a	1	51	1
1088.7354	1	10	n/a	n/a	1	51	2
1089.9854	1	10	n/a	n/a	1	51	3
1091.3186	1	10	n/a	n/a	1	51	4
1092.6352	1	10	n/a	n/a	1	51	5
1093.9352	1	10	n/a	n/a	1	51	6
1094.8518	1	81	n/a	n/a	1	0	0
1095.0518	1	81	n/a	n/a	1	0	0
1095.2518	1	81	n/a	n/a	1	0	0
1095.4518	1	81	n/a	n/a	1	0	0
1095.6518	1	81	n/a	n/a	1	0	0
1095.8518	1	81	n/a	n/a	1	0	0
1096.0518	1	81	n/a	n/a	1	0	0
1096.2518	1	81	n/a	n/a	1	0	0
1096.4518	1	81	n/a	n/a	1	0	0
1096.6518	1	81	n/a	n/a	1	0	0
1098.0682	1	10	n/a	n/a	1	51	1
1099.2014	1	10	n/a	n/a	1	51	2
1100.2514	1	10	n/a	n/a	1	51	3
1101.3014	1	21	n/a	n/a	1	51	0
1102.368	1	10	n/a	n/a	1	51	1
1103.5512	1	10	n/a	n/a	1	51	2
1104.6178	1	10	n/a	n/a	1	51	3
1105.7344	1	10	n/a	n/a	1	51	4
1106.9176	1	10	n/a	n/a	1	51	5
1108.101	1	21	n/a	n/a	1	51	0
1109.3008	1	10	n/a	n/a	1	51	1
1110.6008	1	10	n/a	n/a	1	51	2
1111.8008	1	10	n/a	n/a	1	51	3
1113.0006	1	21	n/a	n/a	1	51	0
1114.2172	1	10	n/a	n/a	1	51	1
1115.3172	1	10	n/a	n/a	1	51	2
1116.4672	1	10	n/a	n/a	1	51	3
1117.517	1	10	n/a	n/a	1	51	4
1118.667	1	10	n/a	n/a	1	51	5
1119.867	1	10	n/a	n/a	1	51	6
1120.5844	1	81	n/a	n/a	1	0	0
1120.7844	1	81	n/a	n/a	1	0	0
1120.9844	1	81	n/a	n/a	1	0	0
1121.1844	1	81	n/a	n/a	1	0	0
1121.3844	1	81	n/a	n/a	1	0	0
1121.5844	1	81	n/a	n/a	1	0	0
1121.7844	1	81	n/a	n/a	1	0	0
1121.9844	1	81	n/a	n/a	1	0	0
1122.1844	1	81	n/a	n/a	1	0	0
1122.3844	1	81	n/a	n/a	1	0	0
1123.7666	1	10	n/a	n/a	1	51	1
1124.8166	1	10	n/a	n/a	1	51	2
1126.0498	1	10	n/a	n/a	1	51	3
1127.3664	1	10	n/a	n/a	1	51	4
1128.6998	1	10	n/a	n/a	1	51	5
1129.7496	1	10	n/a	n/a	1	51	6
1131.0662	1	10	n/a	n/a	1	51	7
1132.3828	1	21	n/a	n/a	1	51	0
1133.4828	1	10	n/a	n/a	1	51	1
1134.7326	1	10	n/a	n/a	1	51	2
1135.9326	1	10	n/a	n/a	1	51	3
1137.1326	1	21	n/a	n/a	1	51	0
1138.2824	1	10	n/a	n/a	1	51	1
1139.349	1	10	n/a	n/a	1	51	2
1140.6156	1	10	n/a	n/a	1	51	3
1141.8822	1	21	n/a	n/a	1	51	0
1142.9488	1	10	n/a	n/a	1	51	1
1144.2154	1	10	n/a	n/a	1	51	2
1145.282	1	10	n/a	n/a	1	51	3
1146.3486	1	21	n/a	n/a	1	51	0
1147.1544	1	81	n/a	n/a	1	0	0
1147.3544	1	81	n/a	n/a	1	0	0
1147.5544	1	81	n/a	n/a	1	0	0
1147.7544	1	81	n/a	n/a	1	0	0
1147.9544	1	81	n/a	n/a	1	0	0
1148.1544	1	81	n/a	n/a	1	0	0
1148.3544	1	81	n/a	n/a	1	0	0
1148.5544	1	81	n/a	n/a	1	0	0
1148.7544	1	81	n/a	n/a	1	0	0
1148.9544	1	81	n/a	n/a	1	0	0
1150.3318	1	10	n/a	n/a	1	51	1
1151.615	1	21	n/a	n/a	1	51	0
1152.6484	1	10	n/a	n/a	1	51	1
1153.7982	1	10	n/a	n/a	1	51	2
1155.0148	1	10	n/a	n/a	1	51	3
1156.1814	1	10	n/a	n/a	1	51	4
1157.3646	1	10	n/a	n/a	1	51	5
1158.548	1	21	n/a	n/a	1	51	0
1159.6478	1	10	n/a	n/a	1	51	1
1160.7478	1	21	n/a	n/a	1	51	0
1161.831	1	10	n/a	n/a	1	51	1
1162.9144	1	21	n/a	n/a	1	51	0
1165.2308	1	10	n/a	n/a	1	51	2
1166.3308	1	10	n/a	n/a	1	51	3
1167.6474	1	10	n/a	n/a	1	51	4
1168.7306	1	10	n/a	n/a	1	51	5
1169.814	1	21	n/a	n/a	1	51	0
1171.0972	1	10	n/a	n/a	1	51	1
1172.2804	1	10	n/a	n/a	1	51	2
1258.2184	1	82	n/a	n/a	1	0	0
1258.2584	1	82	n/a	n/a	1	0	0
1258.6834	1	82	n/a	n/a	1	0	0
1258.9054	1	82	n/a	n/a	1	0	0
1259.0354	1	82	n/a	n/a	1	0	0
1259.2184	1	82	n/a	n/a	1	0	0
1259.6254	1	82	n/a	n/a	1	0	0
1259.6714	1	82	n/a	n/a	1	0	0
1259.8464	1	82	n/a	n/a	1	0	0
1260.1214	1	82	n/a	n/a	1	0	0
1261.4086	1	10	n/a	n/a	1	52	1
1262.7252	1	21	n/a	n/a	1	52	0
1263.9918	1	10	n/a	n/a	1	52	1
1265.1584	1	10	n/a	n/a	1	52	2
1266.375	1	10	n/a	n/a	1	52	3
1267.5748	1	10	n/a	n/a	1	52	4
1268.6582	1	10	n/a	n/a	1	52	5
1269.9248	1	10	n/a	n/a	1	52	6
1271.0914	1	10	n/a	n/a	1	52	7
1272.258	1	21	n/a	n/a	1	52	0
1273.5412	1	10	n/a	n/a	1	52	1
1274.7578	1	10	n/a	n/a	1	52	2
1275.991	1	10	n/a	n/a	1	52	3
1277.2576	1	10	n/a	n/a	1	52	4
1278.3076	1	10	n/a	n/a	1	52	5
1279.4242	1	10	n/a	n/a	1	52	6
1280.7408	1	10	n/a	n/a	1	52	7
1282.0574	1	21	n/a	n/a	1	52	0
1283.3072	1	10	n/a	n/a	1	52	1
1284.4738	1	10	n/a	n/a	1	52	2
1285.5434	1	82	n/a	n/a	1	0	0
1285.7124	1	82	n/a	n/a	1	0	0
1285.7624	1	82	n/a	n/a	1	0	0
1285.9844	1	82	n/a	n/a	1	0	0
1286.0114	1	82	n/a	n/a	1	0	0
1286.5434	1	82	n/a	n/a	1	0	0
1286.8144	1	82	n/a	n/a	1	0	0
1286.9364	1	82	n/a	n/a	1	0	0
1286.9864	1	82	n/a	n/a	1	0	0
1287.3154	1	82	n/a	n/a	1	0	0
1288.5736	1	10	n/a	n/a	1	52	1
1289.8568	1	10	n/a	n/a	1	52	2
1291.0902	1	10	n/a	n/a	1	52	3
1292.2234	1	10	n/a	n/a	1	52	4
1293.2734	1	10	n/a	n/a	1	52	5
1294.3232	1	21	n/a	n/a	1	52	0
1295.4232	1	10	n/a	n/a	1	52	1
1296.4898	1	10	n/a	n/a	1	52	2
1297.6898	1	10	n/a	n/a	1	52	3
1298.7396	1	10	n/a	n/a	1	52	4
1299.8896	1	10	n/a	n/a	1	52	5
1301.0396	1	21	n/a	n/a	1	52	0
1302.0728	1	10	n/a	n/a	1	52	1
1303.1728	1	10	n/a	n/a	1	52	2
1304.4894	1	10	n/a	n/a	1	52	3
1305.6226	1	10	n/a	n/a	1	52	4
1306.7892	1	10	n/a	n/a	1	52	5
1307.9558	1	21	n/a	n/a	1	52	0
1309.2224	1	10	n/a	n/a	1	52	1
1310.339	1	10	n/a	n/a	1	52	2
1311.2484	1	82	n/a	n/a	1	0	0
1311.3584	1	82	n/a	n/a	1	0	0
1311.7014	1	82	n/a	n/a	1	0	0
1311.7744	1	82	n/a	n/a	1	0	0
1312.1974	1	82	n/a	n/a	1	0	0
1312.2484	1	82	n/a	n/a	1	0	0
1312.3264	1	82	n/a	n/a	1	0	0
1312.3514	1	82	n/a	n/a	1	0	0
1312.7104	1	82	n/a	n/a	1	0	0
1312.9964	1	82	n/a	n/a	1	0	0
1314.4554	1	10	n/a	n/a	1	52	1
1315.6386	1	10	n/a	n/a	1	52	2
1316.972	1	10	n/a	n/a	1	52	3
1318.1552	1	10	n/a	n/a	1	52	4
1319.2052	1	10	n/a	n/a	1	52	5
1320.255	1	21	n/a	n/a	1	52	0
1321.2884	1	10	n/a	n/a	1	52	1
1322.455	1	10	n/a	n/a	1	52	2
1323.5548	1	10	n/a	n/a	1	52	3
1324.7048	1	10	n/a	n/a	1	52	4
1325.7714	1	10	n/a	n/a	1	52	5
1326.838	1	21	n/a	n/a	1	52	0
1328.1046	1	10	n/a	n/a	1	52	1
1329.3546	1	10	n/a	n/a	1	52	2
1330.5044	1	10	n/a	n/a	1	52	3
1331.5378	1	10	n/a	n/a	1	52	4
1332.7876	1	10	n/a	n/a	1	52	5
1333.9542	1	10	n/a	n/a	1	52	6
1335.2042	1	10	n/a	n/a	1	52	7
1336.4542	1	21	n/a	n/a	1	52	0
1337.5046	1	82	n/a	n/a	1	0	0
1337.7906	1	82	n/a	n/a	1	0	0
1337.9346	1	82	n/a	n/a	1	0	0
1338.1256	1	82	n/a	n/a	1	0	0
1338.4326	1	82	n/a	n/a	1	0	0
1338.5054	1	82	n/a	n/a	1	0	0
1338.8114	1	82	n/a	n/a	1	0	0
1338.8994	1	82	n/a	n/a	1	0	0
1339.1122	1	82	n/a	n/a	1	0	0
1339.2382	1	82	n/a	n/a	1	0	0
1340.6038	1	10	n/a	n/a	1	52	1
1341.7872	1	10	n/a	n/a	1	52	2
1343.1038	1	10	n/a	n/a	1	52	3
1344.3036	1	10	n/a	n/a	1	52	4
1345.337	1	10	n/a	n/a	1	52	5
1346.3702	1	21	n/a	n/a	1	52	0
1347.6534	1	10	n/a	n/a	1	52	1
1348.9368	1	21	n/a	n/a	1	52	0
1350.22	1	10	n/a	n/a	1	52	1
1351.37	1	10	n/a	n/a	1	52	2
1352.5032	1	10	n/a	n/a	1	52	3
1353.6364	1	10	n/a	n/a	1	52	4
1354.8698	1	10	n/a	n/a	1	52	5
1356.153	1	10	n/a	n/a	1	52	6
1357.4528	1	10	n/a	n/a	1	52	7
1358.7528	1	21	n/a	n/a	1	52	0
1359.8694	1	10	n/a	n/a	1	52	1
1360.986	1	21	n/a	n/a	1	52	0
1362.036	1	10	n/a	n/a	1	52	1
1363.2858	1	10	n/a	n/a	1	52	2
1364.1956	1	82	n/a	n/a	1	0	0
1364.3516	1	82	n/a	n/a	1	0	0
1364.6486	1	82	n/a	n/a	1	0	0
1364.6746	1	82	n/a	n/a	1	0	0
1364.8056	1	82	n/a	n/a	1	0	0
1365.1956	1	82	n/a	n/a	1	0	0
1365.5746	1	82	n/a	n/a	1	0	0
1365.8126	1	82	n/a	n/a	1	0	0
1365.9806	1	82	n/a	n/a	1	0	0
1366.0036	1	82	n/a	n/a	1	0	0
1367.4022	1	10	n/a	n/a	1	52	1
1368.5522	1	10	n/a	n/a	1	52	2
1369.6688	1	10	n/a	n/a	1	52	3
1370.7854	1	10	n/a	n/a	1	52	4
1371.952	1	10	n/a	n/a	1	52	5
1373.1186	1	21	n/a	n/a	1	52	0
1374.4352	1	10	n/a	n/a	1	52	1
1375.5518	1	10	n/a	n/a	1	52	2
1376.735	1	10	n/a	n/a	1	52	3
1377.9516	1	10	n/a	n/a	1	52	4
1379.0182	1	10	n/a	n/a	1	52	5
1380.0516	1	10	n/a	n/a	1	52	6
1381.1182	1	10	n/a	n/a	1	52	7
1382.1848	1	21	n/a	n/a	1	52	0
1383.5014	1	10	n/a	n/a	1	52	1
1384.7846	1	10	n/a	n/a	1	52	2
1386.0846	1	10	n/a	n/a	1	52	3
1387.4012	1	10	n/a	n/a	1	52	4
1388.651	1	10	n/a	n/a	1	52	5
1389.901	1	21	n/a	n/a	1	52	0
1400.209	1	81	n/a	n/a	1	0	0
1400.409	1	81	n/a	n/a	1	0	0
1400.609	1	81	n/a	n/a	1	0	0
1400.809	1	81	n/a	n/a	1	0	0
1401.009	1	81	n/a	n/a	1	0	0
1401.209	1	81	n/a	n/a	1	0	0
1401.409	1	81	n/a	n/a	1	0	0
1401.609	1	81	n/a	n/a	1	0	0
1401.809	1	81	n/a	n/a	1	0	0
1402.009	1	81	n/a	n/a	1	0	0
1403.1502	1	10	n/a	n/a	1	50	1
1404.3168	1	10	n/a	n/a	1	50	2
1405.5334	1	10	n/a	n/a	1	50	3
1406.5834	1	10	n/a	n/a	1	50	4
1407.8666	1	10	n/a	n/a	1	50	5
1410.3498	1	10	n/a	n/a	1	50	7
1411.633	1	21	n/a	n/a	1	50	0
1412.8662	1	10	n/a	n/a	1	50	1
1414.1162	1	10	n/a	n/a	1	50	2
1415.3162	1	10	n/a	n/a	1	50	3
1416.4494	1	10	n/a	n/a	1	50	4
1417.7326	1	10	n/a	n/a	1	50	5
1418.7826	1	10	n/a	n/a	1	50	6
1419.9326	1	10	n/a	n/a	1	50	7
1421.0824	1	21	n/a	n/a	1	50	0
1422.3158	1	10	n/a	n/a	1	50	1
1423.549	1	21	n/a	n/a	1	50	0
1424.6822	1	10	n/a	n/a	1	50	1
1425.8988	1	10	n/a	n/a	1	50	2
1426.7004	1	81	n/a	n/a	1	0	0
1426.9004	1	81	n/a	n/a	1	0	0
1427.1004	1	81	n/a	n/a	1	0	0
1427.3004	1	81	n/a	n/a	1	0	0
1427.5004	1	81	n/a	n/a	1	0	0
1427.7006	1	81	n/a	n/a	1	0	0
1427.9006	1	81	n/a	n/a	1	0	0
1428.1004	1	81	n/a	n/a	1	0	0
1428.3004	1	81	n/a	n/a	1	0	0
1428.5004	1	81	n/a	n/a	1	0	0
1429.8652	1	10	n/a	n/a	1	50	1
1431.0986	1	10	n/a	n/a	1	50	2
1432.1652	1	10	n/a	n/a	1	50	3
1433.2318	1	21	n/a	n/a	1	50	0
1434.565	1	10	n/a	n/a	1	50	1
1435.8982	1	21	n/a	n/a	1	50	0
1436.9648	1	10	n/a	n/a	1	50	1
1438.0982	1	10	n/a	n/a	1	50	2
1439.2814	1	10	n/a	n/a	1	50	3
1440.4646	1	21	n/a	n/a	1	50	0
1441.7312	1	10	n/a	n/a	1	50	1
1442.9978	1	10	n/a	n/a	1	50	2
1444.1478	1	10	n/a	n/a	1	50	3
1445.3476	1	10	n/a	n/a	1	50	4
1446.4476	1	10	n/a	n/a	1	50	5
1447.4976	1	10	n/a	n/a	1	50	6
1448.5308	1	10	n/a	n/a	1	50	7
1449.5642	1	21	n/a	n/a	1	50	0
1450.8474	1	10	n/a	n/a	1	50	1
1452.0972	1	10	n/a	n/a	1	50	2
1453.066	1	81	n/a	n/a	1	0	0
1453.266	1	81	n/a	n/a	1	0	0
1453.466	1	81	n/a	n/a	1	0	0
1453.666	1	81	n/a	n/a	1	0	0
1453.866	1	81	n/a	n/a	1	0	0
1454.066	1	81	n/a	n/a	1	0	0
1454.266	1	81	n/a	n/a	1	0	0
1454.466	1	81	n/a	n/a	1	0	0
1454.666	1	81	n/a	n/a	1	0	0
1454.866	1	81	n/a	n/a	1	0	0
1456.2304	1	10	n/a	n/a	1	50	1
1457.497	1	21	n/a	n/a	1	50	0
1458.747	1	10	n/a	n/a	1	50	1
1459.8802	1	10	n/a	n/a	1	50	2
1461.08	1	10	n/a	n/a	1	50	3
1462.2468	1	10	n/a	n/a	1	50	4
1463.3134	1	10	n/a	n/a	1	50	5
1464.38	1	21	n/a	n/a	1	50	0
1465.4466	1	10	n/a	n/a	1	50	1
1466.6464	1	10	n/a	n/a	1	50	2
1467.7964	1	10	n/a	n/a	1	50	3
1468.9464	1	21	n/a	n/a	1	50	0
1470.1796	1	10	n/a	n/a	1	50	1
1471.4294	1	10	n/a	n/a	1	50	2
1472.4794	1	10	n/a	n/a	1	50	3
1473.696	1	10	n/a	n/a	1	50	4
1474.7792	1	10	n/a	n/a	1	50	5
1475.8626	1	21	n/a	n/a	1	50	0
1477.0124	1	10	n/a	n/a	1	50	1
1478.1124	1	10	n/a	n/a	1	50	2
1478.8988	1	81	n/a	n/a	1	0	0
1479.0988	1	81	n/a	n/a	1	0	0
1479.2988	1	81	n/a	n/a	1	0	0
1479.4988	1	81	n/a	n/a	1	0	0
1479.6988	1	81	n/a	n/a	1	0	0
1479.8988	1	81	n/a	n/a	1	0	0
1480.0988	1	81	n/a	n/a	1	0	0
1480.2988	1	81	n/a	n/a	1	0	0
1480.4988	1	81	n/a	n/a	1	0	0
1480.6988	1	81	n/a	n/a	1	0	0
1482.0456	1	10	n/a	n/a	1	50	1
1483.2622	1	10	n/a	n/a	1	50	2
1484.312	1	10	n/a	n/a	1	50	3
1485.362	1	21	n/a	n/a	1	50	0
1486.4786	1	10	n/a	n/a	1	50	1
1487.5952	1	10	n/a	n/a	1	50	2
1488.6284	1	10	n/a	n/a	1	50	3
1489.6618	1	21	n/a	n/a	1	50	0
1490.695	1	10	n/a	n/a	1	50	1
1491.8782	1	10	n/a	n/a	1	50	2
1493.1948	1	10	n/a	n/a	1	50	3
1494.3948	1	10	n/a	n/a	1	50	4
1495.6114	1	10	n/a	n/a	1	50	5
1496.7446	1	10	n/a	n/a	1	50	6
1498.028	1	10	n/a	n/a	1	50	7
1499.3112	1	21	n/a	n/a	1	50	0
1500.4944	1	10	n/a	n/a	1	50	1
1501.611	1	10	n/a	n/a	1	50	2
1502.911	1	10	n/a	n/a	1	50	3
1504.2108	1	21	n/a	n/a	1	50	0
1505.2606	1	81	n/a	n/a	1	0	0
1505.4606	1	81	n/a	n/a	1	0	0
1505.6606	1	81	n/a	n/a	1	0	0
1505.8606	1	81	n/a	n/a	1	0	0
1506.0606	1	81	n/a	n/a	1	0	0
1506.2612	1	81	n/a	n/a	1	0	0
1506.4612	1	81	n/a	n/a	1	0	0
1506.6612	1	81	n/a	n/a	1	0	0
1506.8612	1	81	n/a	n/a	1	0	0
1507.0612	1	81	n/a	n/a	1	0	0
1508.344	1	10	n/a	n/a	1	50	1
1509.6272	1	10	n/a	n/a	1	50	2
1510.7272	1	10	n/a	n/a	1	50	3
1511.7604	1	10	n/a	n/a	1	50	4
1512.827	1	10	n/a	n/a	1	50	5
1513.9936	1	10	n/a	n/a	1	50	6
1515.2936	1	10	n/a	n/a	1	50	7
1516.5934	1	21	n/a	n/a	1	50	0
1517.6768	1	10	n/a	n/a	1	50	1
1518.7268	1	10	n/a	n/a	1	50	2
1519.81	1	10	n/a	n/a	1	50	3
1520.9266	1	10	n/a	n/a	1	50	4
1522.0932	1	10	n/a	n/a	1	50	5
1523.1932	1	10	n/a	n/a	1	50	6
1524.5096	1	10	n/a	n/a	1	50	7
1525.8262	1	21	n/a	n/a	1	50	0
1526.9596	1	10	n/a	n/a	1	50	1
1527.9928	1	10	n/a	n/a	1	50	2
1529.2428	1	10	n/a	n/a	1	50	3
1530.4926	1	21	n/a	n/a	1	50	0
1560.6022	1	81	n/a	n/a	1	0	0
1560.8022	1	81	n/a	n/a	1	0	0
1561.0022	1	81	n/a	n/a	1	0	0
1561.2022	1	81	n/a	n/a	1	0	0
1561.4022	1	81	n/a	n/a	1	0	0
1561.6022	1	81	n/a	n/a	1	0	0
1561.8022	1	81	n/a	n/a	1	0	0
1562.0022	1	81	n/a	n/a	1	0	0
1562.2022	1	81	n/a	n/a	1	0	0
1562.4022	1	81	n/a	n/a	1	0	0
1563.524	1	10	n/a	n/a	1	51	1
1564.674	1	10	n/a	n/a	1	51	2
1565.8072	1	10	n/a	n/a	1	51	3
1566.9406	1	21	n/a	n/a	1	51	0
1567.9738	1	10	n/a	n/a	1	51	1
1569.1404	1	10	n/a	n/a	1	51	2
1570.3904	1	10	n/a	n/a	1	51	3
1571.6402	1	21	n/a	n/a	1	51	0
1572.8902	1	10	n/a	n/a	1	51	1
1574.0068	1	10	n/a	n/a	1	51	2
1575.09	1	10	n/a	n/a	1	51	3
1576.2566	1	10	n/a	n/a	1	51	4
1577.3232	1	10	n/a	n/a	1	51	5
1578.3898	1	21	n/a	n/a	1	51	0
1580.823	1	21	n/a	n/a	1	51	0
1581.8564	1	10	n/a	n/a	1	51	1
1582.9896	1	10	n/a	n/a	1	51	2
1584.2062	1	10	n/a	n/a	1	51	3
1585.3728	1	10	n/a	n/a	1	51	4
1586.1922	1	81	n/a	n/a	1	0	0
1586.3922	1	81	n/a	n/a	1	0	0
1586.5922	1	81	n/a	n/a	1	0	0
1586.7922	1	81	n/a	n/a	1	0	0
1586.9922	1	81	n/a	n/a	1	0	0
1587.1922	1	81	n/a	n/a	1	0	0
1587.3922	1	81	n/a	n/a	1	0	0
1587.5922	1	81	n/a	n/a	1	0	0
1587.7922	1	81	n/a	n/a	1	0	0
1587.9922	1	81	n/a	n/a	1	0	0
1589.2226	1	10	n/a	n/a	1	51	1
1590.3724	1	10	n/a	n/a	1	51	2
1591.6224	1	10	n/a	n/a	1	51	3
1592.6724	1	10	n/a	n/a	1	51	4
1593.9556	1	10	n/a	n/a	1	51	5
1595.0056	1	10	n/a	n/a	1	51	6
1596.2054	1	10	n/a	n/a	1	51	7
1597.4054	1	21	n/a	n/a	1	51	0
1598.5554	1	10	n/a	n/a	1	51	1
1599.8386	1	10	n/a	n/a	1	51	2
1600.8718	1	10	n/a	n/a	1	51	3
1601.9052	1	21	n/a	n/a	1	51	0
1603.1384	1	10	n/a	n/a	1	51	1
1604.2884	1	10	n/a	n/a	1	51	2
1605.3882	1	10	n/a	n/a	1	51	3
1606.7048	1	10	n/a	n/a	1	51	4
1607.9214	1	10	n/a	n/a	1	51	5
1609.138	1	21	n/a	n/a	1	51	0
1610.2046	1	10	n/a	n/a	1	51	1
1611.238	1	10	n/a	n/a	1	51	2
1612.2402	1	81	n/a	n/a	1	0	0
1612.4402	1	81	n/a	n/a	1	0	0
1612.6402	1	81	n/a	n/a	1	0	0
1612.8402	1	81	n/a	n/a	1	0	0
1613.0402	1	81	n/a	n/a	1	0	0
1613.2404	1	81	n/a	n/a	1	0	0
1613.4404	1	81	n/a	n/a	1	0	0
1613.6404	1	81	n/a	n/a	1	0	0
1613.8404	1	81	n/a	n/a	1	0	0
1614.0402	1	81	n/a	n/a	1	0	0
1615.2044	1	10	n/a	n/a	1	51	1
1616.271	1	21	n/a	n/a	1	51	0
1617.3208	1	10	n/a	n/a	1	51	1
1618.3708	1	21	n/a	n/a	1	51	0
1619.454	1	10	n/a	n/a	1	51	1
1620.6874	1	10	n/a	n/a	1	51	2
1621.7206	1	10	n/a	n/a	1	51	3
1622.7538	1	21	n/a	n/a	1	51	0
1623.9538	1	10	n/a	n/a	1	51	1
1625.0038	1	10	n/a	n/a	1	51	2
1626.2036	1	10	n/a	n/a	1	51	3
1627.4036	1	21	n/a	n/a	1	51	0
1628.7036	1	10	n/a	n/a	1	51	1
1629.9034	1	10	n/a	n/a	1	51	2
1631.1368	1	10	n/a	n/a	1	51	3
1632.37	1	21	n/a	n/a	1	51	0
1633.4032	1	10	n/a	n/a	1	51	1
1634.5698	1	10	n/a	n/a	1	51	2
1635.7032	1	10	n/a	n/a	1	51	3
1636.8364	1	21	n/a	n/a	1	51	0
1637.9448	1	81	n/a	n/a	1	0	0
1638.1448	1	81	n/a	n/a	1	0	0
1638.3448	1	81	n/a	n/a	1	0	0
1638.5448	1	81	n/a	n/a	1	0	0
1638.7448	1	81	n/a	n/a	1	0	0
1638.9448	1	81	n/a	n/a	1	0	0
1639.1448	1	81	n/a	n/a	1	0	0
1639.3448	1	81	n/a	n/a	1	0	0
1639.5448	1	81	n/a	n/a	1	0	0
1639.7448	1	81	n/a	n/a	1	0	0
1640.9528	1	10	n/a	n/a	1	51	1
1642.0694	1	21	n/a	n/a	1	51	0
1643.336	1	10	n/a	n/a	1	51	1
1644.5692	1	10	n/a	n/a	1	51	2
1645.7358	1	10	n/a	n/a	1	51	3
1646.9692	1	10	n/a	n/a	1	51	4
1648.0024	1	10	n/a	n/a	1	51	5
1649.0356	1	21	n/a	n/a	1	51	0
1650.3356	1	10	n/a	n/a	1	51	1
1651.5022	1	10	n/a	n/a	1	51	2
1652.6854	1	10	n/a	n/a	1	51	3
1653.9688	1	10	n/a	n/a	1	51	4
1655.1854	1	10	n/a	n/a	1	51	5
1656.402	1	21	n/a	n/a	1	51	0
1657.5518	1	10	n/a	n/a	1	51	1
1658.8684	1	10	n/a	n/a	1	51	2
1660.1684	1	10	n/a	n/a	1	51	3
1661.4682	1	21	n/a	n/a	1	51	0
1662.6516	1	10	n/a	n/a	1	51	1
1663.7514	1	10	n/a	n/a	1	51	2
1664.7372	1	81	n/a	n/a	1	0	0
1664.9372	1	81	n/a	n/a	1	0	0
1665.1372	1	81	n/a	n/a	1	0	0
1665.3372	1	81	n/a	n/a	1	0	0
1665.5372	1	81	n/a	n/a	1	0	0
1665.738	1	81	n/a	n/a	1	0	0
1665.938	1	81	n/a	n/a	1	0	0
1666.138	1	81	n/a	n/a	1	0	0
1666.338	1	81	n/a	n/a	1	0	0
1666.538	1	81	n/a	n/a	1	0	0
1667.8346	1	10	n/a	n/a	1	51	1
1669.0346	1	21	n/a	n/a	1	51	0
1670.2178	1	10	n/a	n/a	1	51	1
1671.5176	1	10	n/a	n/a	1	51	2
1672.6176	1	10	n/a	n/a	1	51	3
1673.8508	1	10	n/a	n/a	1	51	4
1675.0508	1	10	n/a	n/a	1	51	5
1676.2508	1	21	n/a	n/a	1	51	0
1677.384	1	10	n/a	n/a	1	51	1
1678.5172	1	21	n/a	n/a	1	51	0
1679.8172	1	10	n/a	n/a	1	51	1
1680.9172	1	10	n/a	n/a	1	51	2
1682.067	1	10	n/a	n/a	1	51	3
1683.267	1	10	n/a	n/a	1	51	4
1684.367	1	10	n/a	n/a	1	51	5
1685.5002	1	10	n/a	n/a	1	51	6
1686.7834	1	10	n/a	n/a	1	51	7
1688.0668	1	21	n/a	n/a	1	51	0
1689.1	1	10	n/a	n/a	1	51	1
1690.3	1	10	n/a	n/a	1	51	2
1776.9212	1	82	n/a	n/a	1	0	0
1777.0642	1	82	n/a	n/a	1	0	0
1777.4252	1	82	n/a	n/a	1	0	0
1777.7202	1	82	n/a	n/a	1	0	0
1777.7882	1	82	n/a	n/a	1	0	0
1777.9212	1	82	n/a	n/a	1	0	0
1777.9802	1	82	n/a	n/a	1	0	0
1778.1542	1	82	n/a	n/a	1	0	0
1778.4902	1	82	n/a	n/a	1	0	0
1778.7162	1	82	n/a	n/a	1	0	0
1780.0946	1	10	n/a	n/a	1	51	1
1781.1778	1	10	n/a	n/a	1	51	2
1782.4778	1	10	n/a	n/a	1	51	3
1783.511	1	10	n/a	n/a	1	51	4
1784.561	1	10	n/a	n/a	1	51	5
1785.7942	1	10	n/a	n/a	1	51	6
1787.1108	1	10	n/a	n/a	1	51	7
1788.4274	1	21	n/a	n/a	1	51	0
1789.7274	1	10	n/a	n/a	1	51	1
1790.844	1	10	n/a	n/a	1	51	2
1793.4438	1	21	n/a	n/a	1	51	0
1794.477	1	10	n/a	n/a	1	51	1
1795.5104	1	21	n/a	n/a	1	51	0
1796.6936	1	10	n/a	n/a	1	51	1
1797.9268	1	10	n/a	n/a	1	51	2
1799.0602	1	10	n/a	n/a	1	51	3
1800.2434	1	10	n/a	n/a	1	51	4
1801.51	1	10	n/a	n/a	1	51	5
1802.5432	1	10	n/a	n/a	1	51	6
1803.6058	1	82	n/a	n/a	1	0	0
1803.6828	1	82	n/a	n/a	1	0	0
1803.7318	1	82	n/a	n/a	1	0	0
1803.9988	1	82	n/a	n/a	1	0	0
1804.3258	1	82	n/a	n/a	1	0	0
1804.6058	1	82	n/a	n/a	1	0	0
1804.8988	1	82	n/a	n/a	1	0	0
1805.2538	1	82	n/a	n/a	1	0	0
1805.4718	1	82	n/a	n/a	1	0	0
1805.5708	1	82	n/a	n/a	1	0	0
1806.693	1	10	n/a	n/a	1	51	1
1807.7596	1	10	n/a	n/a	1	51	2
1808.8262	1	10	n/a	n/a	1	51	3
1810.0928	1	10	n/a	n/a	1	51	4
1811.1928	1	10	n/a	n/a	1	51	5
1812.4926	1	10	n/a	n/a	1	51	6
1813.676	1	10	n/a	n/a	1	51	7
1814.8592	1	21	n/a	n/a	1	51	0
1816.1092	1	10	n/a	n/a	1	51	1
1817.2258	1	10	n/a	n/a	1	51	2
1818.259	1	10	n/a	n/a	1	51	3
1819.559	1	10	n/a	n/a	1	51	4
1820.8422	1	10	n/a	n/a	1	51	5
1822.0422	1	10	n/a	n/a	1	51	6
1823.092	1	10	n/a	n/a	1	51	7
1824.142	1	21	n/a	n/a	1	51	0
1825.3752	1	10	n/a	n/a	1	51	1
1826.4586	1	10	n/a	n/a	1	51	2
1827.7752	1	10	n/a	n/a	1	51	3
1829.0918	1	21	n/a	n/a	1	51	0
1829.9534	1	82	n/a	n/a	1	0	0
1830.0754	1	82	n/a	n/a	1	0	0
1830.3674	1	82	n/a	n/a	1	0	0
1830.6034	1	82	n/a	n/a	1	0	0
1830.6424	1	82	n/a	n/a	1	0	0
1830.9534	1	82	n/a	n/a	1	0	0
1831.1174	1	82	n/a	n/a	1	0	0
1831.4124	1	82	n/a	n/a	1	0	0
1831.4714	1	82	n/a	n/a	1	0	0
1831.7294	1	82	n/a	n/a	1	0	0
1833.0414	1	10	n/a	n/a	1	51	1
1834.2248	1	10	n/a	n/a	1	51	2
1835.5246	1	10	n/a	n/a	1	51	3
1836.7746	1	10	n/a	n/a	1	51	4
1837.9246	1	10	n/a	n/a	1	51	5
1839.1912	1	10	n/a	n/a	1	51	6
1840.5078	1	10	n/a	n/a	1	51	7
1841.8244	1	21	n/a	n/a	1	51	0
1842.9576	1	10	n/a	n/a	1	51	1
1843.9908	1	10	n/a	n/a	1	51	2
1845.1908	1	10	n/a	n/a	1	51	3
1846.3074	1	10	n/a	n/a	1	51	4
1847.5406	1	10	n/a	n/a	1	51	5
1848.8238	1	10	n/a	n/a	1	51	6
1849.9072	1	10	n/a	n/a	1	51	7
1850.9904	1	21	n/a	n/a	1	51	0
1852.2236	1	10	n/a	n/a	1	51	1
1853.5402	1	10	n/a	n/a	1	51	2
1854.8236	1	10	n/a	n/a	1	51	3
1855.9402	1	10	n/a	n/a	1	51	4
1856.8796	1	82	n/a	n/a	1	0	0
1857.1686	1	82	n/a	n/a	1	0	0
1857.2026	1	82	n/a	n/a	1	0	0
1857.6046	1	82	n/a	n/a	1	0	0
1857.7376	1	82	n/a	n/a	1	0	0
1857.8796	1	82	n/a	n/a	1	0	0
1857.9756	1	82	n/a	n/a	1	0	0
1858.2396	1	82	n/a	n/a	1	0	0
1858.3976	1	82	n/a	n/a	1	0	0
1858.7096	1	82	n/a	n/a	1	0	0
1860.0898	1	10	n/a	n/a	1	51	1
1861.2564	1	10	n/a	n/a	1	51	2
1862.473	1	10	n/a	n/a	1	51	3
1863.6064	1	10	n/a	n/a	1	51	4
1864.823	1	10	n/a	n/a	1	51	5
1865.8562	1	10	n/a	n/a	1	51	6
1867.0562	1	10	n/a	n/a	1	51	7
1868.256	1	21	n/a	n/a	1	51	0
1869.3894	1	10	n/a	n/a	1	51	1
1870.5226	1	21	n/a	n/a	1	51	0
1871.6226	1	10	n/a	n/a	1	51	1
1872.7224	1	21	n/a	n/a	1	51	0
1873.8558	1	10	n/a	n/a	1	51	1
1875.1056	1	10	n/a	n/a	1	51	2
1876.189	1	10	n/a	n/a	1	51	3
1877.4556	1	10	n/a	n/a	1	51	4
1878.7222	1	10	n/a	n/a	1	51	5
1879.9888	1	21	n/a	n/a	1	51	0
1881.2554	1	10	n/a	n/a	1	51	1
1882.522	1	21	n/a	n/a	1	51	0
1883.5406	1	82	n/a	n/a	1	0	0
1883.6606	1	82	n/a	n/a	1	0	0
1883.8186	1	82	n/a	n/a	1	0	0
1884.0146	1	82	n/a	n/a	1	0	0
1884.3876	1	82	n/a	n/a	1	0	0
1884.5406	1	82	n/a	n/a	1	0	0
1884.8796	1	82	n/a	n/a	1	0	0
1885.1776	1	82	n/a	n/a	1	0	0
1885.2686	1	82	n/a	n/a	1	0	0
1885.4236	1	82	n/a	n/a	1	0	0
1886.5884	1	10	n/a	n/a	1	51	1
1887.6382	1	10	n/a	n/a	1	51	2
1888.8882	1	10	n/a	n/a	1	51	3
1890.1882	1	10	n/a	n/a	1	51	4
1891.3714	1	10	n/a	n/a	1	51	5
1892.5546	1	21	n/a	n/a	1	51	0
1893.7546	1	10	n/a	n/a	1	51	1
1894.8546	1	10	n/a	n/a	1	51	2
1896.0878	1	10	n/a	n/a	1	51	3
1897.3876	1	10	n/a	n/a	1	51	4
1898.671	1	10	n/a	n/a	1	51	5
1899.7376	1	10	n/a	n/a	1	51	6
1900.9708	1	10	n/a	n/a	1	51	7
1902.204	1	21	n/a	n/a	1	51	0
1903.3374	1	10	n/a	n/a	1	51	1
1904.404	1	10	n/a	n/a	1	51	2
1905.5872	1	10	n/a	n/a	1	51	3
1906.7704	1	21	n/a	n/a	1	51	0
1907.9704	1	10	n/a	n/a	1	51	1
1909.1036	1	10	n/a	n/a	1	51	2
1918.1616	1	82	n/a	n/a	1	0	0
1918.4056	1	82	n/a	n/a	1	0	0
1918.6266	1	82	n/a	n/a	1	0	0
1918.9076	1	82	n/a	n/a	1	0	0
1919.0816	1	82	n/a	n/a	1	0	0
1919.1616	1	82	n/a	n/a	1	0	0
1919.4746	1	82	n/a	n/a	1	0	0
1919.5906	1	82	n/a	n/a	1	0	0
1919.6536	1	82	n/a	n/a	1	0	0
1920.0296	1	82	n/a	n/a	1	0	0
1921.0862	1	10	n/a	n/a	1	50	1
1922.3696	1	10	n/a	n/a	1	50	2
1923.4028	1	10	n/a	n/a	1	50	3
1924.5194	1	10	n/a	n/a	1	50	4
1925.686	1	10	n/a	n/a	1	50	5
1926.7526	1	10	n/a	n/a	1	50	6
1927.9358	1	10	n/a	n/a	1	50	7
1929.1192	1	21	n/a	n/a	1	50	0
1930.1524	1	10	n/a	n/a	1	50	1
1931.3856	1	10	n/a	n/a	1	50	2
1932.5856	1	10	n/a	n/a	1	50	3
1933.7856	1	21	n/a	n/a	1	50	0
1934.8354	1	10	n/a	n/a	1	50	1
1935.8854	1	21	n/a	n/a	1	50	0
1937.0186	1	10	n/a	n/a	1	50	1
1938.152	1	21	n/a	n/a	1	50	0
1939.2852	1	10	n/a	n/a	1	50	1
1940.4184	1	21	n/a	n/a	1	50	0
1941.4684	1	10	n/a	n/a	1	50	1
1942.735	1	10	n/a	n/a	1	50	2
1943.5778	1	82	n/a	n/a	1	0	0
1943.9498	1	82	n/a	n/a	1	0	0
1944.0518	1	82	n/a	n/a	1	0	0
1944.2238	1	82	n/a	n/a	1	0	0
1944.5318	1	82	n/a	n/a	1	0	0
1944.5778	1	82	n/a	n/a	1	0	0
1944.7468	1	82	n/a	n/a	1	0	0
1944.8188	1	82	n/a	n/a	1	0	0
1945.1238	1	82	n/a	n/a	1	0	0
1945.5318	1	82	n/a	n/a	1	0	0
1946.5682	1	10	n/a	n/a	1	50	1
1947.8014	1	10	n/a	n/a	1	50	2
1949.068	1	10	n/a	n/a	1	50	3
1950.3346	1	21	n/a	n/a	1	50	0
1951.3844	1	10	n/a	n/a	1	50	1
1952.6344	1	10	n/a	n/a	1	50	2
1953.7344	1	10	n/a	n/a	1	50	3
1955.001	1	10	n/a	n/a	1	50	4
1956.1842	1	10	n/a	n/a	1	50	5
1957.3842	1	10	n/a	n/a	1	50	6
1958.5008	1	10	n/a	n/a	1	50	7
1959.6174	1	21	n/a	n/a	1	50	0
1960.6672	1	10	n/a	n/a	1	50	1
1961.9506	1	10	n/a	n/a	1	50	2
1963.1172	1	10	n/a	n/a	1	50	3
1964.2504	1	10	n/a	n/a	1	50	4
1965.3004	1	10	n/a	n/a	1	50	5
1966.4502	1	10	n/a	n/a	1	50	6
1967.7002	1	10	n/a	n/a	1	50	7
1968.9502	1	21	n/a	n/a	1	50	0
1969.8146	1	82	n/a	n/a	1	0	0
1970.1676	1	82	n/a	n/a	1	0	0
1970.2576	1	82	n/a	n/a	1	0	0
1970.4256	1	82	n/a	n/a	1	0	0
1970.6556	1	82	n/a	n/a	1	0	0
1970.8146	1	82	n/a	n/a	1	0	0
1971.0546	1	82	n/a	n/a	1	0	0
1971.1436	1	82	n/a	n/a	1	0	0
1971.5276	1	82	n/a	n/a	1	0	0
1971.6566	1	82	n/a	n/a	1	0	0
1972.8666	1	10	n/a	n/a	1	50	1
1973.8998	1	10	n/a	n/a	1	50	2
1975.183	1	10	n/a	n/a	1	50	3
1976.383	1	10	n/a	n/a	1	50	4
1977.5664	1	10	n/a	n/a	1	50	5
1978.8162	1	10	n/a	n/a	1	50	6
1980.1328	1	10	n/a	n/a	1	50	7
1981.4494	1	21	n/a	n/a	1	50	0
1982.5494	1	10	n/a	n/a	1	50	1
1983.816	1	10	n/a	n/a	1	50	2
1985.0992	1	10	n/a	n/a	1	50	3
1986.3824	1	10	n/a	n/a	1	50	4
1987.6324	1	10	n/a	n/a	1	50	5
1988.8656	1	10	n/a	n/a	1	50	6
1989.9322	1	10	n/a	n/a	1	50	7
1990.9988	1	21	n/a	n/a	1	50	0
1992.0988	1	10	n/a	n/a	1	50	1
1993.1986	1	10	n/a	n/a	1	50	2
1994.4652	1	10	n/a	n/a	1	50	3
1995.6486	1	10	n/a	n/a	1	50	4
1996.73	1	82	n/a	n/a	1	0	0
1996.89	1	82	n/a	n/a	1	0	0
1997.257	1	82	n/a	n/a	1	0	0
1997.374	1	82	n/a	n/a	1	0	0
1997.596	1	82	n/a	n/a	1	0	0
1997.7308	1	82	n/a	n/a	1	0	0
1998.0938	1	82	n/a	n/a	1	0	0
1998.3348	1	82	n/a	n/a	1	0	0
1998.3638	1	82	n/a	n/a	1	0	0
1998.4288	1	82	n/a	n/a	1	0	0
1999.8984	1	10	n/a	n/a	1	50	1
2001.1648	1	10	n/a	n/a	1	50	2
2002.4314	1	10	n/a	n/a	1	50	3
2003.698	1	21	n/a	n/a	1	50	0
2004.7814	1	10	n/a	n/a	1	50	1
2005.8646	1	21	n/a	n/a	1	50	0
2006.9646	1	10	n/a	n/a	1	50	1
2008.2812	1	10	n/a	n/a	1	50	2
2009.4644	1	10	n/a	n/a	1	50	3
2010.631	1	10	n/a	n/a	1	50	4
2011.9142	1	10	n/a	n/a	1	50	5
2013.1976	1	21	n/a	n/a	1	50	0
2014.4808	1	10	n/a	n/a	1	50	1
2015.7308	1	10	n/a	n/a	1	50	2
2016.8306	1	10	n/a	n/a	1	50	3
2018.1472	1	10	n/a	n/a	1	50	4
2019.2804	1	10	n/a	n/a	1	50	5
2020.5304	1	10	n/a	n/a	1	50	6
2021.8304	1	10	n/a	n/a	1	50	7
2023.1302	1	21	n/a	n/a	1	50	0
2024.199	1	82	n/a	n/a	1	0	0
2024.282	1	82	n/a	n/a	1	0	0
2024.458	1	82	n/a	n/a	1	0	0
2024.763	1	82	n/a	n/a	1	0	0
2025.101	1	82	n/a	n/a	1	0	0
2025.199	1	82	n/a	n/a	1	0	0
2025.275	1	82	n/a	n/a	1	0	0
2025.424	1	82	n/a	n/a	1	0	0
2025.765	1	82	n/a	n/a	1	0	0
2026.03	1	82	n/a	n/a	1	0	0
2027.3634	1	10	n/a	n/a	1	50	1
2028.4632	1	10	n/a	n/a	1	50	2
2029.7632	1	10	n/a	n/a	1	50	3
2031.0632	1	21	n/a	n/a	1	50	0
2032.363	1	10	n/a	n/a	1	50	1
2033.413	1	10	n/a	n/a	1	50	2
2034.5796	1	10	n/a	n/a	1	50	3
2035.7462	1	10	n/a	n/a	1	50	4
2037.0628	1	10	n/a	n/a	1	50	5
2038.246	1	10	n/a	n/a	1	50	6
2039.346	1	10	n/a	n/a	1	50	7
2040.446	1	21	n/a	n/a	1	50	0
2041.5458	1	10	n/a	n/a	1	50	1
2042.6458	1	21	n/a	n/a	1	50	0
2043.7124	1	10	n/a	n/a	1	50	1
2044.779	1	21	n/a	n/a	1	50	0
2046.0622	1	10	n/a	n/a	1	50	1
2047.3456	1	21	n/a	n/a	1	50	0
2048.4622	1	10	n/a	n/a	1	50	1
2049.562	1	10	n/a	n/a	1	50	2
2077.6084	1	81	n/a	n/a	1	0	0
2077.8084	1	81	n/a	n/a	1	0	0
2078.0084	1	81	n/a	n/a	1	0	0
2078.2084	1	81	n/a	n/a	1	0	0
2078.4084	1	81	n/a	n/a	1	0	0
2078.6084	1	81	n/a	n/a	1	0	0
2078.8084	1	81	n/a	n/a	1	0	0
2079.0084	1	81	n/a	n/a	1	0	0
2079.2084	1	81	n/a	n/a	1	0	0
2079.4084	1	81	n/a	n/a	1	0	0
2080.6602	1	10	n/a	n/a	1	52	1
2081.9602	1	10	n/a	n/a	1	52	2
2083.1768	1	10	n/a	n/a	1	52	3
2084.3934	1	21	n/a	n/a	1	52	0
2085.71	1	10	n/a	n/a	1	52	1
2086.9932	1	10	n/a	n/a	1	52	2
2088.243	1	10	n/a	n/a	1	52	3
2089.5596	1	10	n/a	n/a	1	52	4
2090.6596	1	10	n/a	n/a	1	52	5
2091.7262	1	10	n/a	n/a	1	52	6
2093.0428	1	10	n/a	n/a	1	52	7
2094.3594	1	21	n/a	n/a	1	52	0
2095.4094	1	10	n/a	n/a	1	52	1
2096.4592	1	21	n/a	n/a	1	52	0
2097.6592	1	10	n/a	n/a	1	52	1
2098.7092	1	10	n/a	n/a	1	52	2
2099.909	1	10	n/a	n/a	1	52	3
2101.109	1	21	n/a	n/a	1	52	0
2102.409	1	10	n/a	n/a	1	52	1
2103.5756	1	10	n/a	n/a	1	52	2
2104.3742	1	81	n/a	n/a	1	0	0
2104.5742	1	81	n/a	n/a	1	0	0
2104.7742	1	81	n/a	n/a	1	0	0
2104.9742	1	81	n/a	n/a	1	0	0
2105.1742	1	81	n/a	n/a	1	0	0
2105.3742	1	81	n/a	n/a	1	0	0
2105.5742	1	81	n/a	n/a	1	0	0
2105.7742	1	81	n/a	n/a	1	0	0
2105.9742	1	81	n/a	n/a	1	0	0
2106.1742	1	81	n/a	n/a	1	0	0
2107.3586	1	10	n/a	n/a	1	52	1
2108.5086	1	10	n/a	n/a	1	52	2
2109.6418	1	10	n/a	n/a	1	52	3
2110.7752	1	21	n/a	n/a	1	52	0
2111.9916	1	10	n/a	n/a	1	52	1
2113.2082	1	21	n/a	n/a	1	52	0
2114.5248	1	10	n/a	n/a	1	52	1
2115.6914	1	10	n/a	n/a	1	52	2
2116.808	1	10	n/a	n/a	1	52	3
2117.9246	1	10	n/a	n/a	1	52	4
2118.9746	1	10	n/a	n/a	1	52	5
2120.0246	1	21	n/a	n/a	1	52	0
2121.2578	1	10	n/a	n/a	1	52	1
2122.491	1	10	n/a	n/a	1	52	2
2123.7076	1	10	n/a	n/a	1	52	3
2124.9242	1	21	n/a	n/a	1	52	0
2125.9576	1	10	n/a	n/a	1	52	1
2127.1408	1	10	n/a	n/a	1	52	2
2128.424	1	10	n/a	n/a	1	52	3
2129.7074	1	21	n/a	n/a	1	52	0
2130.5186	1	81	n/a	n/a	1	0	0
2130.7186	1	81	n/a	n/a	1	0	0
2130.9186	1	81	n/a	n/a	1	0	0
2131.1186	1	81	n/a	n/a	1	0	0
2131.3186	1	81	n/a	n/a	1	0	0
2131.5186	1	81	n/a	n/a	1	0	0
2131.7186	1	81	n/a	n/a	1	0	0
2131.9186	1	81	n/a	n/a	1	0	0
2132.1186	1	81	n/a	n/a	1	0	0
2132.3186	1	81	n/a	n/a	1	0	0
2133.607	1	10	n/a	n/a	1	52	1
2134.6404	1	10	n/a	n/a	1	52	2
2135.8236	1	10	n/a	n/a	1	52	3
2137.0068	1	21	n/a	n/a	1	52	0
2138.2068	1	10	n/a	n/a	1	52	1
2139.4068	1	21	n/a	n/a	1	52	0
2140.6566	1	10	n/a	n/a	1	52	1
2141.99	1	10	n/a	n/a	1	52	2
2143.1566	1	10	n/a	n/a	1	52	3
2144.3564	1	21	n/a	n/a	1	52	0
2145.623	1	10	n/a	n/a	1	52	1
2146.8562	1	10	n/a	n/a	1	52	2
2147.9562	1	10	n/a	n/a	1	52	3
2149.0394	1	10	n/a	n/a	1	52	4
2150.206	1	10	n/a	n/a	1	52	5
2151.3726	1	21	n/a	n/a	1	52	0
2152.406	1	10	n/a	n/a	1	52	1
2153.4392	1	21	n/a	n/a	1	52	0
2154.5558	1	10	n/a	n/a	1	52	1
2155.889	1	10	n/a	n/a	1	52	2
2156.7844	1	81	n/a	n/a	1	0	0
2156.9844	1	81	n/a	n/a	1	0	0
2157.1844	1	81	n/a	n/a	1	0	0
2157.3844	1	81	n/a	n/a	1	0	0
2157.5844	1	81	n/a	n/a	1	0	0
2157.7852	1	81	n/a	n/a	1	0	0
2157.9852	1	81	n/a	n/a	1	0	0
2158.1852	1	81	n/a	n/a	1	0	0
2158.3852	1	81	n/a	n/a	1	0	0
2158.5852	1	81	n/a	n/a	1	0	0
2159.8056	1	10	n/a	n/a	1	52	1
2161.0388	1	10	n/a	n/a	1	52	2
2162.0888	1	10	n/a	n/a	1	52	3
2163.3554	1	10	n/a	n/a	1	52	4
2164.5886	1	10	n/a	n/a	1	52	5
2165.8218	1	21	n/a	n/a	1	52	0
2166.9718	1	10	n/a	n/a	1	52	1
2168.255	1	10	n/a	n/a	1	52	2
2169.3216	1	10	n/a	n/a	1	52	3
2170.4216	1	10	n/a	n/a	1	52	4
2171.6048	1	10	n/a	n/a	1	52	5
2172.788	1	21	n/a	n/a	1	52	0
2173.888	1	10	n/a	n/a	1	52	1
2174.988	1	21	n/a	n/a	1	52	0
2176.1546	1	10	n/a	n/a	1	52	1
2177.3044	1	21	n/a	n/a	1	52	0
2178.5544	1	10	n/a	n/a	1	52	1
2179.7876	1	10	n/a	n/a	1	52	2
2180.8542	1	10	n/a	n/a	1	52	3
2181.9208	1	21	n/a	n/a	1	52	0
2183.0034	1	81	n/a	n/a	1	0	0
2183.2034	1	81	n/a	n/a	1	0	0
2183.4034	1	81	n/a	n/a	1	0	0
2183.6034	1	81	n/a	n/a	1	0	0
2183.8034	1	81	n/a	n/a	1	0	0
2184.0034	1	81	n/a	n/a	1	0	0
2184.2034	1	81	n/a	n/a	1	0	0
2184.4034	1	81	n/a	n/a	1	0	0
2184.6034	1	81	n/a	n/a	1	0	0
2184.8034	1	81	n/a	n/a	1	0	0
2186.0706	1	10	n/a	n/a	1	52	1
2187.1706	1	10	n/a	n/a	1	52	2
2188.4038	1	10	n/a	n/a	1	52	3
2189.687	1	10	n/a	n/a	1	52	4
2190.787	1	10	n/a	n/a	1	52	5
2192.0536	1	10	n/a	n/a	1	52	6
2193.2536	1	10	n/a	n/a	1	52	7
2194.4534	1	21	n/a	n/a	1	52	0
2195.6868	1	10	n/a	n/a	1	52	1
2196.8534	1	10	n/a	n/a	1	52	2
2198.1366	1	10	n/a	n/a	1	52	3
2199.4198	1	10	n/a	n/a	1	52	4
2200.5364	1	10	n/a	n/a	1	52	5
2201.653	1	21	n/a	n/a	1	52	0
2202.7196	1	10	n/a	n/a	1	52	1
2203.803	1	10	n/a	n/a	1	52	2
2204.9528	1	10	n/a	n/a	1	52	3
2206.1528	1	10	n/a	n/a	1	52	4
2207.3528	1	10	n/a	n/a	1	52	5
2208.5526	1	21	n/a	n/a	1	52	0
