onset	duration	value	response	rt	good	TMS	seq
159.6938	1	82	n/a	n/a	1	0	0
159.8668	1	82	n/a	n/a	1	0	0
160.0158	1	82	n/a	n/a	1	0	0
160.2598	1	82	n/a	n/a	1	0	0
160.3598	1	82	n/a	n/a	1	0	0
160.6938	1	82	n/a	n/a	1	0	0
160.8358	1	82	n/a	n/a	1	0	0
161.1518	1	82	n/a	n/a	1	0	0
161.5648	1	82	n/a	n/a	1	0	0
161.6598	1	82	n/a	n/a	1	0	0
162.6372	1	10	n/a	n/a	1	51	1
163.8204	1	10	n/a	n/a	1	51	2
164.9536	1	10	n/a	n/a	1	51	3
166.2036	1	10	n/a	n/a	1	51	4
167.2702	1	10	n/a	n/a	1	51	5
168.4868	1	10	n/a	n/a	1	51	6
169.5534	1	10	n/a	n/a	1	51	7
170.62	1	21	n/a	n/a	1	51	0
171.8366	1	10	n/a	n/a	1	51	1
172.9366	1	10	n/a	n/a	1	51	2
174.0198	1	10	n/a	n/a	1	51	3
175.103	1	21	n/a	n/a	1	51	0
176.3196	1	10	n/a	n/a	1	51	1
177.6362	1	10	n/a	n/a	1	51	2
178.7362	1	10	n/a	n/a	1	51	3
179.8362	1	21	n/a	n/a	1	51	0
181.0694	1	10	n/a	n/a	1	51	1
182.3694	1	10	n/a	n/a	1	51	2
183.5692	1	10	n/a	n/a	1	51	3
184.7692	1	21	n/a	n/a	1	51	0
185.6198	1	82	n/a	n/a	1	0	0
185.7138	1	82	n/a	n/a	1	0	0
186.0398	1	82	n/a	n/a	1	0	0
186.0928	1	82	n/a	n/a	1	0	0
186.2248	1	82	n/a	n/a	1	0	0
186.6206	1	82	n/a	n/a	1	0	0
186.7496	1	82	n/a	n/a	1	0	0
186.9036	1	82	n/a	n/a	1	0	0
187.1986	1	82	n/a	n/a	1	0	0
187.5666	1	82	n/a	n/a	1	0	0
188.6522	1	10	n/a	n/a	1	51	1
189.8022	1	10	n/a	n/a	1	51	2
191.0688	1	10	n/a	n/a	1	51	3
192.3354	1	21	n/a	n/a	1	51	0
193.502	1	10	n/a	n/a	1	51	1
194.752	1	10	n/a	n/a	1	51	2
196.0686	1	10	n/a	n/a	1	51	3
197.385	1	10	n/a	n/a	1	51	4
198.485	1	10	n/a	n/a	1	51	5
199.6682	1	10	n/a	n/a	1	51	6
200.735	1	10	n/a	n/a	1	51	7
201.8016	1	21	n/a	n/a	1	51	0
203.0014	1	10	n/a	n/a	1	51	1
204.2346	1	10	n/a	n/a	1	51	2
205.3512	1	10	n/a	n/a	1	51	3
206.4678	1	21	n/a	n/a	1	51	0
207.5012	1	10	n/a	n/a	1	51	1
208.5344	1	21	n/a	n/a	1	51	0
209.851	1	10	n/a	n/a	1	51	1
211.0342	1	10	n/a	n/a	1	51	2
212.0868	1	82	n/a	n/a	1	0	0
212.2618	1	82	n/a	n/a	1	0	0
212.6438	1	82	n/a	n/a	1	0	0
212.7248	1	82	n/a	n/a	1	0	0
212.8328	1	82	n/a	n/a	1	0	0
213.0868	1	82	n/a	n/a	1	0	0
213.1128	1	82	n/a	n/a	1	0	0
213.4078	1	82	n/a	n/a	1	0	0
213.7668	1	82	n/a	n/a	1	0	0
214.0238	1	82	n/a	n/a	1	0	0
215.134	1	10	n/a	n/a	1	51	1
216.3174	1	10	n/a	n/a	1	51	2
217.5006	1	10	n/a	n/a	1	51	3
218.7506	1	10	n/a	n/a	1	51	4
220.0338	1	10	n/a	n/a	1	51	5
221.317	1	21	n/a	n/a	1	51	0
222.417	1	10	n/a	n/a	1	51	1
223.5168	1	10	n/a	n/a	1	51	2
224.5668	1	10	n/a	n/a	1	51	3
225.6168	1	21	n/a	n/a	1	51	0
226.8334	1	10	n/a	n/a	1	51	1
227.9832	1	10	n/a	n/a	1	51	2
229.0998	1	10	n/a	n/a	1	51	3
230.3332	1	10	n/a	n/a	1	51	4
231.3664	1	10	n/a	n/a	1	51	5
232.6164	1	10	n/a	n/a	1	51	6
233.7162	1	10	n/a	n/a	1	51	7
234.8162	1	21	n/a	n/a	1	51	0
236.0662	1	10	n/a	n/a	1	51	1
237.3494	1	10	n/a	n/a	1	51	2
238.134	1	82	n/a	n/a	1	0	0
238.461	1	82	n/a	n/a	1	0	0
238.733	1	82	n/a	n/a	1	0	0
238.923	1	82	n/a	n/a	1	0	0
239.028	1	82	n/a	n/a	1	0	0
239.134	1	82	n/a	n/a	1	0	0
239.161	1	82	n/a	n/a	1	0	0
239.591	1	82	n/a	n/a	1	0	0
239.841	1	82	n/a	n/a	1	0	0
239.979	1	82	n/a	n/a	1	0	0
241.0826	1	10	n/a	n/a	1	51	1
242.1824	1	10	n/a	n/a	1	51	2
243.349	1	10	n/a	n/a	1	51	3
244.4156	1	10	n/a	n/a	1	51	4
245.5322	1	10	n/a	n/a	1	51	5
246.6488	1	21	n/a	n/a	1	51	0
247.7154	1	10	n/a	n/a	1	51	1
248.782	1	21	n/a	n/a	1	51	0
250.0154	1	10	n/a	n/a	1	51	1
251.282	1	10	n/a	n/a	1	51	2
252.5986	1	10	n/a	n/a	1	51	3
253.8484	1	10	n/a	n/a	1	51	4
255.115	1	10	n/a	n/a	1	51	5
256.3816	1	21	n/a	n/a	1	51	0
257.4982	1	10	n/a	n/a	1	51	1
258.6814	1	10	n/a	n/a	1	51	2
259.8814	1	10	n/a	n/a	1	51	3
261.1314	1	10	n/a	n/a	1	51	4
262.3812	1	10	n/a	n/a	1	51	5
263.5812	1	10	n/a	n/a	1	51	6
264.3986	1	82	n/a	n/a	1	0	0
264.4296	1	82	n/a	n/a	1	0	0
264.8636	1	82	n/a	n/a	1	0	0
265.0736	1	82	n/a	n/a	1	0	0
265.1946	1	82	n/a	n/a	1	0	0
265.3986	1	82	n/a	n/a	1	0	0
265.4196	1	82	n/a	n/a	1	0	0
265.5476	1	82	n/a	n/a	1	0	0
265.6186	1	82	n/a	n/a	1	0	0
266.0156	1	82	n/a	n/a	1	0	0
267.6142	1	10	n/a	n/a	1	51	1
268.8642	1	10	n/a	n/a	1	51	2
270.0642	1	10	n/a	n/a	1	51	3
271.214	1	10	n/a	n/a	1	51	4
272.264	1	10	n/a	n/a	1	51	5
273.314	1	21	n/a	n/a	1	51	0
274.4638	1	10	n/a	n/a	1	51	1
275.4972	1	10	n/a	n/a	1	51	2
276.6638	1	10	n/a	n/a	1	51	3
277.8304	1	21	n/a	n/a	1	51	0
278.9802	1	10	n/a	n/a	1	51	1
280.1136	1	10	n/a	n/a	1	51	2
281.3134	1	10	n/a	n/a	1	51	3
282.5134	1	21	n/a	n/a	1	51	0
283.7134	1	10	n/a	n/a	1	51	1
285.0466	1	10	n/a	n/a	1	51	2
286.2966	1	10	n/a	n/a	1	51	3
287.5132	1	10	n/a	n/a	1	51	4
288.7464	1	10	n/a	n/a	1	51	5
289.9796	1	21	n/a	n/a	1	51	0
346.0858	1	81	n/a	n/a	1	0	0
346.2858	1	81	n/a	n/a	1	0	0
346.4858	1	81	n/a	n/a	1	0	0
346.6858	1	81	n/a	n/a	1	0	0
346.8858	1	81	n/a	n/a	1	0	0
347.0858	1	81	n/a	n/a	1	0	0
347.2858	1	81	n/a	n/a	1	0	0
347.4858	1	81	n/a	n/a	1	0	0
347.6858	1	81	n/a	n/a	1	0	0
347.8858	1	81	n/a	n/a	1	0	0
349.0094	1	10	n/a	n/a	1	50	1
350.0428	1	21	n/a	n/a	1	50	0
351.3594	1	10	n/a	n/a	1	50	1
352.4926	1	10	n/a	n/a	1	50	2
353.5758	1	10	n/a	n/a	1	50	3
354.6592	1	21	n/a	n/a	1	50	0
355.8924	1	10	n/a	n/a	1	50	1
357.209	1	10	n/a	n/a	1	50	2
358.3922	1	10	n/a	n/a	1	50	3
359.5756	1	10	n/a	n/a	1	50	4
360.6422	1	10	n/a	n/a	1	50	5
361.7088	1	21	n/a	n/a	1	50	0
362.7586	1	10	n/a	n/a	1	50	1
363.892	1	10	n/a	n/a	1	50	2
365.0252	1	10	n/a	n/a	1	50	3
366.1418	1	10	n/a	n/a	1	50	4
367.2084	1	10	n/a	n/a	1	50	5
368.4916	1	10	n/a	n/a	1	50	6
369.6416	1	10	n/a	n/a	1	50	7
370.7916	1	21	n/a	n/a	1	50	0
371.647	1	81	n/a	n/a	1	0	0
371.847	1	81	n/a	n/a	1	0	0
372.047	1	81	n/a	n/a	1	0	0
372.247	1	81	n/a	n/a	1	0	0
372.447	1	81	n/a	n/a	1	0	0
372.647	1	81	n/a	n/a	1	0	0
372.847	1	81	n/a	n/a	1	0	0
373.047	1	81	n/a	n/a	1	0	0
373.247	1	81	n/a	n/a	1	0	0
373.447	1	81	n/a	n/a	1	0	0
374.858	1	10	n/a	n/a	1	50	1
376.1746	1	21	n/a	n/a	1	50	0
377.4244	1	10	n/a	n/a	1	50	1
378.5578	1	10	n/a	n/a	1	50	2
379.841	1	10	n/a	n/a	1	50	3
381.0242	1	10	n/a	n/a	1	50	4
382.2408	1	10	n/a	n/a	1	50	5
383.4574	1	21	n/a	n/a	1	50	0
384.7574	1	10	n/a	n/a	1	50	1
386.0574	1	10	n/a	n/a	1	50	2
387.3572	1	10	n/a	n/a	1	50	3
388.5904	1	10	n/a	n/a	1	50	4
389.707	1	10	n/a	n/a	1	50	5
390.807	1	10	n/a	n/a	1	50	6
392.0902	1	10	n/a	n/a	1	50	7
393.3736	1	21	n/a	n/a	1	50	0
394.6568	1	10	n/a	n/a	1	50	1
395.94	1	21	n/a	n/a	1	50	0
397.1234	1	10	n/a	n/a	1	50	1
398.29	1	10	n/a	n/a	1	50	2
399.1764	1	81	n/a	n/a	1	0	0
399.3764	1	81	n/a	n/a	1	0	0
399.5764	1	81	n/a	n/a	1	0	0
399.7764	1	81	n/a	n/a	1	0	0
399.9764	1	81	n/a	n/a	1	0	0
400.1764	1	81	n/a	n/a	1	0	0
400.3764	1	81	n/a	n/a	1	0	0
400.5764	1	81	n/a	n/a	1	0	0
400.7764	1	81	n/a	n/a	1	0	0
400.9764	1	81	n/a	n/a	1	0	0
402.123	1	10	n/a	n/a	1	50	1
403.373	1	10	n/a	n/a	1	50	2
404.5396	1	10	n/a	n/a	1	50	3
405.8728	1	10	n/a	n/a	1	50	4
406.9394	1	10	n/a	n/a	1	50	5
408.006	1	21	n/a	n/a	1	50	0
409.2226	1	10	n/a	n/a	1	50	1
410.4058	1	10	n/a	n/a	1	50	2
411.5224	1	10	n/a	n/a	1	50	3
412.639	1	21	n/a	n/a	1	50	0
413.8224	1	10	n/a	n/a	1	50	1
414.8556	1	10	n/a	n/a	1	50	2
415.8888	1	10	n/a	n/a	1	50	3
417.2054	1	10	n/a	n/a	1	50	4
418.422	1	10	n/a	n/a	1	50	5
419.6386	1	21	n/a	n/a	1	50	0
420.822	1	10	n/a	n/a	1	50	1
422.0052	1	21	n/a	n/a	1	50	0
423.2052	1	10	n/a	n/a	1	50	1
424.355	1	10	n/a	n/a	1	50	2
425.2374	1	81	n/a	n/a	1	0	0
425.4374	1	81	n/a	n/a	1	0	0
425.6374	1	81	n/a	n/a	1	0	0
425.8374	1	81	n/a	n/a	1	0	0
426.0374	1	81	n/a	n/a	1	0	0
426.2374	1	81	n/a	n/a	1	0	0
426.4374	1	81	n/a	n/a	1	0	0
426.6374	1	81	n/a	n/a	1	0	0
426.8374	1	81	n/a	n/a	1	0	0
427.0374	1	81	n/a	n/a	1	0	0
428.3214	1	10	n/a	n/a	1	50	1
429.6214	1	10	n/a	n/a	1	50	2
430.7546	1	10	n/a	n/a	1	50	3
431.888	1	10	n/a	n/a	1	50	4
433.1712	1	10	n/a	n/a	1	50	5
434.4544	1	21	n/a	n/a	1	50	0
435.6044	1	10	n/a	n/a	1	50	1
436.6376	1	10	n/a	n/a	1	50	2
437.871	1	10	n/a	n/a	1	50	3
439.1708	1	10	n/a	n/a	1	50	4
440.3374	1	10	n/a	n/a	1	50	5
441.504	1	21	n/a	n/a	1	50	0
442.5374	1	10	n/a	n/a	1	50	1
443.5706	1	21	n/a	n/a	1	50	0
444.8538	1	10	n/a	n/a	1	50	1
445.8872	1	10	n/a	n/a	1	50	2
447.0704	1	10	n/a	n/a	1	50	3
448.2536	1	21	n/a	n/a	1	50	0
449.5536	1	10	n/a	n/a	1	50	1
450.8534	1	21	n/a	n/a	1	50	0
451.8052	1	81	n/a	n/a	1	0	0
452.0052	1	81	n/a	n/a	1	0	0
452.2052	1	81	n/a	n/a	1	0	0
452.4052	1	81	n/a	n/a	1	0	0
452.6052	1	81	n/a	n/a	1	0	0
452.8052	1	81	n/a	n/a	1	0	0
453.0052	1	81	n/a	n/a	1	0	0
453.2052	1	81	n/a	n/a	1	0	0
453.4052	1	81	n/a	n/a	1	0	0
453.6052	1	81	n/a	n/a	1	0	0
454.9532	1	10	n/a	n/a	1	50	1
456.1366	1	10	n/a	n/a	1	50	2
457.3698	1	10	n/a	n/a	1	50	3
458.603	1	21	n/a	n/a	1	50	0
459.7196	1	10	n/a	n/a	1	50	1
460.9696	1	10	n/a	n/a	1	50	2
462.2028	1	10	n/a	n/a	1	50	3
463.436	1	21	n/a	n/a	1	50	0
464.6026	1	10	n/a	n/a	1	50	1
465.8192	1	10	n/a	n/a	1	50	2
467.1358	1	10	n/a	n/a	1	50	3
468.2358	1	10	n/a	n/a	1	50	4
469.4358	1	10	n/a	n/a	1	50	5
470.6356	1	21	n/a	n/a	1	50	0
471.9356	1	10	n/a	n/a	1	50	1
473.2356	1	21	n/a	n/a	1	50	0
474.452	1	10	n/a	n/a	1	50	1
475.6186	1	10	n/a	n/a	1	50	2
476.7186	1	10	n/a	n/a	1	50	3
477.9852	1	10	n/a	n/a	1	50	4
509.9148	1	81	n/a	n/a	1	0	0
510.1148	1	81	n/a	n/a	1	0	0
510.3148	1	81	n/a	n/a	1	0	0
510.5148	1	81	n/a	n/a	1	0	0
510.7148	1	81	n/a	n/a	1	0	0
510.9148	1	81	n/a	n/a	1	0	0
511.1148	1	81	n/a	n/a	1	0	0
511.3148	1	81	n/a	n/a	1	0	0
511.5148	1	81	n/a	n/a	1	0	0
511.7148	1	81	n/a	n/a	1	0	0
512.9832	1	10	n/a	n/a	1	52	1
514.283	1	10	n/a	n/a	1	52	2
515.383	1	10	n/a	n/a	1	52	3
516.483	1	21	n/a	n/a	1	52	0
517.6328	1	10	n/a	n/a	1	52	1
518.7328	1	10	n/a	n/a	1	52	2
519.816	1	10	n/a	n/a	1	52	3
520.8994	1	21	n/a	n/a	1	52	0
522.216	1	10	n/a	n/a	1	52	1
523.5326	1	21	n/a	n/a	1	52	0
524.7992	1	10	n/a	n/a	1	52	1
525.8658	1	10	n/a	n/a	1	52	2
526.9324	1	10	n/a	n/a	1	52	3
528.1822	1	10	n/a	n/a	1	52	4
529.2156	1	10	n/a	n/a	1	52	5
530.5322	1	10	n/a	n/a	1	52	6
531.632	1	10	n/a	n/a	1	52	7
532.732	1	21	n/a	n/a	1	52	0
533.982	1	10	n/a	n/a	1	52	1
535.2318	1	21	n/a	n/a	1	52	0
535.9646	1	81	n/a	n/a	1	0	0
536.1646	1	81	n/a	n/a	1	0	0
536.3646	1	81	n/a	n/a	1	0	0
536.5646	1	81	n/a	n/a	1	0	0
536.7646	1	81	n/a	n/a	1	0	0
536.9646	1	81	n/a	n/a	1	0	0
537.1646	1	81	n/a	n/a	1	0	0
537.3646	1	81	n/a	n/a	1	0	0
537.5646	1	81	n/a	n/a	1	0	0
537.7646	1	81	n/a	n/a	1	0	0
539.0816	1	10	n/a	n/a	1	52	1
540.1648	1	10	n/a	n/a	1	52	2
541.2814	1	10	n/a	n/a	1	52	3
542.5314	1	10	n/a	n/a	1	52	4
543.6314	1	10	n/a	n/a	1	52	5
544.948	1	10	n/a	n/a	1	52	6
546.0312	1	10	n/a	n/a	1	52	7
547.1144	1	21	n/a	n/a	1	52	0
548.2478	1	10	n/a	n/a	1	52	1
549.3976	1	10	n/a	n/a	1	52	2
550.6976	1	10	n/a	n/a	1	52	3
551.9976	1	21	n/a	n/a	1	52	0
553.0808	1	10	n/a	n/a	1	52	1
554.3474	1	10	n/a	n/a	1	52	2
555.564	1	10	n/a	n/a	1	52	3
556.5972	1	10	n/a	n/a	1	52	4
557.6472	1	10	n/a	n/a	1	52	5
558.6972	1	21	n/a	n/a	1	52	0
560.0138	1	10	n/a	n/a	1	52	1
561.2804	1	10	n/a	n/a	1	52	2
562.2938	1	81	n/a	n/a	1	0	0
562.4938	1	81	n/a	n/a	1	0	0
562.6938	1	81	n/a	n/a	1	0	0
562.8938	1	81	n/a	n/a	1	0	0
563.0938	1	81	n/a	n/a	1	0	0
563.2938	1	81	n/a	n/a	1	0	0
563.4938	1	81	n/a	n/a	1	0	0
563.6938	1	81	n/a	n/a	1	0	0
563.8938	1	81	n/a	n/a	1	0	0
564.0938	1	81	n/a	n/a	1	0	0
565.38	1	10	n/a	n/a	1	52	1
566.6134	1	10	n/a	n/a	1	52	2
567.7966	1	10	n/a	n/a	1	52	3
568.9798	1	21	n/a	n/a	1	52	0
570.2132	1	10	n/a	n/a	1	52	1
571.2964	1	10	n/a	n/a	1	52	2
572.413	1	10	n/a	n/a	1	52	3
573.513	1	10	n/a	n/a	1	52	4
574.5628	1	10	n/a	n/a	1	52	5
575.8128	1	10	n/a	n/a	1	52	6
576.896	1	10	n/a	n/a	1	52	7
577.9794	1	21	n/a	n/a	1	52	0
579.096	1	10	n/a	n/a	1	52	1
580.2126	1	21	n/a	n/a	1	52	0
581.2458	1	10	n/a	n/a	1	52	1
582.379	1	10	n/a	n/a	1	52	2
583.429	1	10	n/a	n/a	1	52	3
584.6456	1	10	n/a	n/a	1	52	4
585.8122	1	10	n/a	n/a	1	52	5
587.0954	1	10	n/a	n/a	1	52	6
587.948	1	81	n/a	n/a	1	0	0
588.148	1	81	n/a	n/a	1	0	0
588.348	1	81	n/a	n/a	1	0	0
588.548	1	81	n/a	n/a	1	0	0
588.7478	1	81	n/a	n/a	1	0	0
588.948	1	81	n/a	n/a	1	0	0
589.148	1	81	n/a	n/a	1	0	0
589.348	1	81	n/a	n/a	1	0	0
589.548	1	81	n/a	n/a	1	0	0
589.748	1	81	n/a	n/a	1	0	0
590.8786	1	10	n/a	n/a	1	52	1
591.9118	1	21	n/a	n/a	1	52	0
592.9952	1	10	n/a	n/a	1	52	1
594.095	1	21	n/a	n/a	1	52	0
595.2116	1	10	n/a	n/a	1	52	1
596.5116	1	10	n/a	n/a	1	52	2
597.5782	1	10	n/a	n/a	1	52	3
598.6614	1	10	n/a	n/a	1	52	4
599.9114	1	10	n/a	n/a	1	52	5
601.1614	1	21	n/a	n/a	1	52	0
602.3278	1	10	n/a	n/a	1	52	1
603.4446	1	10	n/a	n/a	1	52	2
604.4944	1	10	n/a	n/a	1	52	3
605.5444	1	21	n/a	n/a	1	52	0
606.711	1	10	n/a	n/a	1	52	1
607.8776	1	21	n/a	n/a	1	52	0
609.1108	1	10	n/a	n/a	1	52	1
610.344	1	21	n/a	n/a	1	52	0
611.5606	1	10	n/a	n/a	1	52	1
612.7772	1	21	n/a	n/a	1	52	0
613.672	1	81	n/a	n/a	1	0	0
613.872	1	81	n/a	n/a	1	0	0
614.072	1	81	n/a	n/a	1	0	0
614.272	1	81	n/a	n/a	1	0	0
614.472	1	81	n/a	n/a	1	0	0
614.672	1	81	n/a	n/a	1	0	0
614.872	1	81	n/a	n/a	1	0	0
615.072	1	81	n/a	n/a	1	0	0
615.272	1	81	n/a	n/a	1	0	0
615.472	1	81	n/a	n/a	1	0	0
616.6604	1	10	n/a	n/a	1	52	1
617.9104	1	10	n/a	n/a	1	52	2
619.0602	1	10	n/a	n/a	1	52	3
620.2102	1	21	n/a	n/a	1	52	0
621.4434	1	10	n/a	n/a	1	52	1
622.6768	1	21	n/a	n/a	1	52	0
623.8434	1	10	n/a	n/a	1	52	1
625.0098	1	10	n/a	n/a	1	52	2
626.1598	1	10	n/a	n/a	1	52	3
627.4598	1	10	n/a	n/a	1	52	4
628.543	1	10	n/a	n/a	1	52	5
629.593	1	10	n/a	n/a	1	52	6
630.7262	1	10	n/a	n/a	1	52	7
631.8596	1	21	n/a	n/a	1	52	0
633.1594	1	10	n/a	n/a	1	52	1
634.3594	1	10	n/a	n/a	1	52	2
635.5926	1	10	n/a	n/a	1	52	3
636.7592	1	10	n/a	n/a	1	52	4
638.0758	1	10	n/a	n/a	1	52	5
639.3924	1	21	n/a	n/a	1	52	0
684.2418	1	82	n/a	n/a	1	0	0
684.5258	1	82	n/a	n/a	1	0	0
684.8828	1	82	n/a	n/a	1	0	0
684.9118	1	82	n/a	n/a	1	0	0
685.0648	1	82	n/a	n/a	1	0	0
685.2418	1	82	n/a	n/a	1	0	0
685.2648	1	82	n/a	n/a	1	0	0
685.6268	1	82	n/a	n/a	1	0	0
685.7448	1	82	n/a	n/a	1	0	0
686.1698	1	82	n/a	n/a	1	0	0
687.1896	1	10	n/a	n/a	1	52	1
688.3894	1	10	n/a	n/a	1	52	2
689.706	1	10	n/a	n/a	1	52	3
691.006	1	10	n/a	n/a	1	52	4
692.0392	1	10	n/a	n/a	1	52	5
693.1226	1	10	n/a	n/a	1	52	6
694.2558	1	10	n/a	n/a	1	52	7
695.389	1	21	n/a	n/a	1	52	0
696.5724	1	10	n/a	n/a	1	52	1
697.6722	1	10	n/a	n/a	1	52	2
698.8388	1	10	n/a	n/a	1	52	3
699.8722	1	10	n/a	n/a	1	52	4
701.0554	1	10	n/a	n/a	1	52	5
702.2386	1	21	n/a	n/a	1	52	0
703.5552	1	10	n/a	n/a	1	52	1
704.8718	1	10	n/a	n/a	1	52	2
706.1218	1	10	n/a	n/a	1	52	3
707.3718	1	10	n/a	n/a	1	52	4
708.605	1	10	n/a	n/a	1	52	5
709.8216	1	10	n/a	n/a	1	52	6
710.757	1	82	n/a	n/a	1	0	0
710.877	1	82	n/a	n/a	1	0	0
711.208	1	82	n/a	n/a	1	0	0
711.449	1	82	n/a	n/a	1	0	0
711.621	1	82	n/a	n/a	1	0	0
711.757	1	82	n/a	n/a	1	0	0
711.877	1	82	n/a	n/a	1	0	0
711.932	1	82	n/a	n/a	1	0	0
712.312	1	82	n/a	n/a	1	0	0
712.562	1	82	n/a	n/a	1	0	0
713.9046	1	10	n/a	n/a	1	52	1
715.1546	1	21	n/a	n/a	1	52	0
716.3378	1	10	n/a	n/a	1	52	1
717.4878	1	10	n/a	n/a	1	52	2
718.771	1	10	n/a	n/a	1	52	3
719.8544	1	10	n/a	n/a	1	52	4
721.1042	1	10	n/a	n/a	1	52	5
722.2208	1	10	n/a	n/a	1	52	6
723.5208	1	10	n/a	n/a	1	52	7
724.8206	1	21	n/a	n/a	1	52	0
726.1206	1	10	n/a	n/a	1	52	1
727.2538	1	10	n/a	n/a	1	52	2
728.5038	1	10	n/a	n/a	1	52	3
729.7204	1	10	n/a	n/a	1	52	4
730.8536	1	10	n/a	n/a	1	52	5
731.9536	1	10	n/a	n/a	1	52	6
733.1868	1	10	n/a	n/a	1	52	7
734.4202	1	21	n/a	n/a	1	52	0
735.57	1	10	n/a	n/a	1	52	1
736.7534	1	10	n/a	n/a	1	52	2
737.5988	1	82	n/a	n/a	1	0	0
737.7308	1	82	n/a	n/a	1	0	0
738.0058	1	82	n/a	n/a	1	0	0
738.0418	1	82	n/a	n/a	1	0	0
738.3618	1	82	n/a	n/a	1	0	0
738.5988	1	82	n/a	n/a	1	0	0
738.6558	1	82	n/a	n/a	1	0	0
738.7398	1	82	n/a	n/a	1	0	0
738.7698	1	82	n/a	n/a	1	0	0
739.0078	1	82	n/a	n/a	1	0	0
740.6198	1	10	n/a	n/a	1	52	1
741.6864	1	10	n/a	n/a	1	52	2
742.9696	1	10	n/a	n/a	1	52	3
744.0528	1	10	n/a	n/a	1	52	4
745.1528	1	10	n/a	n/a	1	52	5
746.2694	1	10	n/a	n/a	1	52	6
747.436	1	10	n/a	n/a	1	52	7
748.6026	1	21	n/a	n/a	1	52	0
749.6692	1	10	n/a	n/a	1	52	1
750.8192	1	10	n/a	n/a	1	52	2
752.0024	1	10	n/a	n/a	1	52	3
753.319	1	10	n/a	n/a	1	52	4
754.419	1	10	n/a	n/a	1	52	5
755.6522	1	10	n/a	n/a	1	52	6
756.7688	1	10	n/a	n/a	1	52	7
757.8854	1	21	n/a	n/a	1	52	0
759.052	1	10	n/a	n/a	1	52	1
760.1186	1	10	n/a	n/a	1	52	2
761.3852	1	10	n/a	n/a	1	52	3
762.6518	1	21	n/a	n/a	1	52	0
763.3804	1	82	n/a	n/a	1	0	0
763.4034	1	82	n/a	n/a	1	0	0
763.6414	1	82	n/a	n/a	1	0	0
763.7434	1	82	n/a	n/a	1	0	0
764.0034	1	82	n/a	n/a	1	0	0
764.3806	1	82	n/a	n/a	1	0	0
764.7724	1	82	n/a	n/a	1	0	0
764.9434	1	82	n/a	n/a	1	0	0
765.2034	1	82	n/a	n/a	1	0	0
765.3134	1	82	n/a	n/a	1	0	0
766.5848	1	10	n/a	n/a	1	52	1
767.6514	1	10	n/a	n/a	1	52	2
768.8014	1	10	n/a	n/a	1	52	3
770.068	1	10	n/a	n/a	1	52	4
771.118	1	10	n/a	n/a	1	52	5
772.1678	1	21	n/a	n/a	1	52	0
773.4678	1	10	n/a	n/a	1	52	1
774.7678	1	10	n/a	n/a	1	52	2
776.0844	1	10	n/a	n/a	1	52	3
777.201	1	10	n/a	n/a	1	52	4
778.4008	1	10	n/a	n/a	1	52	5
779.6008	1	21	n/a	n/a	1	52	0
780.7508	1	10	n/a	n/a	1	52	1
781.9006	1	21	n/a	n/a	1	52	0
782.9506	1	10	n/a	n/a	1	52	1
784.2006	1	10	n/a	n/a	1	52	2
785.4504	1	10	n/a	n/a	1	52	3
786.7004	1	21	n/a	n/a	1	52	0
787.9836	1	10	n/a	n/a	1	52	1
789.017	1	10	n/a	n/a	1	52	2
790.0974	1	82	n/a	n/a	1	0	0
790.2714	1	82	n/a	n/a	1	0	0
790.4984	1	82	n/a	n/a	1	0	0
790.5184	1	82	n/a	n/a	1	0	0
790.7944	1	82	n/a	n/a	1	0	0
791.0974	1	82	n/a	n/a	1	0	0
791.1674	1	82	n/a	n/a	1	0	0
791.5104	1	82	n/a	n/a	1	0	0
791.6914	1	82	n/a	n/a	1	0	0
791.9504	1	82	n/a	n/a	1	0	0
793.1666	1	10	n/a	n/a	1	52	1
794.2832	1	10	n/a	n/a	1	52	2
795.5498	1	10	n/a	n/a	1	52	3
796.6332	1	10	n/a	n/a	1	52	4
797.8498	1	10	n/a	n/a	1	52	5
798.9996	1	10	n/a	n/a	1	52	6
800.1662	1	10	n/a	n/a	1	52	7
801.3328	1	21	n/a	n/a	1	52	0
802.6494	1	10	n/a	n/a	1	52	1
803.6994	1	10	n/a	n/a	1	52	2
804.766	1	10	n/a	n/a	1	52	3
805.816	1	10	n/a	n/a	1	52	4
806.9158	1	10	n/a	n/a	1	52	5
808.1492	1	10	n/a	n/a	1	52	6
809.3658	1	10	n/a	n/a	1	52	7
810.5822	1	21	n/a	n/a	1	52	0
811.8656	1	10	n/a	n/a	1	52	1
813.1488	1	21	n/a	n/a	1	52	0
814.282	1	10	n/a	n/a	1	52	1
815.4154	1	21	n/a	n/a	1	52	0
826.4054	1	82	n/a	n/a	1	0	0
826.4464	1	82	n/a	n/a	1	0	0
826.5834	1	82	n/a	n/a	1	0	0
826.8684	1	82	n/a	n/a	1	0	0
827.2574	1	82	n/a	n/a	1	0	0
827.4054	1	82	n/a	n/a	1	0	0
827.5724	1	82	n/a	n/a	1	0	0
827.6364	1	82	n/a	n/a	1	0	0
827.9734	1	82	n/a	n/a	1	0	0
828.2344	1	82	n/a	n/a	1	0	0
829.5812	1	10	n/a	n/a	1	50	1
830.7312	1	10	n/a	n/a	1	50	2
831.881	1	10	n/a	n/a	1	50	3
833.031	1	21	n/a	n/a	1	50	0
834.2142	1	10	n/a	n/a	1	50	1
835.5142	1	10	n/a	n/a	1	50	2
836.764	1	10	n/a	n/a	1	50	3
837.914	1	10	n/a	n/a	1	50	4
838.9806	1	10	n/a	n/a	1	50	5
840.0472	1	21	n/a	n/a	1	50	0
841.2304	1	10	n/a	n/a	1	50	1
842.497	1	10	n/a	n/a	1	50	2
843.5804	1	10	n/a	n/a	1	50	3
844.6136	1	10	n/a	n/a	1	50	4
845.6802	1	10	n/a	n/a	1	50	5
846.7468	1	21	n/a	n/a	1	50	0
847.93	1	10	n/a	n/a	1	50	1
849.23	1	10	n/a	n/a	1	50	2
850.33	1	10	n/a	n/a	1	50	3
851.5466	1	10	n/a	n/a	1	50	4
852.411	1	82	n/a	n/a	1	0	0
852.468	1	82	n/a	n/a	1	0	0
852.612	1	82	n/a	n/a	1	0	0
852.87	1	82	n/a	n/a	1	0	0
853.175	1	82	n/a	n/a	1	0	0
853.411	1	82	n/a	n/a	1	0	0
853.634	1	82	n/a	n/a	1	0	0
853.907	1	82	n/a	n/a	1	0	0
853.975	1	82	n/a	n/a	1	0	0
854.31	1	82	n/a	n/a	1	0	0
855.5796	1	10	n/a	n/a	1	50	1
856.8296	1	10	n/a	n/a	1	50	2
858.0128	1	10	n/a	n/a	1	50	3
859.246	1	10	n/a	n/a	1	50	4
860.296	1	10	n/a	n/a	1	50	5
861.346	1	21	n/a	n/a	1	50	0
862.496	1	10	n/a	n/a	1	50	1
863.6458	1	21	n/a	n/a	1	50	0
864.7792	1	10	n/a	n/a	1	50	1
865.9456	1	10	n/a	n/a	1	50	2
867.079	1	10	n/a	n/a	1	50	3
868.1622	1	10	n/a	n/a	1	50	4
869.4288	1	10	n/a	n/a	1	50	5
870.7288	1	10	n/a	n/a	1	50	6
872.0454	1	10	n/a	n/a	1	50	7
873.362	1	21	n/a	n/a	1	50	0
874.6618	1	10	n/a	n/a	1	50	1
875.8952	1	10	n/a	n/a	1	50	2
877.0618	1	10	n/a	n/a	1	50	3
878.295	1	10	n/a	n/a	1	50	4
879.3924	1	82	n/a	n/a	1	0	0
879.4174	1	82	n/a	n/a	1	0	0
879.7764	1	82	n/a	n/a	1	0	0
880.0044	1	82	n/a	n/a	1	0	0
880.1654	1	82	n/a	n/a	1	0	0
880.3924	1	82	n/a	n/a	1	0	0
880.6834	1	82	n/a	n/a	1	0	0
880.7444	1	82	n/a	n/a	1	0	0
880.9824	1	82	n/a	n/a	1	0	0
881.0224	1	82	n/a	n/a	1	0	0
882.578	1	10	n/a	n/a	1	50	1
883.878	1	10	n/a	n/a	1	50	2
884.978	1	10	n/a	n/a	1	50	3
886.3112	1	10	n/a	n/a	1	50	4
887.4944	1	10	n/a	n/a	1	50	5
888.6776	1	21	n/a	n/a	1	50	0
889.8776	1	10	n/a	n/a	1	50	1
891.0108	1	10	n/a	n/a	1	50	2
892.2774	1	10	n/a	n/a	1	50	3
893.544	1	21	n/a	n/a	1	50	0
894.6774	1	10	n/a	n/a	1	50	1
895.894	1	10	n/a	n/a	1	50	2
897.1606	1	10	n/a	n/a	1	50	3
898.2272	1	10	n/a	n/a	1	50	4
899.4938	1	10	n/a	n/a	1	50	5
900.7604	1	21	n/a	n/a	1	50	0
902.027	1	10	n/a	n/a	1	50	1
903.3434	1	10	n/a	n/a	1	50	2
904.6434	1	10	n/a	n/a	1	50	3
905.9434	1	21	n/a	n/a	1	50	0
907.0068	1	82	n/a	n/a	1	0	0
907.1388	1	82	n/a	n/a	1	0	0
907.3738	1	82	n/a	n/a	1	0	0
907.5878	1	82	n/a	n/a	1	0	0
907.8608	1	82	n/a	n/a	1	0	0
908.0068	1	82	n/a	n/a	1	0	0
908.1208	1	82	n/a	n/a	1	0	0
908.1948	1	82	n/a	n/a	1	0	0
908.4918	1	82	n/a	n/a	1	0	0
908.7498	1	82	n/a	n/a	1	0	0
910.0264	1	10	n/a	n/a	1	50	1
911.2596	1	10	n/a	n/a	1	50	2
912.4596	1	10	n/a	n/a	1	50	3
913.6596	1	21	n/a	n/a	1	50	0
914.8928	1	10	n/a	n/a	1	50	1
916.0428	1	10	n/a	n/a	1	50	2
917.326	1	10	n/a	n/a	1	50	3
918.6092	1	21	n/a	n/a	1	50	0
919.6592	1	10	n/a	n/a	1	50	1
920.7092	1	21	n/a	n/a	1	50	0
921.959	1	10	n/a	n/a	1	50	1
923.209	1	21	n/a	n/a	1	50	0
924.309	1	10	n/a	n/a	1	50	1
925.4588	1	10	n/a	n/a	1	50	2
926.6588	1	10	n/a	n/a	1	50	3
927.8588	1	21	n/a	n/a	1	50	0
928.9754	1	10	n/a	n/a	1	50	1
930.292	1	10	n/a	n/a	1	50	2
931.3586	1	10	n/a	n/a	1	50	3
932.4252	1	21	n/a	n/a	1	50	0
933.2918	1	82	n/a	n/a	1	0	0
933.4028	1	82	n/a	n/a	1	0	0
933.4308	1	82	n/a	n/a	1	0	0
933.6998	1	82	n/a	n/a	1	0	0
934.0308	1	82	n/a	n/a	1	0	0
934.2918	1	82	n/a	n/a	1	0	0
934.5808	1	82	n/a	n/a	1	0	0
934.9678	1	82	n/a	n/a	1	0	0
935.0578	1	82	n/a	n/a	1	0	0
935.2098	1	82	n/a	n/a	1	0	0
936.3748	1	10	n/a	n/a	1	50	1
937.6248	1	10	n/a	n/a	1	50	2
938.858	1	10	n/a	n/a	1	50	3
940.1246	1	10	n/a	n/a	1	50	4
941.208	1	10	n/a	n/a	1	50	5
942.2912	1	21	n/a	n/a	1	50	0
943.5912	1	10	n/a	n/a	1	50	1
944.741	1	10	n/a	n/a	1	50	2
945.9076	1	10	n/a	n/a	1	50	3
946.9576	1	10	n/a	n/a	1	50	4
948.0742	1	10	n/a	n/a	1	50	5
949.1574	1	10	n/a	n/a	1	50	6
950.224	1	10	n/a	n/a	1	50	7
951.2906	1	21	n/a	n/a	1	50	0
952.5906	1	10	n/a	n/a	1	50	1
953.7406	1	10	n/a	n/a	1	50	2
954.9572	1	10	n/a	n/a	1	50	3
956.107	1	10	n/a	n/a	1	50	4
957.2736	1	10	n/a	n/a	1	50	5
958.4402	1	21	n/a	n/a	1	50	0
977.5724	1	81	n/a	n/a	1	0	0
977.7724	1	81	n/a	n/a	1	0	0
977.9724	1	81	n/a	n/a	1	0	0
978.1724	1	81	n/a	n/a	1	0	0
978.3724	1	81	n/a	n/a	1	0	0
978.5724	1	81	n/a	n/a	1	0	0
978.7724	1	81	n/a	n/a	1	0	0
978.9724	1	81	n/a	n/a	1	0	0
979.1724	1	81	n/a	n/a	1	0	0
979.3724	1	81	n/a	n/a	1	0	0
980.6556	1	10	n/a	n/a	1	51	1
981.7388	1	10	n/a	n/a	1	51	2
982.9054	1	10	n/a	n/a	1	51	3
984.072	1	21	n/a	n/a	1	51	0
985.2386	1	10	n/a	n/a	1	51	1
986.522	1	10	n/a	n/a	1	51	2
987.7218	1	10	n/a	n/a	1	51	3
988.8052	1	10	n/a	n/a	1	51	4
989.905	1	10	n/a	n/a	1	51	5
991.155	1	10	n/a	n/a	1	51	6
992.3882	1	10	n/a	n/a	1	51	7
993.6216	1	21	n/a	n/a	1	51	0
994.838	1	10	n/a	n/a	1	51	1
996.0046	1	10	n/a	n/a	1	51	2
997.0546	1	10	n/a	n/a	1	51	3
998.1546	1	10	n/a	n/a	1	51	4
999.3046	1	10	n/a	n/a	1	51	5
1000.4544	1	21	n/a	n/a	1	51	0
1001.621	1	10	n/a	n/a	1	51	1
1002.7876	1	10	n/a	n/a	1	51	2
1003.519	1	81	n/a	n/a	1	0	0
1003.719	1	81	n/a	n/a	1	0	0
1003.919	1	81	n/a	n/a	1	0	0
1004.119	1	81	n/a	n/a	1	0	0
1004.319	1	81	n/a	n/a	1	0	0
1004.519	1	81	n/a	n/a	1	0	0
1004.719	1	81	n/a	n/a	1	0	0
1004.919	1	81	n/a	n/a	1	0	0
1005.119	1	81	n/a	n/a	1	0	0
1005.319	1	81	n/a	n/a	1	0	0
1006.604	1	10	n/a	n/a	1	51	1
1007.7874	1	10	n/a	n/a	1	51	2
1009.1206	1	10	n/a	n/a	1	51	3
1010.3538	1	10	n/a	n/a	1	51	4
1011.6872	1	10	n/a	n/a	1	51	5
1012.7038	1	10	n/a	n/a	1	51	6
1013.9536	1	10	n/a	n/a	1	51	7
1015.2036	1	21	n/a	n/a	1	51	0
1016.5202	1	10	n/a	n/a	1	51	1
1017.8368	1	21	n/a	n/a	1	51	0
1018.97	1	10	n/a	n/a	1	51	1
1020.22	1	10	n/a	n/a	1	51	2
1021.4698	1	10	n/a	n/a	1	51	3
1022.5532	1	10	n/a	n/a	1	51	4
1023.803	1	10	n/a	n/a	1	51	5
1025.053	1	21	n/a	n/a	1	51	0
1026.103	1	10	n/a	n/a	1	51	1
1027.3362	1	10	n/a	n/a	1	51	2
1028.6528	1	10	n/a	n/a	1	51	3
1029.9026	1	10	n/a	n/a	1	51	4
1030.7962	1	81	n/a	n/a	1	0	0
1030.996	1	81	n/a	n/a	1	0	0
1031.196	1	81	n/a	n/a	1	0	0
1031.396	1	81	n/a	n/a	1	0	0
1031.596	1	81	n/a	n/a	1	0	0
1031.7962	1	81	n/a	n/a	1	0	0
1031.9962	1	81	n/a	n/a	1	0	0
1032.1962	1	81	n/a	n/a	1	0	0
1032.3962	1	81	n/a	n/a	1	0	0
1032.5962	1	81	n/a	n/a	1	0	0
1034.0024	1	10	n/a	n/a	1	51	1
1035.0524	1	10	n/a	n/a	1	51	2
1036.1356	1	10	n/a	n/a	1	51	3
1037.269	1	10	n/a	n/a	1	51	4
1038.3188	1	10	n/a	n/a	1	51	5
1039.5522	1	10	n/a	n/a	1	51	6
1040.6688	1	10	n/a	n/a	1	51	7
1041.8186	1	21	n/a	n/a	1	51	0
1043.1186	1	10	n/a	n/a	1	51	1
1044.3352	1	10	n/a	n/a	1	51	2
1045.6184	1	10	n/a	n/a	1	51	3
1046.7184	1	10	n/a	n/a	1	51	4
1047.7684	1	10	n/a	n/a	1	51	5
1048.835	1	10	n/a	n/a	1	51	6
1049.9848	1	10	n/a	n/a	1	51	7
1051.1348	1	21	n/a	n/a	1	51	0
1052.2014	1	10	n/a	n/a	1	51	1
1053.268	1	21	n/a	n/a	1	51	0
1054.3512	1	10	n/a	n/a	1	51	1
1055.5846	1	10	n/a	n/a	1	51	2
1056.5026	1	81	n/a	n/a	1	0	0
1056.7026	1	81	n/a	n/a	1	0	0
1056.9026	1	81	n/a	n/a	1	0	0
1057.1026	1	81	n/a	n/a	1	0	0
1057.3026	1	81	n/a	n/a	1	0	0
1057.5026	1	81	n/a	n/a	1	0	0
1057.7026	1	81	n/a	n/a	1	0	0
1057.9026	1	81	n/a	n/a	1	0	0
1058.1026	1	81	n/a	n/a	1	0	0
1058.3026	1	81	n/a	n/a	1	0	0
1059.601	1	10	n/a	n/a	1	51	1
1060.8676	1	10	n/a	n/a	1	51	2
1061.9174	1	10	n/a	n/a	1	51	3
1063.234	1	10	n/a	n/a	1	51	4
1064.3174	1	10	n/a	n/a	1	51	5
1065.4506	1	10	n/a	n/a	1	51	6
1066.7006	1	10	n/a	n/a	1	51	7
1067.9838	1	21	n/a	n/a	1	51	0
1069.117	1	10	n/a	n/a	1	51	1
1070.4004	1	10	n/a	n/a	1	51	2
1071.517	1	10	n/a	n/a	1	51	3
1072.6336	1	21	n/a	n/a	1	51	0
1073.6834	1	10	n/a	n/a	1	51	1
1074.7334	1	21	n/a	n/a	1	51	0
1075.7666	1	10	n/a	n/a	1	51	1
1077.0666	1	10	n/a	n/a	1	51	2
1078.2832	1	10	n/a	n/a	1	51	3
1079.4998	1	21	n/a	n/a	1	51	0
1080.7664	1	10	n/a	n/a	1	51	1
1081.933	1	10	n/a	n/a	1	51	2
1082.6774	1	81	n/a	n/a	1	0	0
1082.8774	1	81	n/a	n/a	1	0	0
1083.0774	1	81	n/a	n/a	1	0	0
1083.2774	1	81	n/a	n/a	1	0	0
1083.4774	1	81	n/a	n/a	1	0	0
1083.6774	1	81	n/a	n/a	1	0	0
1083.8774	1	81	n/a	n/a	1	0	0
1084.0774	1	81	n/a	n/a	1	0	0
1084.2774	1	81	n/a	n/a	1	0	0
1084.4774	1	81	n/a	n/a	1	0	0
1085.766	1	10	n/a	n/a	1	51	1
1087.016	1	10	n/a	n/a	1	51	2
1088.116	1	10	n/a	n/a	1	51	3
1089.1826	1	10	n/a	n/a	1	51	4
1090.3658	1	10	n/a	n/a	1	51	5
1091.6158	1	10	n/a	n/a	1	51	6
1092.8824	1	10	n/a	n/a	1	51	7
1094.149	1	21	n/a	n/a	1	51	0
1095.1988	1	10	n/a	n/a	1	51	1
1096.2488	1	21	n/a	n/a	1	51	0
1097.5654	1	10	n/a	n/a	1	51	1
1098.8154	1	10	n/a	n/a	1	51	2
1099.9986	1	10	n/a	n/a	1	51	3
1101.2984	1	10	n/a	n/a	1	51	4
1102.5318	1	10	n/a	n/a	1	51	5
1103.765	1	21	n/a	n/a	1	51	0
1105.0816	1	10	n/a	n/a	1	51	1
1106.3982	1	21	n/a	n/a	1	51	0
1107.6982	1	10	n/a	n/a	1	51	1
1108.998	1	10	n/a	n/a	1	51	2
1159.4626	1	82	n/a	n/a	1	0	0
1159.7534	1	82	n/a	n/a	1	0	0
1159.7924	1	82	n/a	n/a	1	0	0
1160.0284	1	82	n/a	n/a	1	0	0
1160.1544	1	82	n/a	n/a	1	0	0
1160.4626	1	82	n/a	n/a	1	0	0
1160.6326	1	82	n/a	n/a	1	0	0
1160.7586	1	82	n/a	n/a	1	0	0
1161.0726	1	82	n/a	n/a	1	0	0
1161.3016	1	82	n/a	n/a	1	0	0
1162.6116	1	10	n/a	n/a	1	52	1
1163.8948	1	10	n/a	n/a	1	52	2
1165.128	1	10	n/a	n/a	1	52	3
1166.3614	1	21	n/a	n/a	1	52	0
1167.478	1	10	n/a	n/a	1	52	1
1168.5946	1	21	n/a	n/a	1	52	0
1169.7944	1	10	n/a	n/a	1	52	1
1170.9778	1	10	n/a	n/a	1	52	2
1172.161	1	10	n/a	n/a	1	52	3
1173.3442	1	21	n/a	n/a	1	52	0
1174.4776	1	10	n/a	n/a	1	52	1
1175.7774	1	10	n/a	n/a	1	52	2
1176.894	1	10	n/a	n/a	1	52	3
1177.944	1	10	n/a	n/a	1	52	4
1179.2606	1	10	n/a	n/a	1	52	5
1180.5772	1	21	n/a	n/a	1	52	0
1181.677	1	10	n/a	n/a	1	52	1
1182.777	1	10	n/a	n/a	1	52	2
1183.927	1	10	n/a	n/a	1	52	3
1185.0768	1	21	n/a	n/a	1	52	0
1185.9196	1	82	n/a	n/a	1	0	0
1185.9786	1	82	n/a	n/a	1	0	0
1186.3246	1	82	n/a	n/a	1	0	0
1186.3466	1	82	n/a	n/a	1	0	0
1186.6416	1	82	n/a	n/a	1	0	0
1186.9196	1	82	n/a	n/a	1	0	0
1186.9416	1	82	n/a	n/a	1	0	0
1187.0736	1	82	n/a	n/a	1	0	0
1187.2986	1	82	n/a	n/a	1	0	0
1187.5456	1	82	n/a	n/a	1	0	0
1188.9766	1	10	n/a	n/a	1	52	1
1190.06	1	10	n/a	n/a	1	52	2
1191.3266	1	10	n/a	n/a	1	52	3
1192.5098	1	10	n/a	n/a	1	52	4
1193.7598	1	10	n/a	n/a	1	52	5
1195.0096	1	21	n/a	n/a	1	52	0
1196.1428	1	10	n/a	n/a	1	52	1
1197.2762	1	21	n/a	n/a	1	52	0
1198.3094	1	10	n/a	n/a	1	52	1
1199.376	1	10	n/a	n/a	1	52	2
1200.526	1	10	n/a	n/a	1	52	3
1201.726	1	10	n/a	n/a	1	52	4
1202.9924	1	10	n/a	n/a	1	52	5
1204.259	1	21	n/a	n/a	1	52	0
1205.3424	1	10	n/a	n/a	1	52	1
1206.4256	1	21	n/a	n/a	1	52	0
1207.4756	1	10	n/a	n/a	1	52	1
1208.5088	1	10	n/a	n/a	1	52	2
1209.7254	1	10	n/a	n/a	1	52	3
1210.9086	1	10	n/a	n/a	1	52	4
1211.7952	1	82	n/a	n/a	1	0	0
1212.0352	1	82	n/a	n/a	1	0	0
1212.0892	1	82	n/a	n/a	1	0	0
1212.4022	1	82	n/a	n/a	1	0	0
1212.5192	1	82	n/a	n/a	1	0	0
1212.7952	1	82	n/a	n/a	1	0	0
1213.2032	1	82	n/a	n/a	1	0	0
1213.3312	1	82	n/a	n/a	1	0	0
1213.4102	1	82	n/a	n/a	1	0	0
1213.5762	1	82	n/a	n/a	1	0	0
1214.9418	1	10	n/a	n/a	1	52	1
1216.0084	1	10	n/a	n/a	1	52	2
1217.125	1	10	n/a	n/a	1	52	3
1218.2416	1	21	n/a	n/a	1	52	0
1219.4916	1	10	n/a	n/a	1	52	1
1220.7748	1	10	n/a	n/a	1	52	2
1221.9748	1	10	n/a	n/a	1	52	3
1223.1914	1	10	n/a	n/a	1	52	4
1224.2912	1	10	n/a	n/a	1	52	5
1225.3912	1	21	n/a	n/a	1	52	0
1226.6578	1	10	n/a	n/a	1	52	1
1227.791	1	10	n/a	n/a	1	52	2
1229.0076	1	10	n/a	n/a	1	52	3
1230.1908	1	10	n/a	n/a	1	52	4
1231.2574	1	10	n/a	n/a	1	52	5
1232.324	1	21	n/a	n/a	1	52	0
1233.5574	1	10	n/a	n/a	1	52	1
1234.8406	1	10	n/a	n/a	1	52	2
1236.1406	1	10	n/a	n/a	1	52	3
1237.3238	1	10	n/a	n/a	1	52	4
1238.3064	1	82	n/a	n/a	1	0	0
1238.4354	1	82	n/a	n/a	1	0	0
1238.4934	1	82	n/a	n/a	1	0	0
1238.8374	1	82	n/a	n/a	1	0	0
1239.0984	1	82	n/a	n/a	1	0	0
1239.3064	1	82	n/a	n/a	1	0	0
1239.4714	1	82	n/a	n/a	1	0	0
1239.7324	1	82	n/a	n/a	1	0	0
1240.0314	1	82	n/a	n/a	1	0	0
1240.1124	1	82	n/a	n/a	1	0	0
1241.2402	1	10	n/a	n/a	1	52	1
1242.2736	1	21	n/a	n/a	1	52	0
1243.4902	1	10	n/a	n/a	1	52	1
1244.79	1	10	n/a	n/a	1	52	2
1245.99	1	10	n/a	n/a	1	52	3
1247.0232	1	10	n/a	n/a	1	52	4
1248.1232	1	10	n/a	n/a	1	52	5
1249.2232	1	21	n/a	n/a	1	52	0
1250.2564	1	10	n/a	n/a	1	52	1
1251.3564	1	10	n/a	n/a	1	52	2
1252.5396	1	10	n/a	n/a	1	52	3
1253.7894	1	10	n/a	n/a	1	52	4
1255.0394	1	10	n/a	n/a	1	52	5
1256.2894	1	21	n/a	n/a	1	52	0
1257.5226	1	10	n/a	n/a	1	52	1
1258.8058	1	10	n/a	n/a	1	52	2
1259.9724	1	10	n/a	n/a	1	52	3
1261.139	1	21	n/a	n/a	1	52	0
1262.289	1	10	n/a	n/a	1	52	1
1263.5722	1	10	n/a	n/a	1	52	2
1264.489	1	82	n/a	n/a	1	0	0
1264.519	1	82	n/a	n/a	1	0	0
1264.761	1	82	n/a	n/a	1	0	0
1264.859	1	82	n/a	n/a	1	0	0
1265	1	82	n/a	n/a	1	0	0
1265.489	1	82	n/a	n/a	1	0	0
1265.549	1	82	n/a	n/a	1	0	0
1265.833	1	82	n/a	n/a	1	0	0
1266.169	1	82	n/a	n/a	1	0	0
1266.396	1	82	n/a	n/a	1	0	0
1267.7054	1	10	n/a	n/a	1	52	1
1268.9052	1	10	n/a	n/a	1	52	2
1269.9552	1	10	n/a	n/a	1	52	3
1271.1884	1	10	n/a	n/a	1	52	4
1272.3218	1	10	n/a	n/a	1	52	5
1273.4216	1	10	n/a	n/a	1	52	6
1274.5716	1	10	n/a	n/a	1	52	7
1275.7216	1	21	n/a	n/a	1	52	0
1276.8882	1	10	n/a	n/a	1	52	1
1278.038	1	10	n/a	n/a	1	52	2
1279.138	1	10	n/a	n/a	1	52	3
1280.238	1	21	n/a	n/a	1	52	0
1281.5378	1	10	n/a	n/a	1	52	1
1282.8378	1	21	n/a	n/a	1	52	0
1283.9044	1	10	n/a	n/a	1	52	1
1284.971	1	21	n/a	n/a	1	52	0
1286.1042	1	10	n/a	n/a	1	52	1
1287.3208	1	10	n/a	n/a	1	52	2
1288.5542	1	10	n/a	n/a	1	52	3
1289.654	1	10	n/a	n/a	1	52	4
1301.3078	1	82	n/a	n/a	1	0	0
1301.3678	1	82	n/a	n/a	1	0	0
1301.4708	1	82	n/a	n/a	1	0	0
1301.6678	1	82	n/a	n/a	1	0	0
1302.0648	1	82	n/a	n/a	1	0	0
1302.3078	1	82	n/a	n/a	1	0	0
1302.3528	1	82	n/a	n/a	1	0	0
1302.6898	1	82	n/a	n/a	1	0	0
1303.1258	1	82	n/a	n/a	1	0	0
1303.2508	1	82	n/a	n/a	1	0	0
1304.2366	1	10	n/a	n/a	1	50	1
1305.4198	1	10	n/a	n/a	1	50	2
1306.5198	1	10	n/a	n/a	1	50	3
1307.6364	1	10	n/a	n/a	1	50	4
1308.753	1	10	n/a	n/a	1	50	5
1309.8696	1	21	n/a	n/a	1	50	0
1310.9028	1	10	n/a	n/a	1	50	1
1312.136	1	10	n/a	n/a	1	50	2
1313.2026	1	10	n/a	n/a	1	50	3
1314.5192	1	10	n/a	n/a	1	50	4
1315.7858	1	10	n/a	n/a	1	50	5
1316.8692	1	10	n/a	n/a	1	50	6
1318.1024	1	10	n/a	n/a	1	50	7
1319.3356	1	21	n/a	n/a	1	50	0
1320.4522	1	10	n/a	n/a	1	50	1
1321.5688	1	21	n/a	n/a	1	50	0
1322.6854	1	10	n/a	n/a	1	50	1
1323.9686	1	10	n/a	n/a	1	50	2
1325.0354	1	10	n/a	n/a	1	50	3
1326.1686	1	10	n/a	n/a	1	50	4
1327.001	1	82	n/a	n/a	1	0	0
1327.068	1	82	n/a	n/a	1	0	0
1327.159	1	82	n/a	n/a	1	0	0
1327.55	1	82	n/a	n/a	1	0	0
1327.589	1	82	n/a	n/a	1	0	0
1328.001	1	82	n/a	n/a	1	0	0
1328.291	1	82	n/a	n/a	1	0	0
1328.557	1	82	n/a	n/a	1	0	0
1328.769	1	82	n/a	n/a	1	0	0
1328.83	1	82	n/a	n/a	1	0	0
1330.185	1	10	n/a	n/a	1	50	1
1331.485	1	10	n/a	n/a	1	50	2
1332.6348	1	10	n/a	n/a	1	50	3
1333.7848	1	21	n/a	n/a	1	50	0
1335.1014	1	10	n/a	n/a	1	50	1
1336.1514	1	10	n/a	n/a	1	50	2
1337.2346	1	10	n/a	n/a	1	50	3
1338.4512	1	10	n/a	n/a	1	50	4
1339.7012	1	10	n/a	n/a	1	50	5
1340.951	1	21	n/a	n/a	1	50	0
1342.251	1	10	n/a	n/a	1	50	1
1343.5508	1	21	n/a	n/a	1	50	0
1344.7174	1	10	n/a	n/a	1	50	1
1345.784	1	10	n/a	n/a	1	50	2
1347.084	1	10	n/a	n/a	1	50	3
1348.1506	1	10	n/a	n/a	1	50	4
1349.1838	1	10	n/a	n/a	1	50	5
1350.3838	1	10	n/a	n/a	1	50	6
1351.467	1	10	n/a	n/a	1	50	7
1352.5504	1	21	n/a	n/a	1	50	0
1353.46	1	82	n/a	n/a	1	0	0
1353.817	1	82	n/a	n/a	1	0	0
1353.87	1	82	n/a	n/a	1	0	0
1354.13	1	82	n/a	n/a	1	0	0
1354.156	1	82	n/a	n/a	1	0	0
1354.4608	1	82	n/a	n/a	1	0	0
1354.5468	1	82	n/a	n/a	1	0	0
1354.7708	1	82	n/a	n/a	1	0	0
1355.0378	1	82	n/a	n/a	1	0	0
1355.1798	1	82	n/a	n/a	1	0	0
1356.5334	1	10	n/a	n/a	1	50	1
1357.6834	1	10	n/a	n/a	1	50	2
1358.9334	1	10	n/a	n/a	1	50	3
1360.2666	1	10	n/a	n/a	1	50	4
1361.4498	1	10	n/a	n/a	1	50	5
1362.7498	1	10	n/a	n/a	1	50	6
1363.8996	1	10	n/a	n/a	1	50	7
1365.0496	1	21	n/a	n/a	1	50	0
1366.3162	1	10	n/a	n/a	1	50	1
1367.5828	1	21	n/a	n/a	1	50	0
1368.716	1	10	n/a	n/a	1	50	1
1369.7994	1	10	n/a	n/a	1	50	2
1370.8826	1	10	n/a	n/a	1	50	3
1372.0492	1	10	n/a	n/a	1	50	4
1373.2824	1	10	n/a	n/a	1	50	5
1374.3324	1	10	n/a	n/a	1	50	6
1375.4656	1	10	n/a	n/a	1	50	7
1376.599	1	21	n/a	n/a	1	50	0
1377.8822	1	10	n/a	n/a	1	50	1
1379.1654	1	21	n/a	n/a	1	50	0
1380.1608	1	82	n/a	n/a	1	0	0
1380.2318	1	82	n/a	n/a	1	0	0
1380.3288	1	82	n/a	n/a	1	0	0
1380.6858	1	82	n/a	n/a	1	0	0
1380.9738	1	82	n/a	n/a	1	0	0
1381.1608	1	82	n/a	n/a	1	0	0
1381.2048	1	82	n/a	n/a	1	0	0
1381.2818	1	82	n/a	n/a	1	0	0
1381.6748	1	82	n/a	n/a	1	0	0
1381.9138	1	82	n/a	n/a	1	0	0
1383.1152	1	10	n/a	n/a	1	50	1
1384.3984	1	10	n/a	n/a	1	50	2
1385.715	1	10	n/a	n/a	1	50	3
1386.7484	1	10	n/a	n/a	1	50	4
1387.865	1	10	n/a	n/a	1	50	5
1388.9148	1	10	n/a	n/a	1	50	6
1389.9648	1	10	n/a	n/a	1	50	7
1391.0148	1	21	n/a	n/a	1	50	0
1392.2314	1	10	n/a	n/a	1	50	1
1393.448	1	10	n/a	n/a	1	50	2
1394.7146	1	10	n/a	n/a	1	50	3
1395.7478	1	10	n/a	n/a	1	50	4
1397.0144	1	10	n/a	n/a	1	50	5
1398.281	1	21	n/a	n/a	1	50	0
1399.581	1	10	n/a	n/a	1	50	1
1400.7808	1	10	n/a	n/a	1	50	2
1401.8142	1	10	n/a	n/a	1	50	3
1402.8474	1	21	n/a	n/a	1	50	0
1404.114	1	10	n/a	n/a	1	50	1
1405.3472	1	10	n/a	n/a	1	50	2
1406.0946	1	82	n/a	n/a	1	0	0
1406.1546	1	82	n/a	n/a	1	0	0
1406.5756	1	82	n/a	n/a	1	0	0
1406.8226	1	82	n/a	n/a	1	0	0
1407.0456	1	82	n/a	n/a	1	0	0
1407.0946	1	82	n/a	n/a	1	0	0
1407.2706	1	82	n/a	n/a	1	0	0
1407.3726	1	82	n/a	n/a	1	0	0
1407.4046	1	82	n/a	n/a	1	0	0
1407.6966	1	82	n/a	n/a	1	0	0
1409.297	1	10	n/a	n/a	1	50	1
1410.6136	1	10	n/a	n/a	1	50	2
1411.9136	1	10	n/a	n/a	1	50	3
1413.0302	1	10	n/a	n/a	1	50	4
1414.08	1	10	n/a	n/a	1	50	5
1415.13	1	21	n/a	n/a	1	50	0
1416.4132	1	10	n/a	n/a	1	50	1
1417.6132	1	10	n/a	n/a	1	50	2
1418.8964	1	10	n/a	n/a	1	50	3
1420.1464	1	10	n/a	n/a	1	50	4
1421.3962	1	10	n/a	n/a	1	50	5
1422.6462	1	21	n/a	n/a	1	50	0
1423.7462	1	10	n/a	n/a	1	50	1
1424.9628	1	10	n/a	n/a	1	50	2
1426.0626	1	10	n/a	n/a	1	50	3
1427.3626	1	10	n/a	n/a	1	50	4
1428.4292	1	10	n/a	n/a	1	50	5
1429.6624	1	10	n/a	n/a	1	50	6
1430.729	1	10	n/a	n/a	1	50	7
1431.7956	1	21	n/a	n/a	1	50	0
1458.7452	1	81	n/a	n/a	1	0	0
1458.9452	1	81	n/a	n/a	1	0	0
1459.1452	1	81	n/a	n/a	1	0	0
1459.3452	1	81	n/a	n/a	1	0	0
1459.5452	1	81	n/a	n/a	1	0	0
1459.7452	1	81	n/a	n/a	1	0	0
1459.9452	1	81	n/a	n/a	1	0	0
1460.1452	1	81	n/a	n/a	1	0	0
1460.3452	1	81	n/a	n/a	1	0	0
1460.5452	1	81	n/a	n/a	1	0	0
1461.7772	1	10	n/a	n/a	1	51	1
1462.9104	1	21	n/a	n/a	1	51	0
1464.0772	1	10	n/a	n/a	1	51	1
1465.127	1	10	n/a	n/a	1	51	2
1466.2936	1	10	n/a	n/a	1	51	3
1467.3602	1	10	n/a	n/a	1	51	4
1468.4268	1	10	n/a	n/a	1	51	5
1469.4934	1	21	n/a	n/a	1	51	0
1470.6268	1	10	n/a	n/a	1	51	1
1471.7434	1	10	n/a	n/a	1	51	2
1472.81	1	10	n/a	n/a	1	51	3
1473.9098	1	10	n/a	n/a	1	51	4
1475.1264	1	10	n/a	n/a	1	51	5
1476.393	1	10	n/a	n/a	1	51	6
1477.643	1	10	n/a	n/a	1	51	7
1478.8928	1	21	n/a	n/a	1	51	0
1480.0762	1	10	n/a	n/a	1	51	1
1481.2594	1	21	n/a	n/a	1	51	0
1482.4094	1	10	n/a	n/a	1	51	1
1483.7092	1	10	n/a	n/a	1	51	2
1484.543	1	81	n/a	n/a	1	0	0
1484.743	1	81	n/a	n/a	1	0	0
1484.943	1	81	n/a	n/a	1	0	0
1485.143	1	81	n/a	n/a	1	0	0
1485.343	1	81	n/a	n/a	1	0	0
1485.543	1	81	n/a	n/a	1	0	0
1485.743	1	81	n/a	n/a	1	0	0
1485.943	1	81	n/a	n/a	1	0	0
1486.143	1	81	n/a	n/a	1	0	0
1486.343	1	81	n/a	n/a	1	0	0
1487.559	1	10	n/a	n/a	1	51	1
1488.6756	1	21	n/a	n/a	1	51	0
1489.8422	1	10	n/a	n/a	1	51	1
1490.9256	1	10	n/a	n/a	1	51	2
1492.0422	1	10	n/a	n/a	1	51	3
1493.2754	1	10	n/a	n/a	1	51	4
1494.542	1	10	n/a	n/a	1	51	5
1495.8086	1	21	n/a	n/a	1	51	0
1497.1252	1	10	n/a	n/a	1	51	1
1498.4418	1	21	n/a	n/a	1	51	0
1499.6084	1	10	n/a	n/a	1	51	1
1500.7582	1	10	n/a	n/a	1	51	2
1501.9582	1	10	n/a	n/a	1	51	3
1503.1748	1	10	n/a	n/a	1	51	4
1504.4748	1	10	n/a	n/a	1	51	5
1505.7414	1	10	n/a	n/a	1	51	6
1507.0578	1	10	n/a	n/a	1	51	7
1508.3744	1	21	n/a	n/a	1	51	0
1509.691	1	10	n/a	n/a	1	51	1
1511.0076	1	21	n/a	n/a	1	51	0
1511.7534	1	81	n/a	n/a	1	0	0
1511.9534	1	81	n/a	n/a	1	0	0
1512.1534	1	81	n/a	n/a	1	0	0
1512.3534	1	81	n/a	n/a	1	0	0
1512.5534	1	81	n/a	n/a	1	0	0
1512.7534	1	81	n/a	n/a	1	0	0
1512.9534	1	81	n/a	n/a	1	0	0
1513.1534	1	81	n/a	n/a	1	0	0
1513.3534	1	81	n/a	n/a	1	0	0
1513.5534	1	81	n/a	n/a	1	0	0
1514.7242	1	10	n/a	n/a	1	51	1
1515.8074	1	21	n/a	n/a	1	51	0
1517.0906	1	10	n/a	n/a	1	51	1
1518.3738	1	21	n/a	n/a	1	51	0
1519.5904	1	10	n/a	n/a	1	51	1
1520.807	1	21	n/a	n/a	1	51	0
1521.907	1	10	n/a	n/a	1	51	1
1523.007	1	21	n/a	n/a	1	51	0
1524.2902	1	10	n/a	n/a	1	51	1
1525.5734	1	21	n/a	n/a	1	51	0
1526.7234	1	10	n/a	n/a	1	51	1
1528.04	1	10	n/a	n/a	1	51	2
1529.3232	1	10	n/a	n/a	1	51	3
1530.6066	1	21	n/a	n/a	1	51	0
1531.6732	1	10	n/a	n/a	1	51	1
1532.9896	1	10	n/a	n/a	1	51	2
1534.1064	1	10	n/a	n/a	1	51	3
1535.3896	1	10	n/a	n/a	1	51	4
1536.5228	1	10	n/a	n/a	1	51	5
1537.656	1	21	n/a	n/a	1	51	0
1538.7436	1	81	n/a	n/a	1	0	0
1538.9436	1	81	n/a	n/a	1	0	0
1539.1436	1	81	n/a	n/a	1	0	0
1539.3436	1	81	n/a	n/a	1	0	0
1539.5436	1	81	n/a	n/a	1	0	0
1539.7436	1	81	n/a	n/a	1	0	0
1539.9436	1	81	n/a	n/a	1	0	0
1540.1436	1	81	n/a	n/a	1	0	0
1540.3436	1	81	n/a	n/a	1	0	0
1540.5436	1	81	n/a	n/a	1	0	0
1541.7726	1	10	n/a	n/a	1	51	1
1542.9224	1	10	n/a	n/a	1	51	2
1544.0224	1	10	n/a	n/a	1	51	3
1545.0556	1	10	n/a	n/a	1	51	4
1546.339	1	10	n/a	n/a	1	51	5
1547.4388	1	10	n/a	n/a	1	51	6
1548.6888	1	10	n/a	n/a	1	51	7
1549.9388	1	21	n/a	n/a	1	51	0
1551.122	1	10	n/a	n/a	1	51	1
1552.3052	1	21	n/a	n/a	1	51	0
1553.3552	1	10	n/a	n/a	1	51	1
1554.4552	1	10	n/a	n/a	1	51	2
1555.5716	1	10	n/a	n/a	1	51	3
1556.6216	1	10	n/a	n/a	1	51	4
1557.7382	1	10	n/a	n/a	1	51	5
1558.8548	1	21	n/a	n/a	1	51	0
1560.0548	1	10	n/a	n/a	1	51	1
1561.3714	1	10	n/a	n/a	1	51	2
1562.5546	1	10	n/a	n/a	1	51	3
1563.8546	1	10	n/a	n/a	1	51	4
1564.96	1	81	n/a	n/a	1	0	0
1565.16	1	81	n/a	n/a	1	0	0
1565.36	1	81	n/a	n/a	1	0	0
1565.56	1	81	n/a	n/a	1	0	0
1565.76	1	81	n/a	n/a	1	0	0
1565.96	1	81	n/a	n/a	1	0	0
1566.16	1	81	n/a	n/a	1	0	0
1566.36	1	81	n/a	n/a	1	0	0
1566.56	1	81	n/a	n/a	1	0	0
1566.76	1	81	n/a	n/a	1	0	0
1567.9376	1	10	n/a	n/a	1	51	1
1569.0876	1	10	n/a	n/a	1	51	2
1570.2042	1	10	n/a	n/a	1	51	3
1571.2374	1	10	n/a	n/a	1	51	4
1572.5374	1	10	n/a	n/a	1	51	5
1573.8372	1	21	n/a	n/a	1	51	0
1574.8706	1	10	n/a	n/a	1	51	1
1575.9038	1	21	n/a	n/a	1	51	0
1576.9538	1	10	n/a	n/a	1	51	1
1578.137	1	10	n/a	n/a	1	51	2
1579.3702	1	10	n/a	n/a	1	51	3
1580.6036	1	21	n/a	n/a	1	51	0
1581.7868	1	10	n/a	n/a	1	51	1
1583.0368	1	10	n/a	n/a	1	51	2
1584.3366	1	10	n/a	n/a	1	51	3
1585.5366	1	10	n/a	n/a	1	51	4
1586.6366	1	10	n/a	n/a	1	51	5
1587.7864	1	10	n/a	n/a	1	51	6
1589.0864	1	10	n/a	n/a	1	51	7
1590.3864	1	21	n/a	n/a	1	51	0
1637.8252	1	81	n/a	n/a	1	0	0
1638.0252	1	81	n/a	n/a	1	0	0
1638.2252	1	81	n/a	n/a	1	0	0
1638.4252	1	81	n/a	n/a	1	0	0
1638.6252	1	81	n/a	n/a	1	0	0
1638.8252	1	81	n/a	n/a	1	0	0
1639.0252	1	81	n/a	n/a	1	0	0
1639.2252	1	81	n/a	n/a	1	0	0
1639.4252	1	81	n/a	n/a	1	0	0
1639.6252	1	81	n/a	n/a	1	0	0
1640.8834	1	10	n/a	n/a	1	52	1
1642.0332	1	10	n/a	n/a	1	52	2
1643.3166	1	10	n/a	n/a	1	52	3
1644.5998	1	21	n/a	n/a	1	52	0
1645.8498	1	10	n/a	n/a	1	52	1
1647.0164	1	10	n/a	n/a	1	52	2
1648.0662	1	10	n/a	n/a	1	52	3
1649.3828	1	10	n/a	n/a	1	52	4
1650.4494	1	10	n/a	n/a	1	52	5
1651.516	1	21	n/a	n/a	1	52	0
1652.7994	1	10	n/a	n/a	1	52	1
1653.9492	1	10	n/a	n/a	1	52	2
1655.0658	1	10	n/a	n/a	1	52	3
1656.1824	1	21	n/a	n/a	1	52	0
1657.499	1	10	n/a	n/a	1	52	1
1658.749	1	10	n/a	n/a	1	52	2
1659.9988	1	10	n/a	n/a	1	52	3
1661.1488	1	10	n/a	n/a	1	52	4
1662.1988	1	10	n/a	n/a	1	52	5
1663.482	1	10	n/a	n/a	1	52	6
1664.2204	1	81	n/a	n/a	1	0	0
1664.4204	1	81	n/a	n/a	1	0	0
1664.6204	1	81	n/a	n/a	1	0	0
1664.8204	1	81	n/a	n/a	1	0	0
1665.0204	1	81	n/a	n/a	1	0	0
1665.2204	1	81	n/a	n/a	1	0	0
1665.4204	1	81	n/a	n/a	1	0	0
1665.6204	1	81	n/a	n/a	1	0	0
1665.8204	1	81	n/a	n/a	1	0	0
1666.0204	1	81	n/a	n/a	1	0	0
1667.2818	1	10	n/a	n/a	1	52	1
1668.4484	1	10	n/a	n/a	1	52	2
1669.7482	1	10	n/a	n/a	1	52	3
1671.0482	1	21	n/a	n/a	1	52	0
1672.1314	1	10	n/a	n/a	1	52	1
1673.2814	1	10	n/a	n/a	1	52	2
1674.3148	1	10	n/a	n/a	1	52	3
1675.348	1	10	n/a	n/a	1	52	4
1676.6478	1	10	n/a	n/a	1	52	5
1677.8478	1	10	n/a	n/a	1	52	6
1679.1478	1	10	n/a	n/a	1	52	7
1680.4476	1	21	n/a	n/a	1	52	0
1681.531	1	10	n/a	n/a	1	52	1
1682.5642	1	10	n/a	n/a	1	52	2
1683.8474	1	10	n/a	n/a	1	52	3
1684.8808	1	10	n/a	n/a	1	52	4
1686.0306	1	10	n/a	n/a	1	52	5
1687.264	1	10	n/a	n/a	1	52	6
1688.5472	1	10	n/a	n/a	1	52	7
1689.8304	1	21	n/a	n/a	1	52	0
1690.575	1	81	n/a	n/a	1	0	0
1690.775	1	81	n/a	n/a	1	0	0
1690.975	1	81	n/a	n/a	1	0	0
1691.175	1	81	n/a	n/a	1	0	0
1691.375	1	81	n/a	n/a	1	0	0
1691.575	1	81	n/a	n/a	1	0	0
1691.775	1	81	n/a	n/a	1	0	0
1691.975	1	81	n/a	n/a	1	0	0
1692.175	1	81	n/a	n/a	1	0	0
1692.375	1	81	n/a	n/a	1	0	0
1693.7302	1	10	n/a	n/a	1	52	1
1695.0134	1	21	n/a	n/a	1	52	0
1696.23	1	10	n/a	n/a	1	52	1
1697.3966	1	10	n/a	n/a	1	52	2
1698.6632	1	10	n/a	n/a	1	52	3
1699.8798	1	10	n/a	n/a	1	52	4
1701.0798	1	10	n/a	n/a	1	52	5
1702.2798	1	21	n/a	n/a	1	52	0
1703.463	1	10	n/a	n/a	1	52	1
1704.513	1	10	n/a	n/a	1	52	2
1705.7128	1	10	n/a	n/a	1	52	3
1706.9962	1	10	n/a	n/a	1	52	4
1708.2794	1	10	n/a	n/a	1	52	5
1709.5626	1	21	n/a	n/a	1	52	0
1710.6126	1	10	n/a	n/a	1	52	1
1711.8458	1	10	n/a	n/a	1	52	2
1713.0624	1	10	n/a	n/a	1	52	3
1714.279	1	21	n/a	n/a	1	52	0
1715.329	1	10	n/a	n/a	1	52	1
1716.5788	1	10	n/a	n/a	1	52	2
1717.3682	1	81	n/a	n/a	1	0	0
1717.5682	1	81	n/a	n/a	1	0	0
1717.7682	1	81	n/a	n/a	1	0	0
1717.9682	1	81	n/a	n/a	1	0	0
1718.1682	1	81	n/a	n/a	1	0	0
1718.3682	1	81	n/a	n/a	1	0	0
1718.5682	1	81	n/a	n/a	1	0	0
1718.7682	1	81	n/a	n/a	1	0	0
1718.9682	1	81	n/a	n/a	1	0	0
1719.1682	1	81	n/a	n/a	1	0	0
1720.362	1	10	n/a	n/a	1	52	1
1721.5952	1	10	n/a	n/a	1	52	2
1722.7118	1	10	n/a	n/a	1	52	3
1723.7452	1	10	n/a	n/a	1	52	4
1724.845	1	10	n/a	n/a	1	52	5
1725.945	1	21	n/a	n/a	1	52	0
1727.2282	1	10	n/a	n/a	1	52	1
1728.5116	1	21	n/a	n/a	1	52	0
1729.6948	1	10	n/a	n/a	1	52	1
1730.878	1	21	n/a	n/a	1	52	0
1731.9112	1	10	n/a	n/a	1	52	1
1733.0612	1	10	n/a	n/a	1	52	2
1734.2112	1	10	n/a	n/a	1	52	3
1735.361	1	21	n/a	n/a	1	52	0
1736.5944	1	10	n/a	n/a	1	52	1
1737.8276	1	21	n/a	n/a	1	52	0
1739.0942	1	10	n/a	n/a	1	52	1
1740.2942	1	10	n/a	n/a	1	52	2
1741.394	1	10	n/a	n/a	1	52	3
1742.7106	1	10	n/a	n/a	1	52	4
1743.697	1	81	n/a	n/a	1	0	0
1743.897	1	81	n/a	n/a	1	0	0
1744.097	1	81	n/a	n/a	1	0	0
1744.297	1	81	n/a	n/a	1	0	0
1744.497	1	81	n/a	n/a	1	0	0
1744.697	1	81	n/a	n/a	1	0	0
1744.897	1	81	n/a	n/a	1	0	0
1745.097	1	81	n/a	n/a	1	0	0
1745.297	1	81	n/a	n/a	1	0	0
1745.497	1	81	n/a	n/a	1	0	0
1746.627	1	10	n/a	n/a	1	52	1
1747.8104	1	10	n/a	n/a	1	52	2
1749.0936	1	10	n/a	n/a	1	52	3
1750.1936	1	10	n/a	n/a	1	52	4
1751.3102	1	10	n/a	n/a	1	52	5
1752.6268	1	10	n/a	n/a	1	52	6
1753.71	1	10	n/a	n/a	1	52	7
1754.7932	1	21	n/a	n/a	1	52	0
1756.0766	1	10	n/a	n/a	1	52	1
1757.3932	1	10	n/a	n/a	1	52	2
1758.543	1	10	n/a	n/a	1	52	3
1759.693	1	21	n/a	n/a	1	52	0
1760.7596	1	10	n/a	n/a	1	52	1
1761.7928	1	10	n/a	n/a	1	52	2
1763.0928	1	10	n/a	n/a	1	52	3
1764.3928	1	21	n/a	n/a	1	52	0
1765.476	1	10	n/a	n/a	1	52	1
1766.7092	1	10	n/a	n/a	1	52	2
1767.9258	1	10	n/a	n/a	1	52	3
1769.1424	1	21	n/a	n/a	1	52	0
1781.7514	1	81	n/a	n/a	1	0	0
1781.9514	1	81	n/a	n/a	1	0	0
1782.1514	1	81	n/a	n/a	1	0	0
1782.3514	1	81	n/a	n/a	1	0	0
1782.5514	1	81	n/a	n/a	1	0	0
1782.7514	1	81	n/a	n/a	1	0	0
1782.9514	1	81	n/a	n/a	1	0	0
1783.1514	1	81	n/a	n/a	1	0	0
1783.3514	1	81	n/a	n/a	1	0	0
1783.5514	1	81	n/a	n/a	1	0	0
1784.7416	1	10	n/a	n/a	1	50	1
1785.9082	1	10	n/a	n/a	1	50	2
1787.2248	1	10	n/a	n/a	1	50	3
1788.4412	1	10	n/a	n/a	1	50	4
1789.7078	1	10	n/a	n/a	1	50	5
1790.9744	1	21	n/a	n/a	1	50	0
1792.0578	1	10	n/a	n/a	1	50	1
1793.1244	1	10	n/a	n/a	1	50	2
1794.4076	1	10	n/a	n/a	1	50	3
1795.6908	1	21	n/a	n/a	1	50	0
1796.8408	1	10	n/a	n/a	1	50	1
1797.9908	1	21	n/a	n/a	1	50	0
1799.0906	1	10	n/a	n/a	1	50	1
1800.124	1	10	n/a	n/a	1	50	2
1801.1738	1	10	n/a	n/a	1	50	3
1802.2238	1	21	n/a	n/a	1	50	0
1803.3238	1	10	n/a	n/a	1	50	1
1804.507	1	10	n/a	n/a	1	50	2
1805.807	1	10	n/a	n/a	1	50	3
1807.1068	1	21	n/a	n/a	1	50	0
1807.8254	1	81	n/a	n/a	1	0	0
1808.0254	1	81	n/a	n/a	1	0	0
1808.2254	1	81	n/a	n/a	1	0	0
1808.4254	1	81	n/a	n/a	1	0	0
1808.6254	1	81	n/a	n/a	1	0	0
1808.8254	1	81	n/a	n/a	1	0	0
1809.0254	1	81	n/a	n/a	1	0	0
1809.2254	1	81	n/a	n/a	1	0	0
1809.4254	1	81	n/a	n/a	1	0	0
1809.6254	1	81	n/a	n/a	1	0	0
1811.0566	1	10	n/a	n/a	1	50	1
1812.3898	1	21	n/a	n/a	1	50	0
1813.5564	1	10	n/a	n/a	1	50	1
1814.6398	1	10	n/a	n/a	1	50	2
1815.923	1	10	n/a	n/a	1	50	3
1817.1396	1	10	n/a	n/a	1	50	4
1818.3062	1	10	n/a	n/a	1	50	5
1819.4228	1	10	n/a	n/a	1	50	6
1820.4728	1	10	n/a	n/a	1	50	7
1821.5226	1	21	n/a	n/a	1	50	0
1822.6226	1	10	n/a	n/a	1	50	1
1823.7226	1	21	n/a	n/a	1	50	0
1824.8224	1	10	n/a	n/a	1	50	1
1825.9224	1	21	n/a	n/a	1	50	0
1827.1724	1	10	n/a	n/a	1	50	1
1828.3222	1	10	n/a	n/a	1	50	2
1829.5556	1	10	n/a	n/a	1	50	3
1830.7888	1	21	n/a	n/a	1	50	0
1832.0888	1	10	n/a	n/a	1	50	1
1833.272	1	10	n/a	n/a	1	50	2
1834.1224	1	81	n/a	n/a	1	0	0
1834.3224	1	81	n/a	n/a	1	0	0
1834.5224	1	81	n/a	n/a	1	0	0
1834.7224	1	81	n/a	n/a	1	0	0
1834.9224	1	81	n/a	n/a	1	0	0
1835.1224	1	81	n/a	n/a	1	0	0
1835.3224	1	81	n/a	n/a	1	0	0
1835.5224	1	81	n/a	n/a	1	0	0
1835.7224	1	81	n/a	n/a	1	0	0
1835.9224	1	81	n/a	n/a	1	0	0
1837.2384	1	10	n/a	n/a	1	50	1
1838.4884	1	10	n/a	n/a	1	50	2
1839.755	1	10	n/a	n/a	1	50	3
1840.8382	1	10	n/a	n/a	1	50	4
1841.9214	1	10	n/a	n/a	1	50	5
1843.138	1	10	n/a	n/a	1	50	6
1844.2714	1	10	n/a	n/a	1	50	7
1845.4046	1	21	n/a	n/a	1	50	0
1846.5878	1	10	n/a	n/a	1	50	1
1847.7712	1	21	n/a	n/a	1	50	0
1848.9044	1	10	n/a	n/a	1	50	1
1850.0376	1	21	n/a	n/a	1	50	0
1851.1876	1	10	n/a	n/a	1	50	1
1852.4042	1	10	n/a	n/a	1	50	2
1853.4708	1	10	n/a	n/a	1	50	3
1854.504	1	10	n/a	n/a	1	50	4
1855.7374	1	10	n/a	n/a	1	50	5
1856.8706	1	10	n/a	n/a	1	50	6
1858.0706	1	10	n/a	n/a	1	50	7
1859.2704	1	21	n/a	n/a	1	50	0
1860.2702	1	81	n/a	n/a	1	0	0
1860.4702	1	81	n/a	n/a	1	0	0
1860.6702	1	81	n/a	n/a	1	0	0
1860.8702	1	81	n/a	n/a	1	0	0
1861.0702	1	81	n/a	n/a	1	0	0
1861.271	1	81	n/a	n/a	1	0	0
1861.471	1	81	n/a	n/a	1	0	0
1861.671	1	81	n/a	n/a	1	0	0
1861.871	1	81	n/a	n/a	1	0	0
1862.071	1	81	n/a	n/a	1	0	0
1863.4368	1	10	n/a	n/a	1	50	1
1864.7034	1	21	n/a	n/a	1	50	0
1865.9034	1	10	n/a	n/a	1	50	1
1867.17	1	10	n/a	n/a	1	50	2
1868.3366	1	10	n/a	n/a	1	50	3
1869.5698	1	10	n/a	n/a	1	50	4
1870.853	1	10	n/a	n/a	1	50	5
1872.1364	1	21	n/a	n/a	1	50	0
1873.4196	1	10	n/a	n/a	1	50	1
1874.6696	1	10	n/a	n/a	1	50	2
1875.7194	1	10	n/a	n/a	1	50	3
1876.9028	1	10	n/a	n/a	1	50	4
1878.136	1	10	n/a	n/a	1	50	5
1879.3692	1	21	n/a	n/a	1	50	0
1880.6026	1	10	n/a	n/a	1	50	1
1881.8858	1	10	n/a	n/a	1	50	2
1883.1358	1	10	n/a	n/a	1	50	3
1884.3856	1	21	n/a	n/a	1	50	0
1885.519	1	10	n/a	n/a	1	50	1
1886.8354	1	10	n/a	n/a	1	50	2
1887.5778	1	81	n/a	n/a	1	0	0
1887.7778	1	81	n/a	n/a	1	0	0
1887.9778	1	81	n/a	n/a	1	0	0
1888.1778	1	81	n/a	n/a	1	0	0
1888.3778	1	81	n/a	n/a	1	0	0
1888.5778	1	81	n/a	n/a	1	0	0
1888.7778	1	81	n/a	n/a	1	0	0
1888.9778	1	81	n/a	n/a	1	0	0
1889.1778	1	81	n/a	n/a	1	0	0
1889.3778	1	81	n/a	n/a	1	0	0
1890.5186	1	10	n/a	n/a	1	50	1
1891.5686	1	21	n/a	n/a	1	50	0
1892.8018	1	10	n/a	n/a	1	50	1
1894.035	1	21	n/a	n/a	1	50	0
1895.135	1	10	n/a	n/a	1	50	1
1896.285	1	10	n/a	n/a	1	50	2
1897.3348	1	10	n/a	n/a	1	50	3
1898.3848	1	21	n/a	n/a	1	50	0
1899.5514	1	10	n/a	n/a	1	50	1
1900.6014	1	10	n/a	n/a	1	50	2
1901.8346	1	10	n/a	n/a	1	50	3
1902.9512	1	10	n/a	n/a	1	50	4
1904.1344	1	10	n/a	n/a	1	50	5
1905.3178	1	21	n/a	n/a	1	50	0
1906.551	1	10	n/a	n/a	1	50	1
1907.6342	1	10	n/a	n/a	1	50	2
1908.8508	1	10	n/a	n/a	1	50	3
1910.0674	1	21	n/a	n/a	1	50	0
1911.334	1	10	n/a	n/a	1	50	1
1912.584	1	10	n/a	n/a	1	50	2
1934.2124	1	82	n/a	n/a	1	0	0
1934.3594	1	82	n/a	n/a	1	0	0
1934.6214	1	82	n/a	n/a	1	0	0
1934.9974	1	82	n/a	n/a	1	0	0
1935.0484	1	82	n/a	n/a	1	0	0
1935.2124	1	82	n/a	n/a	1	0	0
1935.5624	1	82	n/a	n/a	1	0	0
1935.6234	1	82	n/a	n/a	1	0	0
1935.8344	1	82	n/a	n/a	1	0	0
1936.1144	1	82	n/a	n/a	1	0	0
1937.1326	1	10	n/a	n/a	1	51	1
1938.3158	1	10	n/a	n/a	1	51	2
1939.6324	1	10	n/a	n/a	1	51	3
1940.7656	1	10	n/a	n/a	1	51	4
1941.9322	1	10	n/a	n/a	1	51	5
1943.0822	1	10	n/a	n/a	1	51	6
1944.2654	1	10	n/a	n/a	1	51	7
1945.4486	1	21	n/a	n/a	1	51	0
1946.632	1	10	n/a	n/a	1	51	1
1947.8152	1	21	n/a	n/a	1	51	0
1949.0152	1	10	n/a	n/a	1	51	1
1950.115	1	10	n/a	n/a	1	51	2
1951.3484	1	10	n/a	n/a	1	51	3
1952.5816	1	21	n/a	n/a	1	51	0
1953.8648	1	10	n/a	n/a	1	51	1
1955.1482	1	21	n/a	n/a	1	51	0
1956.198	1	10	n/a	n/a	1	51	1
1957.5146	1	10	n/a	n/a	1	51	2
1958.6646	1	10	n/a	n/a	1	51	3
1959.8646	1	10	n/a	n/a	1	51	4
1960.662	1	82	n/a	n/a	1	0	0
1960.752	1	82	n/a	n/a	1	0	0
1961.067	1	82	n/a	n/a	1	0	0
1961.196	1	82	n/a	n/a	1	0	0
1961.586	1	82	n/a	n/a	1	0	0
1961.662	1	82	n/a	n/a	1	0	0
1961.831	1	82	n/a	n/a	1	0	0
1961.918	1	82	n/a	n/a	1	0	0
1962.166	1	82	n/a	n/a	1	0	0
1962.565	1	82	n/a	n/a	1	0	0
1963.6976	1	10	n/a	n/a	1	51	1
1964.8476	1	21	n/a	n/a	1	51	0
1965.8974	1	10	n/a	n/a	1	51	1
1967.0974	1	10	n/a	n/a	1	51	2
1968.264	1	10	n/a	n/a	1	51	3
1969.414	1	10	n/a	n/a	1	51	4
1970.6638	1	10	n/a	n/a	1	51	5
1971.9138	1	10	n/a	n/a	1	51	6
1973.0304	1	10	n/a	n/a	1	51	7
1974.147	1	21	n/a	n/a	1	51	0
1975.2802	1	10	n/a	n/a	1	51	1
1976.5468	1	10	n/a	n/a	1	51	2
1977.6134	1	10	n/a	n/a	1	51	3
1978.68	1	21	n/a	n/a	1	51	0
1979.7966	1	10	n/a	n/a	1	51	1
1980.8466	1	10	n/a	n/a	1	51	2
1982.1632	1	10	n/a	n/a	1	51	3
1983.2964	1	10	n/a	n/a	1	51	4
1984.5964	1	10	n/a	n/a	1	51	5
1985.863	1	10	n/a	n/a	1	51	6
1986.6554	1	82	n/a	n/a	1	0	0
1986.8254	1	82	n/a	n/a	1	0	0
1986.9674	1	82	n/a	n/a	1	0	0
1987.0104	1	82	n/a	n/a	1	0	0
1987.3334	1	82	n/a	n/a	1	0	0
1987.6554	1	82	n/a	n/a	1	0	0
1987.7524	1	82	n/a	n/a	1	0	0
1987.9104	1	82	n/a	n/a	1	0	0
1988.2754	1	82	n/a	n/a	1	0	0
1988.3184	1	82	n/a	n/a	1	0	0
1989.6794	1	10	n/a	n/a	1	51	1
1990.7126	1	10	n/a	n/a	1	51	2
1991.996	1	10	n/a	n/a	1	51	3
1993.2792	1	21	n/a	n/a	1	51	0
1994.4292	1	10	n/a	n/a	1	51	1
1995.7458	1	10	n/a	n/a	1	51	2
1996.9624	1	10	n/a	n/a	1	51	3
1998.1956	1	10	n/a	n/a	1	51	4
1999.4122	1	10	n/a	n/a	1	51	5
2000.5122	1	10	n/a	n/a	1	51	6
2001.8288	1	10	n/a	n/a	1	51	7
2003.1452	1	21	n/a	n/a	1	51	0
2004.3286	1	10	n/a	n/a	1	51	1
2005.6284	1	10	n/a	n/a	1	51	2
2006.845	1	10	n/a	n/a	1	51	3
2007.8784	1	10	n/a	n/a	1	51	4
2009.1282	1	10	n/a	n/a	1	51	5
2010.2782	1	10	n/a	n/a	1	51	6
2011.3282	1	10	n/a	n/a	1	51	7
2012.378	1	21	n/a	n/a	1	51	0
2013.1746	1	82	n/a	n/a	1	0	0
2013.4516	1	82	n/a	n/a	1	0	0
2013.6166	1	82	n/a	n/a	1	0	0
2013.6936	1	82	n/a	n/a	1	0	0
2014.1236	1	82	n/a	n/a	1	0	0
2014.1746	1	82	n/a	n/a	1	0	0
2014.2376	1	82	n/a	n/a	1	0	0
2014.2796	1	82	n/a	n/a	1	0	0
2014.3946	1	82	n/a	n/a	1	0	0
2014.7346	1	82	n/a	n/a	1	0	0
2016.3278	1	10	n/a	n/a	1	51	1
2017.3612	1	10	n/a	n/a	1	51	2
2018.661	1	10	n/a	n/a	1	51	3
2019.961	1	21	n/a	n/a	1	51	0
2021.1776	1	10	n/a	n/a	1	51	1
2022.3942	1	21	n/a	n/a	1	51	0
2023.494	1	10	n/a	n/a	1	51	1
2024.544	1	10	n/a	n/a	1	51	2
2025.6772	1	10	n/a	n/a	1	51	3
2026.8106	1	21	n/a	n/a	1	51	0
2027.9272	1	10	n/a	n/a	1	51	1
2029.0438	1	21	n/a	n/a	1	51	0
2030.2104	1	10	n/a	n/a	1	51	1
2031.377	1	21	n/a	n/a	1	51	0
2032.4602	1	10	n/a	n/a	1	51	1
2033.5936	1	10	n/a	n/a	1	51	2
2034.7268	1	10	n/a	n/a	1	51	3
2035.86	1	21	n/a	n/a	1	51	0
2037.0932	1	10	n/a	n/a	1	51	1
2038.2598	1	10	n/a	n/a	1	51	2
2039.2634	1	82	n/a	n/a	1	0	0
2039.4204	1	82	n/a	n/a	1	0	0
2039.8014	1	82	n/a	n/a	1	0	0
2039.8264	1	82	n/a	n/a	1	0	0
2039.9504	1	82	n/a	n/a	1	0	0
2040.2634	1	82	n/a	n/a	1	0	0
2040.3904	1	82	n/a	n/a	1	0	0
2040.6514	1	82	n/a	n/a	1	0	0
2040.8154	1	82	n/a	n/a	1	0	0
2040.8834	1	82	n/a	n/a	1	0	0
2042.3764	1	10	n/a	n/a	1	51	1
2043.543	1	10	n/a	n/a	1	51	2
2044.7428	1	10	n/a	n/a	1	51	3
2045.9428	1	21	n/a	n/a	1	51	0
2047.0594	1	10	n/a	n/a	1	51	1
2048.2426	1	10	n/a	n/a	1	51	2
2049.5258	1	10	n/a	n/a	1	51	3
2050.8092	1	21	n/a	n/a	1	51	0
2052.109	1	10	n/a	n/a	1	51	1
2053.2256	1	10	n/a	n/a	1	51	2
2054.4422	1	10	n/a	n/a	1	51	3
2055.4756	1	10	n/a	n/a	1	51	4
2056.7088	1	10	n/a	n/a	1	51	5
2057.942	1	21	n/a	n/a	1	51	0
2059.1754	1	10	n/a	n/a	1	51	1
2060.4086	1	21	n/a	n/a	1	51	0
2061.6086	1	10	n/a	n/a	1	51	1
2062.8584	1	10	n/a	n/a	1	51	2
2064.0584	1	10	n/a	n/a	1	51	3
2065.2082	1	10	n/a	n/a	1	51	4
