onset	duration	value	response	rt	good	Acu	estim	trial
0.0111	1	11	2	571.6	1	1	0 2 0	1
3.0542	1	11	1	582.2	1	1	1 0 0	2
6.5463	1	11	2	401	1	1	0 2 0	3
8.5917	1	11	3	357.1	1	1	0 0 3	4
11.2024	1	11	1	327.5	1	1	1 0 0	5
13.597	1	11	2	381	1	1	0 2 0	6
16.3408	1	11	2	356.8	1	1	0 2 0	7
19.3839	1	11	2	371.6	1	1	0 2 0	8
22.1277	1	12	3	641.1	1	1	2 3 2	1
25.4203	1	12	2	575.4	1	1	2 1 1	2
28.5632	1	12	1	703.6	1	1	2 1 2	3
31.307	1	11	2	483.7	1	1	0 2 0	1
33.8013	1	11	3	375.4	1	1	0 0 3	2
37.6094	1	11	2	410.8	1	1	0 2 0	3
39.9707	1	11	1	332.1	1	1	1 0 0	4
42.9473	1	11	1	359.4	1	1	1 0 0	5
45.3086	1	11	1	436	1	1	1 0 0	6
49.0834	1	11	2	390.7	1	1	0 2 0	7
51.7773	1	12	2	1001.8	1	1	3 3 2	1
54.3049	1	12	1	508.8	1	1	2 2 1	2
58.113	1	12	3	501.2	1	1	1 3 1	3
61.4056	1	12	1	576.7	1	1	2 1 2	4
64.2824	1	12	2	620.5	1	0	3 1 3	5
67.1758	1	12	1	696.6	1	1	2 1 2	6
70.618	1	11	3	357.5	1	1	0 0 3	1
74.1767	1	11	2	382.1	1	1	0 2 0	2
77.9681	1	11	2	423.1	1	1	0 2 0	3
80.7451	1	11	2	416.4	1	1	0 2 0	4
84.5698	1	12	3	530.7	1	1	3 2 2	1
87.4633	1	12	1	519.6	1	1	3 1 3	2
91.0884	1	12	1	607.2	1	1	3 1 3	3
93.483	1	12	1	542.1	1	1	3 3 1	4
95.8111	1	12	2	649.2	1	1	2 3 3	5
99.1868	1	11	3	529.2	1	1	0 0 3	1
101.4816	1	11	3	449.5	1	1	0 0 3	2
104.0258	1	11	2	416.2	1	1	0 2 0	3
107.4015	1	11	2	400.1	1	1	0 2 0	4
109.4968	1	11	3	488	1	1	0 0 3	5
111.6087	1	11	2	448.3	1	1	0 2 0	6
114.6684	1	11	2	379.4	1	1	0 2 0	7
117.8279	1	12	1	509.9	1	1	3 1 3	1
121.5861	1	12	3	560.5	1	1	3 2 2	2
124.9452	1	12	1	603.4	1	0	2 1 1	3
127.0737	1	12	3	668.7	1	1	2 3 2	4
130.1999	1	12	2	619	1	1	2 1 1	5
132.2786	1	11	1	476.7	1	1	1 0 0	1
134.8727	1	11	3	340.6	1	1	0 0 3	2
138.3316	1	11	3	434.2	1	1	0 0 3	3
140.7594	1	11	3	435.2	1	1	0 0 3	4
143.5198	1	11	1	352	1	1	1 0 0	5
146.9288	1	11	3	399.4	1	1	0 0 3	6
150.4375	1	11	2	362	1	1	0 2 0	7
153.7966	1	11	3	468	1	1	0 0 3	8
155.8253	1	12	1	689.9	1	0	3 3 2	1
158.3696	1	12	3	623.6	1	1	3 1 1	2
160.5812	1	12	1	575.6	1	1	3 3 1	3
162.743	1	12	2	608.6	1	1	1 1 2	4
165.4369	1	12	3	598.8	1	1	2 3 2	5
168.3969	1	12	3	511.3	1	1	1 3 1	6
171.5065	1	11	2	470.5	1	1	0 2 0	1
173.6018	1	11	3	403.7	1	1	0 0 3	2
176.5618	1	11	1	388.2	1	1	1 0 0	3
180.1204	1	11	1	370.3	1	1	1 0 0	4
183.1136	1	12	3	537.6	1	1	2 3 2	1
185.2255	1	12	1	514.4	1	1	3 3 1	2
188.4515	1	12	3	481.1	1	1	3 2 2	3
191.4115	1	11	3	408.7	1	1	0 0 3	1
193.3904	1	11	1	346.9	1	1	1 0 0	2
196.1508	1	11	1	376	1	1	1 0 0	3
199.6096	1	11	1	369.4	1	1	1 0 0	4
202.7691	1	11	3	485	1	1	0 0 3	5
205.2801	1	12	1	566	1	1	3 1 3	1
208.6392	1	12	1	515.1	1	1	2 2 1	2
210.9174	1	12	2	735.7	1	1	2 1 1	3
213.8607	1	12	2	599	1	1	1 1 2	4
216.9205	1	12	1	523.7	1	1	2 2 1	5
220.1964	1	12	3	519.9	1	1	3 2 2	6
223.3226	1	11	3	455.3	1	1	0 0 3	1
227.164	1	11	1	375.5	1	1	1 0 0	2
230.8057	1	11	2	401.2	1	1	0 2 0	3
233.0008	1	11	1	444	1	1	1 0 0	4
236.0439	1	12	1	608.8	1	1	3 3 1	1
238.3387	1	12	1	591.7	1	1	2 2 1	2
241.864	1	12	1	509.7	1	1	2 2 1	3
243.926	1	12	3	496.3	1	1	3 1 1	4
246.3871	1	12	2	620.9	1	1	1 1 2	5
249.6464	1	12	3	528.7	1	1	3 1 1	6
252.4568	1	12	3	572.7	1	1	2 3 2	7
255.9488	1	12	2	684.1	1	1	2 3 3	8
259.5906	1	11	1	501.4	1	1	1 0 0	1
262.8166	1	11	2	503.4	1	1	0 2 0	2
266.0261	1	11	1	407.8	1	1	1 0 0	3
268.7366	1	12	1	607.5	1	1	2 1 2	1
270.9483	1	12	1	848.9	1	1	2 1 2	2
273.7918	1	12	2	629.6	1	1	2 1 1	3
275.9702	1	12	3	511.7	1	1	3 2 2	4
278.7972	1	12	2	744.6	1	1	3 3 2	5
281.3913	1	12	2	610.3	1	1	1 1 2	6
284.1684	1	12	3	578.8	1	1	3 2 2	7
286.1306	1	11	2	523.6	1	1	0 2 0	1
288.3921	1	11	2	499.1	1	1	0 2 0	2
290.2879	1	11	3	475.5	1	1	0 0 3	3
292.5827	1	11	3	437.3	1	1	0 0 3	4
296.3242	1	11	3	390.6	1	1	0 0 3	5
300.0491	1	11	3	414	1	1	0 0 3	6
302.3439	1	11	2	387.1	1	1	0 2 0	7
305.0378	1	11	1	395.5	1	1	1 0 0	8
308.0477	1	12	2	591.4	1	1	3 3 2	1
310.7582	1	12	1	543.1	1	1	3 3 1	2
313.5353	1	12	2	600.3	1	1	1 1 2	3
316.7946	1	12	2	499	1	1	2 1 1	4
319.2889	1	12	2	638	1	1	2 3 3	5
322.0493	1	12	3	635	1	1	1 3 1	6
324.3275	1	12	3	831.6	1	1	2 3 2	7
326.9217	1	11	3	511.2	1	1	0 0 3	1
330.2475	1	11	1	427.3	1	1	1 0 0	2
332.7585	1	11	3	513.3	1	1	0 0 3	3
335.6353	1	12	2	648.5	1	1	3 3 2	1
339.1939	1	12	1	581.9	1	1	3 3 1	2
342.5197	1	12	3	592.2	1	1	3 2 2	3
344.7147	1	12	3	580.8	1	1	3 2 2	4
348.1736	1	12	3	486	1	1	3 2 2	5
351.2333	1	12	3	595.3	1	1	2 3 2	6
354.2765	1	11	2	446.3	1	1	0 2 0	1
356.405	1	11	3	445.7	1	1	0 0 3	2
359.4814	1	11	1	444	1	1	1 0 0	3
361.7429	1	11	3	522.3	1	1	0 0 3	4
364.4534	1	12	3	537.3	1	1	3 2 2	1
366.7815	1	12	1	658	1	1	3 1 3	2
370.0408	1	12	1	573.6	1	1	3 1 3	3
372.3522	1	12	3	542.9	1	1	1 3 1	4
374.3976	1	12	2	556.1	1	1	2 1 1	5
377.341	1	11	3	399	1	1	0 0 3	1
379.6856	1	11	1	418.3	1	1	1 0 0	2
382.9449	1	11	1	394	1	1	1 0 0	3
385.3229	1	11	3	379.7	1	1	0 0 3	4
387.7009	1	11	3	440.7	1	1	0 0 3	5
390.1121	1	11	1	392.3	1	1	1 0 0	6
392.0909	1	11	1	370	1	1	1 0 0	7
395.0177	1	12	3	534.9	1	1	3 2 2	1
397.379	1	12	3	572.5	1	1	1 3 1	2
401.1039	1	12	2	579.3	1	1	1 1 2	3
404.3798	1	12	3	470.3	1	1	3 1 1	4
407.5393	1	11	1	510.7	1	1	1 0 0	1
410.4993	1	11	1	378.9	1	1	1 0 0	2
414.1577	1	11	2	396.9	1	1	0 2 0	3
417.7163	1	11	1	360.7	1	1	1 0 0	4
421.092	1	11	2	372.2	1	1	0 2 0	5
424.318	1	11	2	358.3	1	1	0 2 0	6
427.0452	1	12	3	526.4	1	1	1 3 1	1
429.5063	1	12	3	486.2	1	1	3 2 2	2
432.1836	1	12	2	586.3	1	1	1 1 2	3
435.5759	1	11	2	462.1	1	1	0 2 0	1
438.6024	1	11	3	463.4	1	1	0 0 3	2
440.7143	1	11	3	373.7	1	1	0 0 3	3
443.4913	1	11	2	379.2	1	1	0 2 0	4
446.1354	1	11	3	371.1	1	1	0 0 3	5
448.8625	1	12	3	483.4	1	1	1 3 1	1
452.3879	1	12	2	495.6	1	1	1 1 2	2
455.5141	1	12	3	484.9	1	1	1 3 1	3
458.6737	1	12	1	604.4	1	1	3 3 1	4
462.0161	1	12	3	586	1	1	2 3 2	5
464.5105	1	12	1	548.8	1	1	2 2 1	6
466.8219	1	12	2	589	1	1	2 1 1	7
469.0502	1	12	1	540.4	1	1	2 2 1	8
472.9081	1	11	3	474	1	1	0 0 3	1
475.5189	1	11	2	358.2	1	1	0 2 0	2
478.7616	1	11	2	385.7	1	1	0 2 0	3
482.104	1	11	2	394.3	1	1	0 2 0	4
485.2968	1	11	1	379.4	1	1	1 0 0	5
488.2069	1	12	1	587.2	1	1	3 3 1	1
491.8819	1	12	3	495.4	1	1	3 2 2	2
495.6733	1	12	2	600.6	1	1	3 3 2	3
497.6023	1	12	2	554	1	1	3 3 2	4
500.4957	1	12	2	505.1	1	1	3 3 2	5
504.204	1	12	2	1055	1	1	2 1 1	6
506.9644	1	12	2	618.4	1	1	2 1 1	7
509.941	1	12	1	1136	1	1	2 1 2	8
511.9698	1	11	2	606.8	1	1	0 2 0	1
513.9154	1	11	1	582.7	1	1	1 0 0	2
516.3266	1	11	1	570.5	1	1	1 0 0	3
518.5549	1	12	1	641	1	1	3 3 1	1
521.9805	1	12	2	554.4	1	1	3 3 2	2
525.6888	1	12	3	527.5	1	1	3 1 1	3
529.264	1	12	2	544.8	1	1	1 1 2	4
531.8415	1	12	1	498.3	1	1	2 2 1	5
534.2361	1	12	2	620.9	1	1	1 1 2	6
537.0298	1	11	2	436.2	1	1	0 2 0	1
539.4742	1	11	1	397.8	1	1	1 0 0	2
542.534	1	11	3	364.8	1	1	0 0 3	3
545.0782	1	11	3	423.6	1	1	0 0 3	4
548.138	1	11	1	390.6	1	1	1 0 0	5
550.3164	1	11	2	337.7	1	1	0 2 0	6
552.3119	1	11	2	384.6	1	1	0 2 0	7
555.8206	1	12	1	545.4	1	1	2 2 1	1
559.6453	1	12	1	598.2	1	1	3 1 3	2
562.9711	1	12	1	512.6	1	1	3 1 3	3
565.8147	1	12	3	538.4	1	1	3 1 1	4
569.074	1	11	2	438.1	1	1	0 2 0	1
571.4685	1	11	3	444.3	1	1	0 0 3	2
574.4119	1	11	3	448.7	1	1	0 0 3	3
577.8042	1	12	2	609.6	1	1	3 3 2	1
579.9826	1	12	3	554.8	1	1	1 3 1	2
582.028	1	12	3	610.8	1	1	2 3 2	3
585.2374	1	12	1	572.3	1	1	3 1 3	4
587.6819	1	12	2	580.9	1	1	1 1 2	5
591.0576	1	12	3	523.3	1	1	1 3 1	6
593.8845	1	11	3	513.7	1	1	0 0 3	1
596.1461	1	11	3	394.7	1	1	0 0 3	2
599.7213	1	11	2	458.9	1	1	0 2 0	3
603.0471	1	11	2	430.1	1	1	0 2 0	4
605.2754	1	11	3	399.4	1	1	0 0 3	5
608.385	1	11	2	378.6	1	1	0 2 0	6
611.7774	1	11	3	429.3	1	1	0 0 3	7
614.754	1	12	2	650.8	1	1	3 3 2	1
618.562	1	12	2	532	1	1	3 3 2	2
620.4324	1	12	3	708.2	1	1	2 3 2	3
622.8357	1	12	3	640.7	1	1	3 2 2	4
624.8644	1	11	2	494.3	1	1	0 2 0	1
627.9741	1	11	3	403.4	1	1	0 0 3	2
631.3498	1	11	3	411.8	1	1	0 0 3	3
635.0747	1	11	1	396.4	1	1	1 0 0	4
638.6499	1	11	3	385.6	1	1	0 0 3	5
641.111	1	12	3	540	1	1	2 3 2	1
644.071	1	12	3	586.3	1	1	3 1 1	2
647.8458	1	12	3	467.8	1	1	1 3 1	3
651.1051	1	12	1	544.8	1	1	3 1 3	4
653.9486	1	12	1	572.7	1	1	3 1 3	5
656.9751	1	12	2	555.7	1	1	2 1 1	6
660.118	1	12	3	568.7	1	1	1 3 1	7
663.4272	1	12	3	742.7	1	1	3 2 2	8
665.7885	1	11	3	540.2	1	1	0 0 3	1
668.0501	1	11	1	489.1	1	1	1 0 0	2
670.7939	1	11	2	477.8	1	1	0 2 0	3
673.5377	1	11	1	477.4	1	1	1 0 0	4
675.8159	1	11	3	410.8	1	1	0 0 3	5
678.5098	1	11	2	365	1	1	0 2 0	6
681.7025	1	11	3	370.2	1	1	0 0 3	7
684.6958	1	12	3	465.6	1	1	3 1 1	1
687.0072	1	12	1	555.6	1	1	2 2 1	2
689.6679	1	12	1	588.7	1	1	3 1 3	3
692.9937	1	12	2	503	1	1	1 1 2	4
695.9536	1	12	3	410.5	1	1	3 1 1	5
699.479	1	12	2	522.5	1	1	2 1 1	6
701.9069	1	12	3	674.7	1	1	3 2 2	7
705.1495	1	12	3	538.9	1	1	1 3 1	8
708.4254	1	11	1	425.8	1	1	1 0 0	1
711.7679	1	11	2	362.3	1	1	0 2 0	2
713.8631	1	11	1	379.7	1	1	1 0 0	3
717.1391	1	12	1	533.8	1	1	2 2 1	1
720.4649	1	12	3	463.2	1	1	3 2 2	2
724.3228	1	12	1	604.8	1	1	3 1 3	3
727.6652	1	12	2	521.6	1	1	3 3 2	4
730.5587	1	11	3	499	1	1	0 0 3	1
733.685	1	11	2	433.8	1	1	0 2 0	2
737.4265	1	11	3	411.8	1	1	0 0 3	3
740.5361	1	11	1	339	1	1	1 0 0	4
744.0116	1	11	1	381.8	1	1	1 0 0	5
747.0714	1	12	1	621.1	1	1	3 3 1	1
750.6133	1	12	1	610.8	1	1	2 1 2	2
752.8749	1	12	2	650.6	1	1	2 1 1	3
756.234	1	12	2	638.5	1	1	3 3 2	4
758.745	1	12	2	609.6	1	1	2 3 3	5
760.8568	1	12	1	525.3	1	1	3 1 3	6
762.9189	1	11	3	499.6	1	1	0 0 3	1
765.8123	1	11	1	369.7	1	1	1 0 0	2
768.2568	1	11	3	434.2	1	1	0 0 3	3
770.6181	1	12	3	922.5	1	1	2 3 2	1
774.0603	1	12	1	561.8	1	1	3 1 3	2
776.6711	1	12	2	384.9	1	1	2 1 1	3
779.1987	1	12	3	416.5	1	1	3 1 1	4
781.294	1	12	3	681.1	1	1	2 3 2	5
784.3038	1	11	2	424.6	1	1	0 2 0	1
786.8314	1	11	3	413.9	1	1	0 0 3	2
790.257	1	11	2	384.6	1	1	0 2 0	3
792.1694	1	11	2	436.6	1	1	0 2 0	4
795.279	1	12	3	477.9	1	1	1 3 1	1
798.6713	1	12	3	420.7	1	1	1 3 1	2
801.9805	1	12	3	624.6	1	0	3 3 2	3
805.4726	1	12	1	565.8	1	1	2 1 2	4
809.0146	1	12	3	500.7	1	1	1 3 1	5
810.9768	1	12	1	819.5	1	1	2 1 2	6
812.9391	1	12	2	673.5	1	1	2 1 1	7
816.6639	1	12	1	553	1	1	2 1 2	8
818.7925	1	11	2	467.7	1	1	0 2 0	1
822.2014	1	11	1	424	1	1	1 0 0	2
826.0261	1	11	2	403.1	1	1	0 2 0	3
828.5205	1	11	2	394.9	1	1	0 2 0	4
830.7986	1	11	1	404.2	1	1	1 0 0	5
834.1078	1	11	3	370.3	1	1	0 0 3	6
836.5357	1	11	1	383	1	1	1 0 0	7
839.0966	1	12	2	647.6	1	1	2 3 3	1
842.2228	1	12	3	575.1	1	1	2 3 2	2
845.7482	1	12	2	635.1	1	1	3 3 2	3
848.5252	1	12	2	553.3	1	1	2 3 3	4
850.4043	1	12	2	991.1	1	1	2 1 1	5
853.5804	1	12	2	710.5	1	1	3 3 2	6
