onset	duration	value	response	rt	good	TMS	seq
47.2628	1	81	n/a	n/a	1	0	0
47.4628	1	81	n/a	n/a	1	0	0
47.6628	1	81	n/a	n/a	1	0	0
47.8628	1	81	n/a	n/a	1	0	0
48.0628	1	81	n/a	n/a	1	0	0
48.2628	1	81	n/a	n/a	1	0	0
48.4628	1	81	n/a	n/a	1	0	0
48.6628	1	81	n/a	n/a	1	0	0
48.8628	1	81	n/a	n/a	1	0	0
49.0628	1	81	n/a	n/a	1	0	0
50.4292	1	10	676.4	676.4	1	51	1
51.7458	1	10	287.8	287.8	1	51	2
53.029	1	10	396.5	396.5	1	51	3
54.2122	1	10	285.3	285.3	1	51	4
55.3956	1	10	349.9	349.9	1	51	5
56.5788	1	21	-99	-99	1	51	0
57.7788	1	10	270.7	270.7	1	51	1
58.9454	1	10	304.1	304.1	1	51	2
59.9952	1	10	278.1	278.1	1	51	3
61.1952	1	10	310.2	310.2	1	51	4
62.4784	1	10	292.6	292.6	1	51	5
63.7118	1	21	-99	-99	1	51	0
64.8284	1	10	260.9	260.9	1	51	1
66.1116	1	10	289.7	289.7	1	51	2
67.2948	1	10	274.4	274.4	1	51	3
68.4782	1	21	-99	-99	1	51	0
69.6114	1	10	245.8	245.8	1	51	1
70.928	1	10	273.2	273.2	1	51	2
72.1612	1	10	239.9	239.9	1	51	3
73.3112	1	10	257.9	257.9	1	51	4
74.2046	1	81	n/a	n/a	1	0	0
74.4046	1	81	n/a	n/a	1	0	0
74.6046	1	81	n/a	n/a	1	0	0
74.8046	1	81	n/a	n/a	1	0	0
75.0046	1	81	n/a	n/a	1	0	0
75.2046	1	81	n/a	n/a	1	0	0
75.4046	1	81	n/a	n/a	1	0	0
75.6046	1	81	n/a	n/a	1	0	0
75.8046	1	81	n/a	n/a	1	0	0
76.0046	1	81	n/a	n/a	1	0	0
77.2776	1	10	323.4	323.4	1	51	1
78.4442	1	10	260.8	260.8	1	51	2
79.6274	1	10	325.5	325.5	1	51	3
80.794	1	10	310.8	310.8	1	51	4
82.0774	1	10	307.5	307.5	1	51	5
83.1606	1	10	264.3	264.3	1	51	6
84.494	1	10	259	259	1	51	7
85.8272	1	21	-99	-99	1	51	0
87.1436	1	10	249	249	1	51	1
88.3102	1	10	250.4	250.4	1	51	2
89.4268	1	10	269.8	269.8	1	51	3
90.5436	1	21	-99	-99	1	51	0
91.5768	1	10	247.9	247.9	1	51	1
92.71	1	10	266.7	266.7	1	51	2
93.76	1	10	256.7	256.7	1	51	3
94.81	1	21	-99	-99	1	51	0
96.0598	1	10	244.7	244.7	1	51	1
97.1932	1	10	295.5	295.5	1	51	2
98.2764	1	10	252.2	252.2	1	51	3
99.343	1	10	241.5	241.5	1	51	4
100.4494	1	81	n/a	n/a	1	0	0
100.6494	1	81	n/a	n/a	1	0	0
100.8494	1	81	n/a	n/a	1	0	0
101.0494	1	81	n/a	n/a	1	0	0
101.2494	1	81	n/a	n/a	1	0	0
101.4494	1	81	n/a	n/a	1	0	0
101.6494	1	81	n/a	n/a	1	0	0
101.8494	1	81	n/a	n/a	1	0	0
102.0494	1	81	n/a	n/a	1	0	0
102.2494	1	81	n/a	n/a	1	0	0
103.526	1	10	266.4	266.4	1	51	1
104.7594	1	10	266.8	266.8	1	51	2
106.026	1	10	310.4	310.4	1	51	3
107.2592	1	10	373.1	373.1	1	51	4
108.5092	1	10	291.2	291.2	1	51	5
109.759	1	21	-99	-99	1	51	0
110.7924	1	10	248	248	1	51	1
112.0422	1	10	310	310	1	51	2
113.2756	1	10	276.7	276.7	1	51	3
114.5254	1	10	290.7	290.7	1	51	4
115.5754	1	10	312.8	312.8	1	51	5
116.642	1	10	286.2	286.2	1	51	6
117.6752	1	10	276.9	276.9	1	51	7
118.7086	1	21	-99	-99	1	51	0
119.7752	1	10	240.9	240.9	1	51	1
121.075	1	10	221	221	1	51	2
122.225	1	10	207	207	1	51	3
123.325	1	10	243.1	243.1	1	51	4
124.4082	1	10	263.8	263.8	1	51	5
125.4914	1	21	-99	-99	1	51	0
126.5092	1	81	n/a	n/a	1	0	0
126.7092	1	81	n/a	n/a	1	0	0
126.9092	1	81	n/a	n/a	1	0	0
127.1092	1	81	n/a	n/a	1	0	0
127.3092	1	81	n/a	n/a	1	0	0
127.5092	1	81	n/a	n/a	1	0	0
127.7092	1	81	n/a	n/a	1	0	0
127.9092	1	81	n/a	n/a	1	0	0
128.1092	1	81	n/a	n/a	1	0	0
128.3092	1	81	n/a	n/a	1	0	0
129.7078	1	10	292	292	1	51	1
131.0078	1	21	-99	-99	1	51	0
132.2744	1	10	253.4	253.4	1	51	1
133.4744	1	10	301.4	301.4	1	51	2
134.6742	1	10	269.5	269.5	1	51	3
135.9574	1	10	282.2	282.2	1	51	4
137.224	1	10	263.5	263.5	1	51	5
138.424	1	10	295.6	295.6	1	51	6
139.5072	1	10	252.3	252.3	1	51	7
140.5906	1	21	-99	-99	1	51	0
141.8738	1	10	253.8	253.8	1	51	1
142.9738	1	10	273.8	273.8	1	51	2
144.2236	1	10	239.8	239.8	1	51	3
145.4736	1	21	-99	-99	1	51	0
146.6568	1	10	254.6	254.6	1	51	1
147.9234	1	10	268	268	1	51	2
149.0568	1	10	254.7	254.7	1	51	3
150.19	1	21	-99	-99	1	51	0
151.24	1	10	327.4	327.4	1	51	1
152.3898	1	10	249.4	249.4	1	51	2
153.2634	1	81	n/a	n/a	1	0	0
153.4634	1	81	n/a	n/a	1	0	0
153.6634	1	81	n/a	n/a	1	0	0
153.8634	1	81	n/a	n/a	1	0	0
154.0634	1	81	n/a	n/a	1	0	0
154.2634	1	81	n/a	n/a	1	0	0
154.4634	1	81	n/a	n/a	1	0	0
154.6634	1	81	n/a	n/a	1	0	0
154.8634	1	81	n/a	n/a	1	0	0
155.0634	1	81	n/a	n/a	1	0	0
156.4064	1	10	392.9	392.9	1	51	1
157.6896	1	10	277.6	277.6	1	51	2
158.9562	1	10	291	291	1	51	3
160.2228	1	21	-99	-99	1	51	0
161.2894	1	10	373.8	373.8	1	51	1
162.356	1	10	283.1	283.1	1	51	2
163.5392	1	10	347.8	347.8	1	51	3
164.7224	1	21	316.5	316.5	1	51	0
165.989	1	10	-99	-99	1	51	1
167.139	1	10	252	252	1	51	2
168.339	1	10	252.1	252.1	1	51	3
169.5388	1	21	-99	-99	1	51	0
170.8054	1	10	297.4	297.4	1	51	1
172.122	1	10	260.8	260.8	1	51	2
173.4054	1	10	257.6	257.6	1	51	3
174.472	1	10	294.9	294.9	1	51	4
175.6386	1	10	296.2	296.2	1	51	5
176.8052	1	21	-99	-99	1	51	0
177.855	1	10	287.7	287.7	1	51	1
179.055	1	10	-99	-99	1	51	2
190.536	1	82	n/a	n/a	1	0	0
190.557	1	82	n/a	n/a	1	0	0
190.778	1	82	n/a	n/a	1	0	0
190.933	1	82	n/a	n/a	1	0	0
191.044	1	82	n/a	n/a	1	0	0
191.536	1	82	n/a	n/a	1	0	0
191.9	1	82	n/a	n/a	1	0	0
192.062	1	82	n/a	n/a	1	0	0
192.392	1	82	n/a	n/a	1	0	0
192.486	1	82	n/a	n/a	1	0	0
193.7208	1	10	437.6	437.6	1	50	1
194.8208	1	10	265.6	265.6	1	50	2
195.9874	1	10	283	283	1	50	3
197.204	1	10	282.4	282.4	1	50	4
198.2706	1	10	335.8	335.8	1	50	5
199.3372	1	21	-99	-99	1	50	0
200.6538	1	10	288.5	288.5	1	50	1
201.9702	1	10	299.9	299.9	1	50	2
203.0702	1	10	239.9	239.9	1	50	3
204.1534	1	10	276.7	276.7	1	50	4
205.37	1	10	276.1	276.1	1	50	5
206.5866	1	21	-99	-99	1	50	0
207.8532	1	10	272.7	272.7	1	50	1
209.1198	1	21	-99	-99	1	50	0
210.3032	1	10	286.9	286.9	1	50	1
211.5364	1	10	269.6	269.6	1	50	2
212.7364	1	10	253.7	253.7	1	50	3
213.8362	1	10	257.6	257.6	1	50	4
215.0196	1	10	274.4	274.4	1	50	5
216.2028	1	21	-99	-99	1	50	0
217.2824	1	82	n/a	n/a	1	0	0
217.3694	1	82	n/a	n/a	1	0	0
217.4154	1	82	n/a	n/a	1	0	0
217.6124	1	82	n/a	n/a	1	0	0
218.0404	1	82	n/a	n/a	1	0	0
218.2826	1	82	n/a	n/a	1	0	0
218.3686	1	82	n/a	n/a	1	0	0
218.7404	1	82	n/a	n/a	1	0	0
218.8854	1	82	n/a	n/a	1	0	0
219.0574	1	82	n/a	n/a	1	0	0
220.4026	1	10	315.2	315.2	1	50	1
221.5358	1	10	317.9	317.9	1	50	2
222.869	1	10	298.4	298.4	1	50	3
224.169	1	21	-99	-99	1	50	0
225.4022	1	10	323.5	323.5	1	50	1
226.6356	1	10	306.1	306.1	1	50	2
227.7022	1	10	327.5	327.5	1	50	3
228.9188	1	10	294.9	294.9	1	50	4
230.1686	1	10	276.9	276.9	1	50	5
231.202	1	10	283.7	283.7	1	50	6
232.3186	1	10	367	367	1	50	7
233.4352	1	21	-99	-99	1	50	0
234.6184	1	10	307.1	307.1	1	50	1
235.8516	1	10	241.8	241.8	1	50	2
236.9016	1	10	375.9	375.9	1	50	3
238.0682	1	10	345.3	345.3	1	50	4
239.2348	1	10	298.5	298.5	1	50	5
240.4014	1	21	331.9	331.9	1	50	0
241.5014	1	10	-99	-99	1	50	1
242.7512	1	10	286.1	286.1	1	50	2
243.8648	1	82	n/a	n/a	1	0	0
244.0918	1	82	n/a	n/a	1	0	0
244.1688	1	82	n/a	n/a	1	0	0
244.3328	1	82	n/a	n/a	1	0	0
244.5908	1	82	n/a	n/a	1	0	0
244.8648	1	82	n/a	n/a	1	0	0
245.2378	1	82	n/a	n/a	1	0	0
245.2578	1	82	n/a	n/a	1	0	0
245.4648	1	82	n/a	n/a	1	0	0
245.5818	1	82	n/a	n/a	1	0	0
246.901	1	10	376.2	376.2	1	50	1
247.951	1	10	286.2	286.2	1	50	2
249.2676	1	10	361.6	361.6	1	50	3
250.6008	1	10	276.3	276.3	1	50	4
251.8506	1	10	258.3	258.3	1	50	5
253.1006	1	21	240.4	240.4	1	50	0
254.3672	1	10	381.8	381.8	1	50	1
255.6504	1	10	282.5	282.5	1	50	2
256.7838	1	10	317.3	317.3	1	50	3
257.8504	1	10	354.6	354.6	1	50	4
259.0502	1	10	306.6	306.6	1	50	5
260.2668	1	10	242	242	1	50	6
261.5834	1	10	333.4	333.4	1	50	7
262.9	1	21	-99	-99	1	50	0
264.0666	1	10	298.1	298.1	1	50	1
265.15	1	10	302.8	302.8	1	50	2
266.3332	1	10	255.6	255.6	1	50	3
267.5164	1	21	240.3	240.3	1	50	0
268.5664	1	10	326.3	326.3	1	50	1
269.783	1	10	293.7	293.7	1	50	2
270.5894	1	82	n/a	n/a	1	0	0
270.6414	1	82	n/a	n/a	1	0	0
270.9464	1	82	n/a	n/a	1	0	0
271.2274	1	82	n/a	n/a	1	0	0
271.3254	1	82	n/a	n/a	1	0	0
271.5896	1	82	n/a	n/a	1	0	0
271.6726	1	82	n/a	n/a	1	0	0
271.9044	1	82	n/a	n/a	1	0	0
272.2084	1	82	n/a	n/a	1	0	0
272.3184	1	82	n/a	n/a	1	0	0
273.5328	1	10	303.8	303.8	1	50	1
274.7494	1	10	383.2	383.2	1	50	2
275.866	1	10	258.6	258.6	1	50	3
277.0326	1	10	371.9	371.9	1	50	4
278.3492	1	10	287.3	287.3	1	50	5
279.6324	1	10	252	252	1	50	6
280.9656	1	10	392.6	392.6	1	50	7
282.249	1	21	-99	-99	1	50	0
283.3156	1	10	280.8	280.8	1	50	1
284.5988	1	10	293.5	293.5	1	50	2
285.9154	1	10	288.9	288.9	1	50	3
287.232	1	21	-99	-99	1	50	0
288.4818	1	10	330.4	330.4	1	50	1
289.5818	1	10	254.4	254.4	1	50	2
290.665	1	10	259.1	259.1	1	50	3
291.8484	1	10	243.8	243.8	1	50	4
293.165	1	10	287.2	287.2	1	50	5
294.4816	1	21	-99	-99	1	50	0
295.5648	1	10	255.3	255.3	1	50	1
296.7814	1	10	286.6	286.6	1	50	2
297.6858	1	82	n/a	n/a	1	0	0
297.9638	1	82	n/a	n/a	1	0	0
298.2098	1	82	n/a	n/a	1	0	0
298.6048	1	82	n/a	n/a	1	0	0
298.6438	1	82	n/a	n/a	1	0	0
298.686	1	82	n/a	n/a	1	0	0
298.865	1	82	n/a	n/a	1	0	0
298.932	1	82	n/a	n/a	1	0	0
299.17	1	82	n/a	n/a	1	0	0
299.3108	1	82	n/a	n/a	1	0	0
300.8644	1	10	379.5	379.5	1	50	1
302.1478	1	21	-99	-99	1	50	0
303.331	1	10	264.9	264.9	1	50	1
304.531	1	10	264.9	264.9	1	50	2
305.6976	1	10	282.3	282.3	1	50	3
306.8974	1	10	282.4	282.4	1	50	4
308.214	1	10	261.7	261.7	1	50	5
309.3806	1	10	247.1	247.1	1	50	6
310.6806	1	10	275.2	275.2	1	50	7
311.9806	1	21	-99	-99	1	50	0
313.0804	1	10	387.3	387.3	1	50	1
314.2638	1	10	292	292	1	50	2
315.297	1	10	282.6	282.6	1	50	3
316.3302	1	21	-99	-99	1	50	0
317.5968	1	10	254.8	254.8	1	50	1
318.6968	1	10	274.8	274.8	1	50	2
319.98	1	10	335.6	335.6	1	50	3
321.03	1	10	261.5	261.5	1	50	4
322.3466	1	10	240.9	240.9	1	50	5
323.6632	1	21	-99	-99	1	50	0
364.4878	1	82	n/a	n/a	1	0	0
364.5448	1	82	n/a	n/a	1	0	0
364.6288	1	82	n/a	n/a	1	0	0
364.8338	1	82	n/a	n/a	1	0	0
365.2398	1	82	n/a	n/a	1	0	0
365.4878	1	82	n/a	n/a	1	0	0
365.5158	1	82	n/a	n/a	1	0	0
365.9258	1	82	n/a	n/a	1	0	0
366.1328	1	82	n/a	n/a	1	0	0
366.2808	1	82	n/a	n/a	1	0	0
367.694	1	10	412.6	412.6	1	52	1
369.0104	1	21	-99	-99	1	52	0
370.1438	1	10	266.7	266.7	1	52	1
371.227	1	10	367.4	367.4	1	52	2
372.3102	1	10	276	276	1	52	3
373.3436	1	10	282.8	282.8	1	52	4
374.6434	1	10	342.8	342.8	1	52	5
375.96	1	10	258.2	258.2	1	52	6
377.11	1	10	244.2	244.2	1	52	7
378.26	1	21	-99	-99	1	52	0
379.4432	1	10	263	263	1	52	1
380.6432	1	21	-99	-99	1	52	0
381.7098	1	10	236.4	236.4	1	52	1
382.9764	1	10	297.8	297.8	1	52	2
384.2096	1	10	264.5	264.5	1	52	3
385.4428	1	21	-99	-99	1	52	0
386.4928	1	10	253.2	253.2	1	52	1
387.576	1	10	274	274	1	52	2
388.826	1	10	288	288	1	52	3
390.026	1	10	272.1	272.1	1	52	4
391.1234	1	82	n/a	n/a	1	0	0
391.2014	1	82	n/a	n/a	1	0	0
391.5904	1	82	n/a	n/a	1	0	0
391.9154	1	82	n/a	n/a	1	0	0
391.9574	1	82	n/a	n/a	1	0	0
392.1234	1	82	n/a	n/a	1	0	0
392.2114	1	82	n/a	n/a	1	0	0
392.3364	1	82	n/a	n/a	1	0	0
392.6874	1	82	n/a	n/a	1	0	0
392.7324	1	82	n/a	n/a	1	0	0
394.259	1	10	374.9	374.9	1	52	1
395.509	1	21	-99	-99	1	52	0
396.6088	1	10	280.9	280.9	1	52	1
397.7088	1	21	-99	-99	1	52	0
398.9088	1	10	429	429	1	52	1
399.9586	1	10	291.1	291.1	1	52	2
401.192	1	10	289.8	289.8	1	52	3
402.2418	1	10	375.8	375.8	1	52	4
403.2752	1	10	270.5	270.5	1	52	5
404.5918	1	10	281.9	281.9	1	52	6
405.775	1	10	346.6	346.6	1	52	7
406.9582	1	21	-99	-99	1	52	0
408.1916	1	10	314.1	314.1	1	52	1
409.2914	1	10	270	270	1	52	2
410.4748	1	10	318.8	318.8	1	52	3
411.758	1	10	235.5	235.5	1	52	4
412.9412	1	10	300.2	300.2	1	52	5
414.0078	1	10	289.6	289.6	1	52	6
415.1078	1	10	309.6	309.6	1	52	7
416.2078	1	21	281.7	281.7	1	52	0
417.2682	1	82	n/a	n/a	1	0	0
417.6812	1	82	n/a	n/a	1	0	0
417.8452	1	82	n/a	n/a	1	0	0
417.9252	1	82	n/a	n/a	1	0	0
417.9752	1	82	n/a	n/a	1	0	0
418.2682	1	82	n/a	n/a	1	0	0
418.5462	1	82	n/a	n/a	1	0	0
418.8512	1	82	n/a	n/a	1	0	0
418.9452	1	82	n/a	n/a	1	0	0
419.0942	1	82	n/a	n/a	1	0	0
420.2574	1	10	279.8	279.8	1	52	1
421.3574	1	21	-99	-99	1	52	0
422.4574	1	10	239.8	239.8	1	52	1
423.5406	1	10	292.6	292.6	1	52	2
424.7238	1	10	261.3	261.3	1	52	3
425.9072	1	21	-99	-99	1	52	0
426.957	1	10	284.1	284.1	1	52	1
428.207	1	10	362	362	1	52	2
429.3902	1	10	298.8	298.8	1	52	3
430.6736	1	10	311.5	311.5	1	52	4
431.8402	1	10	456.9	456.9	1	52	5
432.9068	1	10	302.3	302.3	1	52	6
433.9734	1	10	307.7	307.7	1	52	7
435.04	1	21	-99	-99	1	52	0
436.2066	1	10	314.4	314.4	1	52	1
437.4064	1	10	250.4	250.4	1	52	2
438.623	1	10	281.8	281.8	1	52	3
439.7564	1	10	316.5	316.5	1	52	4
440.9062	1	10	302.5	302.5	1	52	5
442.0562	1	21	-99	-99	1	52	0
442.835	1	82	n/a	n/a	1	0	0
443.071	1	82	n/a	n/a	1	0	0
443.171	1	82	n/a	n/a	1	0	0
443.214	1	82	n/a	n/a	1	0	0
443.598	1	82	n/a	n/a	1	0	0
443.835	1	82	n/a	n/a	1	0	0
443.861	1	82	n/a	n/a	1	0	0
443.975	1	82	n/a	n/a	1	0	0
444.052	1	82	n/a	n/a	1	0	0
444.472	1	82	n/a	n/a	1	0	0
445.7726	1	10	348.1	348.1	1	52	1
446.8726	1	10	272.2	272.2	1	52	2
448.0726	1	10	336.1	336.1	1	52	3
449.2724	1	21	-99	-99	1	52	0
450.3558	1	10	260.9	260.9	1	52	1
451.389	1	10	267.6	267.6	1	52	2
452.6222	1	10	284.1	284.1	1	52	3
453.9222	1	10	326.4	326.4	1	52	4
454.9554	1	10	285	285	1	52	5
455.9888	1	21	-99	-99	1	52	0
457.172	1	10	276.5	276.5	1	52	1
458.2552	1	10	377.2	377.2	1	52	2
459.4218	1	10	282.6	282.6	1	52	3
460.5384	1	10	270	270	1	52	4
461.7218	1	10	398.6	398.6	1	52	5
462.805	1	10	259.3	259.3	1	52	6
463.955	1	10	405.4	405.4	1	52	7
465.1048	1	21	-99	-99	1	52	0
466.2214	1	10	282.8	282.8	1	52	1
467.3714	1	10	236.8	236.8	1	52	2
468.2678	1	82	n/a	n/a	1	0	0
468.3798	1	82	n/a	n/a	1	0	0
468.6678	1	82	n/a	n/a	1	0	0
468.9088	1	82	n/a	n/a	1	0	0
468.9508	1	82	n/a	n/a	1	0	0
469.2678	1	82	n/a	n/a	1	0	0
469.4368	1	82	n/a	n/a	1	0	0
469.5018	1	82	n/a	n/a	1	0	0
469.8458	1	82	n/a	n/a	1	0	0
469.8678	1	82	n/a	n/a	1	0	0
471.3378	1	10	334.4	334.4	1	52	1
472.6044	1	10	267.7	267.7	1	52	2
473.8876	1	10	264.4	264.4	1	52	3
475.171	1	21	-99	-99	1	52	0
476.2876	1	10	312.5	312.5	1	52	1
477.4042	1	21	-99	-99	1	52	0
478.6208	1	10	427.2	427.2	1	52	1
479.704	1	10	495.9	495.9	1	52	2
480.804	1	10	340	340	1	52	3
481.9038	1	21	-99	-99	1	52	0
483.2204	1	10	307.4	307.4	1	52	1
484.4538	1	10	258.2	258.2	1	52	2
485.7704	1	10	301.5	301.5	1	52	3
486.9536	1	10	350.2	350.2	1	52	4
488.0202	1	10	451.6	451.6	1	52	5
489.1034	1	10	392.3	392.3	1	52	6
490.32	1	10	295.7	295.7	1	52	7
491.5366	1	21	-99	-99	1	52	0
492.7032	1	10	296.4	296.4	1	52	1
493.9864	1	10	261.1	261.1	1	52	2
609.0078	1	81	n/a	n/a	1	0	0
609.2078	1	81	n/a	n/a	1	0	0
609.4078	1	81	n/a	n/a	1	0	0
609.6078	1	81	n/a	n/a	1	0	0
609.8078	1	81	n/a	n/a	1	0	0
610.0078	1	81	n/a	n/a	1	0	0
610.2078	1	81	n/a	n/a	1	0	0
610.4078	1	81	n/a	n/a	1	0	0
610.6078	1	81	n/a	n/a	1	0	0
610.8078	1	81	n/a	n/a	1	0	0
611.9962	1	10	392.8	392.8	1	51	1
613.1128	1	21	-99	-99	1	51	0
614.196	1	10	288.8	288.8	1	51	1
615.2294	1	10	295.5	295.5	1	51	2
616.446	1	10	310.9	310.9	1	51	3
617.4958	1	10	269	269	1	51	4
618.6624	1	10	302.3	302.3	1	51	5
619.7624	1	10	322.4	322.4	1	51	6
620.8958	1	10	309	309	1	51	7
622.029	1	21	-99	-99	1	51	0
623.079	1	10	301.8	301.8	1	51	1
624.3788	1	10	281.9	281.9	1	51	2
625.612	1	10	344.6	344.6	1	51	3
626.6786	1	10	366	366	1	51	4
627.712	1	10	244.6	244.6	1	51	5
628.7452	1	21	251.3	251.3	1	51	0
629.9618	1	10	394.7	394.7	1	51	1
631.2284	1	10	360.1	360.1	1	51	2
632.4284	1	10	264.2	264.2	1	51	3
633.6782	1	10	326.2	326.2	1	51	4
634.4478	1	81	n/a	n/a	1	0	0
634.6478	1	81	n/a	n/a	1	0	0
634.8478	1	81	n/a	n/a	1	0	0
635.0478	1	81	n/a	n/a	1	0	0
635.2478	1	81	n/a	n/a	1	0	0
635.4478	1	81	n/a	n/a	1	0	0
635.6478	1	81	n/a	n/a	1	0	0
635.8478	1	81	n/a	n/a	1	0	0
636.0478	1	81	n/a	n/a	1	0	0
636.2478	1	81	n/a	n/a	1	0	0
637.5948	1	10	345.7	345.7	1	51	1
638.6946	1	10	269.8	269.8	1	51	2
639.8946	1	10	269.7	269.7	1	51	3
640.9446	1	10	259.8	259.8	1	51	4
642.2444	1	10	255.8	255.8	1	51	5
643.5444	1	21	267.9	267.9	1	51	0
644.5776	1	10	434.6	434.6	1	51	1
645.6442	1	10	312	312	1	51	2
646.8608	1	10	295.4	295.4	1	51	3
647.8942	1	10	254	254	1	51	4
648.944	1	10	244.1	244.1	1	51	5
649.994	1	21	-99	-99	1	51	0
651.094	1	10	254.2	254.2	1	51	1
652.3772	1	10	314.9	314.9	1	51	2
653.4104	1	10	241.6	241.6	1	51	3
654.4438	1	21	-99	-99	1	51	0
655.5936	1	10	266.3	266.3	1	51	1
656.6936	1	10	-99	-99	1	51	2
657.7602	1	10	307.8	307.8	1	51	3
658.9768	1	10	323.2	323.2	1	51	4
659.8142	1	81	n/a	n/a	1	0	0
660.0142	1	81	n/a	n/a	1	0	0
660.2142	1	81	n/a	n/a	1	0	0
660.4142	1	81	n/a	n/a	1	0	0
660.6142	1	81	n/a	n/a	1	0	0
660.8142	1	81	n/a	n/a	1	0	0
661.0142	1	81	n/a	n/a	1	0	0
661.2142	1	81	n/a	n/a	1	0	0
661.4142	1	81	n/a	n/a	1	0	0
661.6142	1	81	n/a	n/a	1	0	0
662.96	1	10	373.1	373.1	1	51	1
664.1098	1	10	326	326	1	51	2
665.393	1	10	370.6	370.6	1	51	3
666.6764	1	21	-99	-99	1	51	0
667.943	1	10	268.8	268.8	1	51	1
669.0928	1	10	286.8	286.8	1	51	2
670.1762	1	10	307.6	307.6	1	51	3
671.276	1	10	295.6	295.6	1	51	4
672.5426	1	10	340.9	340.9	1	51	5
673.7926	1	10	291	291	1	51	6
675.0592	1	10	336.4	336.4	1	51	7
676.3258	1	21	-99	-99	1	51	0
677.4258	1	10	273.8	273.8	1	51	1
678.6756	1	10	255.8	255.8	1	51	2
679.7422	1	10	229.2	229.2	1	51	3
680.8088	1	21	234.6	234.6	1	51	0
681.9754	1	10	332	332	1	51	1
683.0088	1	10	322.7	322.7	1	51	2
684.142	1	10	245.4	245.4	1	51	3
685.2752	1	21	-99	-99	1	51	0
686	1	81	n/a	n/a	1	0	0
686.2	1	81	n/a	n/a	1	0	0
686.4	1	81	n/a	n/a	1	0	0
686.6	1	81	n/a	n/a	1	0	0
686.8	1	81	n/a	n/a	1	0	0
687	1	81	n/a	n/a	1	0	0
687.2	1	81	n/a	n/a	1	0	0
687.4	1	81	n/a	n/a	1	0	0
687.6	1	81	n/a	n/a	1	0	0
687.8	1	81	n/a	n/a	1	0	0
688.9584	1	10	372.9	372.9	1	51	1
690.025	1	21	-99	-99	1	51	0
691.125	1	10	350.2	350.2	1	51	1
692.2416	1	21	-99	-99	1	51	0
693.3082	1	10	295	295	1	51	1
694.3748	1	21	-99	-99	1	51	0
695.4414	1	10	305.8	305.8	1	51	1
696.508	1	21	-99	-99	1	51	0
697.8246	1	10	274.5	274.5	1	51	1
699.1412	1	10	477.9	477.9	1	51	2
700.291	1	10	352	352	1	51	3
701.3244	1	10	326.7	326.7	1	51	4
702.5576	1	10	325.3	325.3	1	51	5
703.7908	1	21	-99	-99	1	51	0
704.8742	1	10	264.8	264.8	1	51	1
706.1574	1	10	325.5	325.5	1	51	2
707.474	1	10	304.9	304.9	1	51	3
708.5238	1	10	294.9	294.9	1	51	4
709.6238	1	10	330.9	330.9	1	51	5
710.8738	1	10	345	345	1	51	6
711.6702	1	81	n/a	n/a	1	0	0
711.8702	1	81	n/a	n/a	1	0	0
712.0702	1	81	n/a	n/a	1	0	0
712.2702	1	81	n/a	n/a	1	0	0
712.4702	1	81	n/a	n/a	1	0	0
712.6702	1	81	n/a	n/a	1	0	0
712.8702	1	81	n/a	n/a	1	0	0
713.0702	1	81	n/a	n/a	1	0	0
713.2702	1	81	n/a	n/a	1	0	0
713.4702	1	81	n/a	n/a	1	0	0
714.6402	1	10	370.5	370.5	1	51	1
715.8402	1	10	290.6	290.6	1	51	2
717.1068	1	10	303.9	303.9	1	51	3
718.2234	1	10	307.3	307.3	1	51	4
719.5232	1	10	319.3	319.3	1	51	5
720.8232	1	21	-99	-99	1	51	0
721.9732	1	10	269.4	269.4	1	51	1
723.2396	1	10	298.7	298.7	1	51	2
724.3562	1	10	926.1	926.1	1	51	3
725.6228	1	10	443.5	443.5	1	51	4
726.8228	1	10	235.6	235.6	1	51	5
728.1228	1	10	311.7	311.7	1	51	6
729.3226	1	10	295.6	295.6	1	51	7
730.5226	1	21	-99	-99	1	51	0
731.7392	1	10	247.1	247.1	1	51	1
733.0224	1	10	371.8	371.8	1	51	2
734.2558	1	10	258.6	258.6	1	51	3
735.489	1	21	-99	-99	1	51	0
736.539	1	10	279.2	279.2	1	51	1
737.8388	1	10	291.3	291.3	1	51	2
747.2734	1	81	n/a	n/a	1	0	0
747.4734	1	81	n/a	n/a	1	0	0
747.6734	1	81	n/a	n/a	1	0	0
747.8734	1	81	n/a	n/a	1	0	0
748.0734	1	81	n/a	n/a	1	0	0
748.2734	1	81	n/a	n/a	1	0	0
748.4734	1	81	n/a	n/a	1	0	0
748.6734	1	81	n/a	n/a	1	0	0
748.8734	1	81	n/a	n/a	1	0	0
749.0734	1	81	n/a	n/a	1	0	0
750.3382	1	10	335.8	335.8	1	50	1
751.5048	1	21	-99	-99	1	50	0
752.538	1	10	295.9	295.9	1	50	1
753.638	1	10	363.9	363.9	1	50	2
754.9212	1	10	280.6	280.6	1	50	3
756.0878	1	10	282	282	1	50	4
757.1544	1	10	303.3	303.3	1	50	5
758.221	1	21	-99	-99	1	50	0
759.4876	1	10	274.1	274.1	1	50	1
760.6542	1	10	515.4	515.4	1	50	2
761.7374	1	10	248.1	248.1	1	50	3
762.8208	1	21	-99	-99	1	50	0
763.854	1	10	259.6	259.6	1	50	1
764.9706	1	10	263	263	1	50	2
766.2038	1	10	261.7	261.7	1	50	3
767.2872	1	10	250.3	250.3	1	50	4
768.3204	1	10	273.1	273.1	1	50	5
769.3536	1	21	-99	-99	1	50	0
770.6202	1	10	21.2	21.2	1	50	1
771.8868	1	21	-99	-99	1	50	0
772.7726	1	81	n/a	n/a	1	0	0
772.9726	1	81	n/a	n/a	1	0	0
773.1726	1	81	n/a	n/a	1	0	0
773.3724	1	81	n/a	n/a	1	0	0
773.5724	1	81	n/a	n/a	1	0	0
773.7726	1	81	n/a	n/a	1	0	0
773.9726	1	81	n/a	n/a	1	0	0
774.1726	1	81	n/a	n/a	1	0	0
774.3726	1	81	n/a	n/a	1	0	0
774.5726	1	81	n/a	n/a	1	0	0
775.9532	1	10	368	368	1	50	1
777.0366	1	10	388.7	388.7	1	50	2
778.3032	1	10	258.1	258.1	1	50	3
779.5698	1	21	-99	-99	1	50	0
780.7364	1	10	240.8	240.8	1	50	1
781.903	1	21	-99	-99	1	50	0
783.0528	1	10	644.3	644.3	1	50	1
784.1694	1	10	311.7	311.7	1	50	2
785.2694	1	10	235.7	235.7	1	50	3
786.4694	1	10	251.7	251.7	1	50	4
787.786	1	10	343.1	343.1	1	50	5
789.1024	1	21	-99	-99	1	50	0
790.319	1	10	241.9	241.9	1	50	1
791.5356	1	21	-99	-99	1	50	0
792.819	1	10	-99	-99	1	50	1
793.9188	1	10	306	306	1	50	2
795.0854	1	10	275.4	275.4	1	50	3
796.2854	1	10	227.4	227.4	1	50	4
797.4854	1	10	259.5	259.5	1	50	5
798.6852	1	21	259.5	259.5	1	50	0
799.7868	1	81	n/a	n/a	1	0	0
799.9868	1	81	n/a	n/a	1	0	0
800.1868	1	81	n/a	n/a	1	0	0
800.3868	1	81	n/a	n/a	1	0	0
800.5868	1	81	n/a	n/a	1	0	0
800.7868	1	81	n/a	n/a	1	0	0
800.9868	1	81	n/a	n/a	1	0	0
801.1868	1	81	n/a	n/a	1	0	0
801.3868	1	81	n/a	n/a	1	0	0
801.5868	1	81	n/a	n/a	1	0	0
802.735	1	10	369.7	369.7	1	50	1
803.9016	1	10	435	435	1	50	2
804.9682	1	10	-99	-99	1	50	3
806.0682	1	10	316.4	316.4	1	50	4
807.3014	1	10	284.9	284.9	1	50	5
808.4846	1	21	-99	-99	1	50	0
809.768	1	10	264.6	264.6	1	50	1
811.0346	1	10	261.9	261.9	1	50	2
812.1012	1	10	411.3	411.3	1	50	3
813.301	1	10	315.4	315.4	1	50	4
814.3676	1	10	272.8	272.8	1	50	5
815.501	1	10	355.5	355.5	1	50	6
816.6508	1	10	325.5	325.5	1	50	7
817.8008	1	21	-99	-99	1	50	0
819.0674	1	10	372.9	372.9	1	50	1
820.334	1	21	-99	-99	1	50	0
821.6506	1	10	333.7	333.7	1	50	1
822.9672	1	21	-99	-99	1	50	0
824.1504	1	10	313.7	313.7	1	50	1
825.417	1	10	727.1	727.1	1	50	2
826.3744	1	81	n/a	n/a	1	0	0
826.5744	1	81	n/a	n/a	1	0	0
826.7744	1	81	n/a	n/a	1	0	0
826.9744	1	81	n/a	n/a	1	0	0
827.1744	1	81	n/a	n/a	1	0	0
827.3744	1	81	n/a	n/a	1	0	0
827.5744	1	81	n/a	n/a	1	0	0
827.7744	1	81	n/a	n/a	1	0	0
827.9744	1	81	n/a	n/a	1	0	0
828.1744	1	81	n/a	n/a	1	0	0
829.4334	1	10	-99	-99	1	50	1
830.7168	1	10	531.3	531.3	1	50	2
831.8	1	10	248	248	1	50	3
832.85	1	10	254.1	254.1	1	50	4
833.8998	1	10	276.1	276.1	1	50	5
834.9498	1	21	218.2	218.2	1	50	0
836.033	1	10	254.8	254.8	1	50	1
837.1164	1	21	-99	-99	1	50	0
838.283	1	10	292.9	292.9	1	50	1
839.4496	1	21	-99	-99	1	50	0
840.4828	1	10	301.1	301.1	1	50	1
841.516	1	21	-99	-99	1	50	0
842.5494	1	10	330.4	330.4	1	50	1
843.666	1	10	-99	-99	1	50	2
844.9492	1	10	346.5	346.5	1	50	3
846.1824	1	10	249.2	249.2	1	50	4
847.3158	1	10	300	300	1	50	5
848.4156	1	10	367.9	367.9	1	50	6
849.5322	1	10	403.3	403.3	1	50	7
850.6488	1	21	-99	-99	1	50	0
851.7266	1	81	n/a	n/a	1	0	0
851.9266	1	81	n/a	n/a	1	0	0
852.1266	1	81	n/a	n/a	1	0	0
852.3266	1	81	n/a	n/a	1	0	0
852.5266	1	81	n/a	n/a	1	0	0
852.7266	1	81	n/a	n/a	1	0	0
852.9266	1	81	n/a	n/a	1	0	0
853.1266	1	81	n/a	n/a	1	0	0
853.3266	1	81	n/a	n/a	1	0	0
853.5266	1	81	n/a	n/a	1	0	0
854.7654	1	10	450.2	450.2	1	50	1
856.0318	1	10	303.6	303.6	1	50	2
857.3484	1	10	731	731	1	50	3
858.3984	1	10	673	673	1	50	4
859.6816	1	10	461.7	461.7	1	50	5
860.965	1	21	250.4	250.4	1	50	0
862.0982	1	10	477.1	477.1	1	50	1
863.3648	1	10	330.5	330.5	1	50	2
864.5814	1	10	313.9	313.9	1	50	3
865.6646	1	10	254.6	254.6	1	50	4
866.7646	1	10	226.7	226.7	1	50	5
867.8646	1	21	-99	-99	1	50	0
868.8978	1	10	269.4	269.4	1	50	1
870.131	1	10	332.1	332.1	1	50	2
871.3476	1	10	283.5	283.5	1	50	3
872.5642	1	21	-99	-99	1	50	0
873.8476	1	10	311.6	311.6	1	50	1
874.9308	1	10	604.2	604.2	1	50	2
875.9808	1	10	338.3	338.3	1	50	3
877.214	1	10	257	257	1	50	4
896.7374	1	82	n/a	n/a	1	0	0
896.7874	1	82	n/a	n/a	1	0	0
896.9294	1	82	n/a	n/a	1	0	0
897.1934	1	82	n/a	n/a	1	0	0
897.6134	1	82	n/a	n/a	1	0	0
897.7374	1	82	n/a	n/a	1	0	0
898.0804	1	82	n/a	n/a	1	0	0
898.1044	1	82	n/a	n/a	1	0	0
898.5024	1	82	n/a	n/a	1	0	0
898.6614	1	82	n/a	n/a	1	0	0
899.696	1	10	494.5	494.5	1	52	1
900.846	1	10	288.5	288.5	1	52	2
902.0458	1	10	256.6	256.6	1	52	3
903.2458	1	21	-99	-99	1	52	0
904.4958	1	10	238.7	238.7	1	52	1
905.5456	1	10	244.8	244.8	1	52	2
906.6122	1	10	218.1	218.1	1	52	3
907.6788	1	21	-99	-99	1	52	0
908.7288	1	10	261.5	261.5	1	52	1
909.7788	1	21	-99	-99	1	52	0
911.062	1	10	360.2	360.2	1	52	1
912.3452	1	21	436.9	436.9	1	52	0
913.4618	1	10	248.3	248.3	1	52	1
914.5784	1	21	-99	-99	1	52	0
915.695	1	10	255.1	255.1	1	52	1
916.8784	1	10	255.8	255.8	1	52	2
917.945	1	10	309.1	309.1	1	52	3
918.9782	1	10	411.8	411.8	1	52	4
920.1948	1	10	459.2	459.2	1	52	5
921.4114	1	21	-99	-99	1	52	0
922.2792	1	82	n/a	n/a	1	0	0
922.4582	1	82	n/a	n/a	1	0	0
922.5102	1	82	n/a	n/a	1	0	0
922.9372	1	82	n/a	n/a	1	0	0
923.0802	1	82	n/a	n/a	1	0	0
923.2792	1	82	n/a	n/a	1	0	0
923.3932	1	82	n/a	n/a	1	0	0
923.4622	1	82	n/a	n/a	1	0	0
923.8212	1	82	n/a	n/a	1	0	0
924.2472	1	82	n/a	n/a	1	0	0
925.2612	1	10	432.7	432.7	1	52	1
926.4444	1	10	289.5	289.5	1	52	2
927.5444	1	10	-99	-99	1	52	3
928.6444	1	21	-99	-99	1	52	0
929.9276	1	10	278.3	278.3	1	52	1
930.9942	1	10	235.6	235.6	1	52	2
932.294	1	10	295.7	295.7	1	52	3
933.4774	1	10	536.4	536.4	1	52	4
934.6272	1	10	282.4	282.4	1	52	5
935.7772	1	21	-99	-99	1	52	0
936.8272	1	10	290.6	290.6	1	52	1
937.877	1	10	616.5	616.5	1	52	2
939.0436	1	10	-99	-99	1	52	3
940.1102	1	10	351.3	351.3	1	52	4
941.4102	1	10	299.4	299.4	1	52	5
942.6102	1	10	251.4	251.4	1	52	6
943.66	1	10	257.4	257.4	1	52	7
944.71	1	21	215.4	215.4	1	52	0
945.8266	1	10	250.8	250.8	1	52	1
946.9432	1	21	-99	-99	1	52	0
947.837	1	82	n/a	n/a	1	0	0
947.871	1	82	n/a	n/a	1	0	0
947.944	1	82	n/a	n/a	1	0	0
948.273	1	82	n/a	n/a	1	0	0
948.53	1	82	n/a	n/a	1	0	0
948.837	1	82	n/a	n/a	1	0	0
948.944	1	82	n/a	n/a	1	0	0
949.1	1	82	n/a	n/a	1	0	0
949.508	1	82	n/a	n/a	1	0	0
949.531	1	82	n/a	n/a	1	0	0
950.8264	1	10	387	387	1	52	1
952.043	1	10	322.4	322.4	1	52	2
953.0762	1	10	361.1	361.1	1	52	3
954.3262	1	10	551.2	551.2	1	52	4
955.5094	1	10	327.8	327.8	1	52	5
956.6926	1	21	-99	-99	1	52	0
957.926	1	10	-99	-99	1	52	1
959.1092	1	10	-99	-99	1	52	2
960.4092	1	10	388.1	388.1	1	52	3
961.6758	1	10	257.5	257.5	1	52	4
962.9756	1	10	253.4	253.4	1	52	5
964.1256	1	10	255.5	255.5	1	52	6
965.4254	1	10	299.5	299.5	1	52	7
966.7254	1	21	-99	-99	1	52	0
967.8086	1	10	284.3	284.3	1	52	1
968.9752	1	10	301.6	301.6	1	52	2
970.1252	1	10	287.7	287.7	1	52	3
971.1752	1	10	357.7	357.7	1	52	4
972.3918	1	10	-99	-99	1	52	5
973.6084	1	21	244.5	244.5	1	52	0
974.4978	1	82	n/a	n/a	1	0	0
974.6128	1	82	n/a	n/a	1	0	0
974.6718	1	82	n/a	n/a	1	0	0
974.8148	1	82	n/a	n/a	1	0	0
975.0728	1	82	n/a	n/a	1	0	0
975.4978	1	82	n/a	n/a	1	0	0
975.6408	1	82	n/a	n/a	1	0	0
975.7008	1	82	n/a	n/a	1	0	0
975.7818	1	82	n/a	n/a	1	0	0
976.0938	1	82	n/a	n/a	1	0	0
977.6414	1	10	355.3	355.3	1	52	1
978.7746	1	10	262	262	1	52	2
979.808	1	10	300.8	300.8	1	52	3
981.0412	1	10	443.4	443.4	1	52	4
982.2578	1	10	266.8	266.8	1	52	5
983.3244	1	10	288.2	288.2	1	52	6
984.5744	1	10	270.2	270.2	1	52	7
985.8242	1	21	-99	-99	1	52	0
987.0242	1	10	332.4	332.4	1	52	1
988.0574	1	10	307	307	1	52	2
989.224	1	10	276.4	276.4	1	52	3
990.3906	1	10	-99	-99	1	52	4
991.4406	1	10	251.8	251.8	1	52	5
992.5072	1	10	225.2	225.2	1	52	6
993.8238	1	10	284.5	284.5	1	52	7
995.1404	1	21	-99	-99	1	52	0
996.2404	1	10	268	268	1	52	1
997.457	1	10	251.4	251.4	1	52	2
998.7568	1	10	215.5	215.5	1	52	3
1000.0568	1	21	211.5	211.5	1	52	0
1001.0382	1	82	n/a	n/a	1	0	0
1001.1022	1	82	n/a	n/a	1	0	0
1001.3532	1	82	n/a	n/a	1	0	0
1001.4652	1	82	n/a	n/a	1	0	0
1001.7952	1	82	n/a	n/a	1	0	0
1002.0384	1	82	n/a	n/a	1	0	0
1002.1044	1	82	n/a	n/a	1	0	0
1002.3444	1	82	n/a	n/a	1	0	0
1002.6314	1	82	n/a	n/a	1	0	0
1002.7742	1	82	n/a	n/a	1	0	0
1003.9898	1	10	294.3	294.3	1	52	1
1005.0564	1	21	-99	-99	1	52	0
1006.373	1	10	295	295	1	52	1
1007.5396	1	10	264.4	264.4	1	52	2
1008.6896	1	10	266.4	266.4	1	52	3
1009.8396	1	21	284.5	284.5	1	52	0
1010.9394	1	10	368.6	368.6	1	52	1
1012.156	1	10	335.9	335.9	1	52	2
1013.3226	1	10	273.2	273.2	1	52	3
1014.4892	1	21	-99	-99	1	52	0
1015.5558	1	10	296	296	1	52	1
1016.6224	1	21	-99	-99	1	52	0
1017.7224	1	10	305.5	305.5	1	52	1
1018.8224	1	10	389.4	389.4	1	52	2
1020.0722	1	10	419.5	419.5	1	52	3
1021.3222	1	10	337.6	337.6	1	52	4
1022.5722	1	10	319.6	319.6	1	52	5
1023.722	1	10	401.7	401.7	1	52	6
1024.9054	1	10	354.3	354.3	1	52	7
1026.0886	1	21	-99	-99	1	52	0
1132.4006	1	82	n/a	n/a	1	0	0
1132.4776	1	82	n/a	n/a	1	0	0
1132.7096	1	82	n/a	n/a	1	0	0
1133.1226	1	82	n/a	n/a	1	0	0
1133.1666	1	82	n/a	n/a	1	0	0
1133.4008	1	82	n/a	n/a	1	0	0
1133.8146	1	82	n/a	n/a	1	0	0
1133.9286	1	82	n/a	n/a	1	0	0
1134.1536	1	82	n/a	n/a	1	0	0
1134.1916	1	82	n/a	n/a	1	0	0
1135.4434	1	10	302.4	302.4	1	52	1
1136.5934	1	21	-99	-99	1	52	0
1137.86	1	10	303.7	303.7	1	52	1
1139.0932	1	10	268.6	268.6	1	52	2
1140.1764	1	10	273.3	273.3	1	52	3
1141.2598	1	21	-99	-99	1	52	0
1142.4596	1	10	262	262	1	52	1
1143.6262	1	10	263.4	263.4	1	52	2
1144.7096	1	10	252.1	252.1	1	52	3
1145.9262	1	10	363.5	363.5	1	52	4
1147.126	1	10	283.6	283.6	1	52	5
1148.326	1	21	-99	-99	1	52	0
1149.426	1	10	271.6	271.6	1	52	1
1150.5258	1	21	-99	-99	1	52	0
1151.6924	1	10	261	261	1	52	1
1152.759	1	10	330.4	330.4	1	52	2
1153.959	1	10	282.4	282.4	1	52	3
1155.159	1	21	-99	-99	1	52	0
1156.4588	1	10	246.5	246.5	1	52	1
1157.5588	1	10	282.6	282.6	1	52	2
1158.6102	1	82	n/a	n/a	1	0	0
1158.8662	1	82	n/a	n/a	1	0	0
1158.9472	1	82	n/a	n/a	1	0	0
1159.0762	1	82	n/a	n/a	1	0	0
1159.1302	1	82	n/a	n/a	1	0	0
1159.6102	1	82	n/a	n/a	1	0	0
1159.7322	1	82	n/a	n/a	1	0	0
1160.1492	1	82	n/a	n/a	1	0	0
1160.3152	1	82	n/a	n/a	1	0	0
1160.3352	1	82	n/a	n/a	1	0	0
1161.6752	1	10	310	310	1	52	1
1162.9418	1	10	291.4	291.4	1	52	2
1164.125	1	10	308.1	308.1	1	52	3
1165.3084	1	21	-99	-99	1	52	0
1166.6082	1	10	256.9	256.9	1	52	1
1167.8748	1	10	350.2	350.2	1	52	2
1168.9414	1	10	291.6	291.6	1	52	3
1170.2414	1	10	303.7	303.7	1	52	4
1171.308	1	10	309.1	309.1	1	52	5
1172.3412	1	10	283.8	283.8	1	52	6
1173.5912	1	10	297.8	297.8	1	52	7
1174.841	1	21	-99	-99	1	52	0
1176.0076	1	10	265.2	265.2	1	52	1
1177.3242	1	10	244.6	244.6	1	52	2
1178.5742	1	10	274.7	274.7	1	52	3
1179.7908	1	10	306	306	1	52	4
1180.9074	1	10	293.4	293.4	1	52	5
1182.0074	1	10	297.4	297.4	1	52	6
1183.2072	1	10	377.5	377.5	1	52	7
1184.4072	1	21	-99	-99	1	52	0
1185.443	1	82	n/a	n/a	1	0	0
1185.604	1	82	n/a	n/a	1	0	0
1185.947	1	82	n/a	n/a	1	0	0
1186.031	1	82	n/a	n/a	1	0	0
1186.267	1	82	n/a	n/a	1	0	0
1186.443	1	82	n/a	n/a	1	0	0
1186.713	1	82	n/a	n/a	1	0	0
1187.048	1	82	n/a	n/a	1	0	0
1187.204	1	82	n/a	n/a	1	0	0
1187.327	1	82	n/a	n/a	1	0	0
1188.507	1	10	343.5	343.5	1	52	1
1189.5236	1	10	349.1	349.1	1	52	2
1190.8068	1	10	313.8	313.8	1	52	3
1192.0068	1	10	313.8	313.8	1	52	4
1193.14	1	10	284.5	284.5	1	52	5
1194.3066	1	10	333.9	333.9	1	52	6
1195.3566	1	10	323.9	323.9	1	52	7
1196.4066	1	21	-99	-99	1	52	0
1197.4398	1	10	384.7	384.7	1	52	1
1198.6564	1	10	304	304	1	52	2
1199.723	1	10	245.4	245.4	1	52	3
1200.9062	1	10	294.1	294.1	1	52	4
1201.9396	1	10	348.8	348.8	1	52	5
1202.9894	1	10	418.9	418.9	1	52	6
1204.0894	1	10	327	327	1	52	7
1205.1894	1	21	-99	-99	1	52	0
1206.406	1	10	282.3	282.3	1	52	1
1207.6058	1	10	314.4	314.4	1	52	2
1208.7724	1	10	251.8	251.8	1	52	3
1209.9058	1	10	286.5	286.5	1	52	4
1210.8792	1	82	n/a	n/a	1	0	0
1211.1832	1	82	n/a	n/a	1	0	0
1211.5572	1	82	n/a	n/a	1	0	0
1211.5802	1	82	n/a	n/a	1	0	0
1211.6272	1	82	n/a	n/a	1	0	0
1211.8792	1	82	n/a	n/a	1	0	0
1212.0422	1	82	n/a	n/a	1	0	0
1212.3092	1	82	n/a	n/a	1	0	0
1212.4452	1	82	n/a	n/a	1	0	0
1212.7422	1	82	n/a	n/a	1	0	0
1213.9222	1	10	-99	-99	1	52	1
1215.022	1	10	322	322	1	52	2
1216.3386	1	10	269.4	269.4	1	52	3
1217.622	1	10	282.1	282.1	1	52	4
1218.8718	1	10	232.1	232.1	1	52	5
1219.9718	1	10	236.1	236.1	1	52	6
1221.0218	1	10	258.2	258.2	1	52	7
1222.0716	1	21	-99	-99	1	52	0
1223.2882	1	10	263.5	263.5	1	52	1
1224.4048	1	10	330.9	330.9	1	52	2
1225.7214	1	10	294.3	294.3	1	52	3
1226.838	1	10	281.7	281.7	1	52	4
1228.0714	1	10	328.5	328.5	1	52	5
1229.2712	1	10	296.5	296.5	1	52	6
1230.3546	1	10	285.3	285.3	1	52	7
1231.4378	1	21	-99	-99	1	52	0
1232.7044	1	10	271.3	271.3	1	52	1
1233.9544	1	10	285.3	285.3	1	52	2
1235.1042	1	10	335.4	335.4	1	52	3
1236.2542	1	21	-99	-99	1	52	0
1237.1468	1	82	n/a	n/a	1	0	0
1237.1668	1	82	n/a	n/a	1	0	0
1237.3298	1	82	n/a	n/a	1	0	0
1237.5638	1	82	n/a	n/a	1	0	0
1237.9718	1	82	n/a	n/a	1	0	0
1238.1468	1	82	n/a	n/a	1	0	0
1238.2618	1	82	n/a	n/a	1	0	0
1238.4228	1	82	n/a	n/a	1	0	0
1238.6878	1	82	n/a	n/a	1	0	0
1238.9188	1	82	n/a	n/a	1	0	0
1240.154	1	10	341.6	341.6	1	52	1
1241.3538	1	10	549.6	549.6	1	52	2
1242.6538	1	10	273.6	273.6	1	52	3
1243.9538	1	21	-99	-99	1	52	0
1245.1204	1	10	335.1	335.1	1	52	1
1246.287	1	21	272.4	272.4	1	52	0
1247.3536	1	10	373.8	373.8	1	52	1
1248.4202	1	21	-99	-99	1	52	0
1249.6034	1	10	331.9	331.9	1	52	1
1250.7866	1	21	-99	-99	1	52	0
1252.0866	1	10	296.7	296.7	1	52	1
1253.3532	1	10	390	390	1	52	2
1254.5698	1	10	405.4	405.4	1	52	3
1255.703	1	10	280.2	280.2	1	52	4
1256.953	1	10	262.1	262.1	1	52	5
1258.1696	1	10	341.5	341.5	1	52	6
1259.3194	1	10	263.6	263.6	1	52	7
1260.4694	1	21	-99	-99	1	52	0
1261.6694	1	10	297.6	297.6	1	52	1
1262.8192	1	10	-99	-99	1	52	2
1275.7686	1	81	n/a	n/a	1	0	0
1275.9686	1	81	n/a	n/a	1	0	0
1276.1686	1	81	n/a	n/a	1	0	0
1276.3686	1	81	n/a	n/a	1	0	0
1276.5686	1	81	n/a	n/a	1	0	0
1276.7686	1	81	n/a	n/a	1	0	0
1276.9686	1	81	n/a	n/a	1	0	0
1277.1686	1	81	n/a	n/a	1	0	0
1277.3686	1	81	n/a	n/a	1	0	0
1277.5686	1	81	n/a	n/a	1	0	0
1278.785	1	10	333.6	333.6	1	50	1
1279.9016	1	21	-99	-99	1	50	0
1281.1016	1	10	289	289	1	50	1
1282.4182	1	10	284.4	284.4	1	50	2
1283.5848	1	10	253.8	253.8	1	50	3
1284.7514	1	21	-99	-99	1	50	0
1285.8012	1	10	277.2	277.2	1	50	1
1286.8846	1	10	265.9	265.9	1	50	2
1288.0344	1	10	251.9	251.9	1	50	3
1289.0844	1	10	242	242	1	50	4
1290.3344	1	10	256	256	1	50	5
1291.5842	1	21	-99	-99	1	50	0
1292.8008	1	10	237.5	237.5	1	50	1
1293.9174	1	10	256.8	256.8	1	50	2
1295.134	1	10	256.2	256.2	1	50	3
1296.184	1	10	278.2	278.2	1	50	4
1297.284	1	10	250.3	250.3	1	50	5
1298.4838	1	10	266.4	266.4	1	50	6
1299.6672	1	10	283.1	283.1	1	50	7
1300.8504	1	21	299.7	299.7	1	50	0
1301.6208	1	81	n/a	n/a	1	0	0
1301.8208	1	81	n/a	n/a	1	0	0
1302.0208	1	81	n/a	n/a	1	0	0
1302.2208	1	81	n/a	n/a	1	0	0
1302.4208	1	81	n/a	n/a	1	0	0
1302.6208	1	81	n/a	n/a	1	0	0
1302.8208	1	81	n/a	n/a	1	0	0
1303.0208	1	81	n/a	n/a	1	0	0
1303.2208	1	81	n/a	n/a	1	0	0
1303.4208	1	81	n/a	n/a	1	0	0
1304.6668	1	10	291.3	291.3	1	50	1
1305.8668	1	10	243.2	243.2	1	50	2
1307.0166	1	10	197.3	197.3	1	50	3
1308.3166	1	10	321.3	321.3	1	50	4
1309.4666	1	10	259.4	259.4	1	50	5
1310.6332	1	10	276.8	276.8	1	50	6
1311.833	1	10	276.8	276.8	1	50	7
1313.033	1	21	-99	-99	1	50	0
1314.083	1	10	266.9	266.9	1	50	1
1315.3496	1	10	248.3	248.3	1	50	2
1316.4162	1	10	317.7	317.7	1	50	3
1317.616	1	10	285.7	285.7	1	50	4
1318.866	1	10	411.7	411.7	1	50	5
1320.116	1	21	-99	-99	1	50	0
1321.3158	1	10	249.8	249.8	1	50	1
1322.6158	1	10	213.9	213.9	1	50	2
1323.8824	1	10	243.3	243.3	1	50	3
1325.149	1	10	528.6	528.6	1	50	4
1326.4656	1	10	396	396	1	50	5
1327.5322	1	10	289.4	289.4	1	50	6
1328.5406	1	81	n/a	n/a	1	0	0
1328.7406	1	81	n/a	n/a	1	0	0
1328.9406	1	81	n/a	n/a	1	0	0
1329.1406	1	81	n/a	n/a	1	0	0
1329.3406	1	81	n/a	n/a	1	0	0
1329.5406	1	81	n/a	n/a	1	0	0
1329.7406	1	81	n/a	n/a	1	0	0
1329.9406	1	81	n/a	n/a	1	0	0
1330.1406	1	81	n/a	n/a	1	0	0
1330.3406	1	81	n/a	n/a	1	0	0
1331.5152	1	10	-99	-99	1	50	1
1332.6984	1	10	690.9	690.9	1	50	2
1333.9484	1	10	337	337	1	50	3
1335.1984	1	21	-99	-99	1	50	0
1336.2816	1	10	307.7	307.7	1	50	1
1337.5816	1	10	271.8	271.8	1	50	2
1338.6482	1	10	693.1	693.1	1	50	3
1339.7148	1	21	-99	-99	1	50	0
1340.9814	1	10	327.9	327.9	1	50	1
1342.248	1	21	-99	-99	1	50	0
1343.4312	1	10	422	422	1	50	1
1344.6144	1	21	-99	-99	1	50	0
1345.8478	1	10	277.4	277.4	1	50	1
1346.881	1	10	332.1	332.1	1	50	2
1348.131	1	10	282.1	282.1	1	50	3
1349.3476	1	10	265.5	265.5	1	50	4
1350.3974	1	10	271.6	271.6	1	50	5
1351.4474	1	21	-99	-99	1	50	0
1352.7306	1	10	322.3	322.3	1	50	1
1354.014	1	21	-99	-99	1	50	0
1354.8096	1	81	n/a	n/a	1	0	0
1355.0096	1	81	n/a	n/a	1	0	0
1355.2096	1	81	n/a	n/a	1	0	0
1355.4096	1	81	n/a	n/a	1	0	0
1355.6096	1	81	n/a	n/a	1	0	0
1355.8096	1	81	n/a	n/a	1	0	0
1356.0096	1	81	n/a	n/a	1	0	0
1356.2096	1	81	n/a	n/a	1	0	0
1356.4096	1	81	n/a	n/a	1	0	0
1356.6096	1	81	n/a	n/a	1	0	0
1357.947	1	10	337.8	337.8	1	50	1
1359.1802	1	10	704.5	704.5	1	50	2
1360.4468	1	10	317.9	317.9	1	50	3
1361.7134	1	21	-99	-99	1	50	0
1362.88	1	10	300.6	300.6	1	50	1
1364.03	1	10	286.7	286.7	1	50	2
1365.33	1	10	282.7	282.7	1	50	3
1366.4798	1	10	508.8	508.8	1	50	4
1367.5964	1	10	400.2	400.2	1	50	5
1368.713	1	21	-99	-99	1	50	0
1369.9796	1	10	288.9	288.9	1	50	1
1371.2462	1	21	366.3	366.3	1	50	0
1372.5128	1	10	411.7	411.7	1	50	1
1373.6628	1	10	269.7	269.7	1	50	2
1374.7294	1	10	259.1	259.1	1	50	3
1375.796	1	21	-99	-99	1	50	0
1377.0292	1	10	247.1	247.1	1	50	1
1378.2958	1	10	276.5	276.5	1	50	2
1379.479	1	10	293.3	293.3	1	50	3
1380.7456	1	10	322.7	322.7	1	50	4
1381.6472	1	81	n/a	n/a	1	0	0
1381.8472	1	81	n/a	n/a	1	0	0
1382.0472	1	81	n/a	n/a	1	0	0
1382.2472	1	81	n/a	n/a	1	0	0
1382.4472	1	81	n/a	n/a	1	0	0
1382.6472	1	81	n/a	n/a	1	0	0
1382.8472	1	81	n/a	n/a	1	0	0
1383.0472	1	81	n/a	n/a	1	0	0
1383.2472	1	81	n/a	n/a	1	0	0
1383.4472	1	81	n/a	n/a	1	0	0
1384.7788	1	10	-99	-99	1	50	1
1386.012	1	10	272.2	272.2	1	50	2
1387.1954	1	10	208.9	208.9	1	50	3
1388.2952	1	10	229	229	1	50	4
1389.5952	1	10	256.9	256.9	1	50	5
1390.895	1	21	-99	-99	1	50	0
1392.1784	1	10	281.7	281.7	1	50	1
1393.345	1	10	347.1	347.1	1	50	2
1394.6116	1	10	264.4	264.4	1	50	3
1395.8782	1	21	309.8	309.8	1	50	0
1397.0448	1	10	279.2	279.2	1	50	1
1398.2946	1	10	261.3	261.3	1	50	2
1399.5946	1	10	273.4	273.4	1	50	3
1400.8944	1	21	-99	-99	1	50	0
1402.0278	1	10	352.1	352.1	1	50	1
1403.3276	1	10	316.1	316.1	1	50	2
1404.4776	1	10	350.2	350.2	1	50	3
1405.5608	1	10	274.9	274.9	1	50	4
1406.6274	1	10	360.3	360.3	1	50	5
1407.694	1	21	-99	-99	1	50	0
1422.75	1	81	n/a	n/a	1	0	0
1422.95	1	81	n/a	n/a	1	0	0
1423.15	1	81	n/a	n/a	1	0	0
1423.35	1	81	n/a	n/a	1	0	0
1423.55	1	81	n/a	n/a	1	0	0
1423.75	1	81	n/a	n/a	1	0	0
1423.95	1	81	n/a	n/a	1	0	0
1424.15	1	81	n/a	n/a	1	0	0
1424.35	1	81	n/a	n/a	1	0	0
1424.55	1	81	n/a	n/a	1	0	0
1425.9096	1	10	341.7	341.7	1	51	1
1427.043	1	10	280.3	280.3	1	51	2
1428.1262	1	10	285	285	1	51	3
1429.2096	1	21	-99	-99	1	51	0
1430.3428	1	10	228.5	228.5	1	51	1
1431.526	1	10	277.2	277.2	1	51	2
1432.826	1	10	305.2	305.2	1	51	3
1433.9258	1	10	1045.2	1045.2	1	51	4
1435.0924	1	10	470.6	470.6	1	51	5
1436.259	1	21	-99	-99	1	51	0
1437.5424	1	10	260.7	260.7	1	51	1
1438.7922	1	10	306.7	306.7	1	51	2
1439.9588	1	10	292.1	292.1	1	51	3
1441.2422	1	10	336.8	336.8	1	51	4
1442.3588	1	10	340.2	340.2	1	51	5
1443.5586	1	10	468.3	468.3	1	51	6
1444.692	1	10	390.9	390.9	1	51	7
1445.8252	1	21	-99	-99	1	51	0
1446.9418	1	10	349	349	1	51	1
1448.0584	1	21	-99	-99	1	51	0
1448.779	1	81	n/a	n/a	1	0	0
1448.979	1	81	n/a	n/a	1	0	0
1449.179	1	81	n/a	n/a	1	0	0
1449.379	1	81	n/a	n/a	1	0	0
1449.579	1	81	n/a	n/a	1	0	0
1449.779	1	81	n/a	n/a	1	0	0
1449.979	1	81	n/a	n/a	1	0	0
1450.179	1	81	n/a	n/a	1	0	0
1450.379	1	81	n/a	n/a	1	0	0
1450.579	1	81	n/a	n/a	1	0	0
1451.9748	1	10	-99	-99	1	51	1
1453.2748	1	21	-99	-99	1	51	0
1454.308	1	10	294.6	294.6	1	51	1
1455.5412	1	10	261.4	261.4	1	51	2
1456.6912	1	10	295.4	295.4	1	51	3
1457.8412	1	21	-99	-99	1	51	0
1459.0578	1	10	264.8	264.8	1	51	1
1460.341	1	10	309.5	309.5	1	51	2
1461.4242	1	10	330.2	330.2	1	51	3
1462.5742	1	10	444.3	444.3	1	51	4
1463.7408	1	10	477.6	477.6	1	51	5
1464.9074	1	21	-99	-99	1	51	0
1466.074	1	10	400.4	400.4	1	51	1
1467.124	1	10	246.4	246.4	1	51	2
1468.2238	1	10	298.5	298.5	1	51	3
1469.2572	1	10	401.2	401.2	1	51	4
1470.5904	1	10	283.9	283.9	1	51	5
1471.9236	1	21	-99	-99	1	51	0
1472.957	1	10	253.3	253.3	1	51	1
1474.0736	1	10	304.7	304.7	1	51	2
1475.178	1	81	n/a	n/a	1	0	0
1475.378	1	81	n/a	n/a	1	0	0
1475.578	1	81	n/a	n/a	1	0	0
1475.778	1	81	n/a	n/a	1	0	0
1475.978	1	81	n/a	n/a	1	0	0
1476.178	1	81	n/a	n/a	1	0	0
1476.378	1	81	n/a	n/a	1	0	0
1476.578	1	81	n/a	n/a	1	0	0
1476.778	1	81	n/a	n/a	1	0	0
1476.978	1	81	n/a	n/a	1	0	0
1478.39	1	10	-99	-99	1	51	1
1479.6398	1	10	-99	-99	1	51	2
1480.8232	1	10	259	259	1	51	3
1482.0898	1	10	256.3	256.3	1	51	4
1483.3564	1	10	285.6	285.6	1	51	5
1484.623	1	21	-99	-99	1	51	0
1485.8896	1	10	232.4	232.4	1	51	1
1486.9894	1	10	268.5	268.5	1	51	2
1488.2394	1	10	282.6	282.6	1	51	3
1489.4892	1	21	-99	-99	1	51	0
1490.7226	1	10	295.3	295.3	1	51	1
1491.9892	1	10	404.7	404.7	1	51	2
1493.289	1	10	432.7	432.7	1	51	3
1494.589	1	21	-99	-99	1	51	0
1495.8722	1	10	329.5	329.5	1	51	1
1497.1556	1	21	278.2	278.2	1	51	0
1498.4554	1	10	242.2	242.2	1	51	1
1499.7554	1	21	-99	-99	1	51	0
1501.0052	1	10	540.4	540.4	1	51	1
1502.2718	1	21	-99	-99	1	51	0
1503.0826	1	81	n/a	n/a	1	0	0
1503.2826	1	81	n/a	n/a	1	0	0
1503.4826	1	81	n/a	n/a	1	0	0
1503.6826	1	81	n/a	n/a	1	0	0
1503.8826	1	81	n/a	n/a	1	0	0
1504.0826	1	81	n/a	n/a	1	0	0
1504.2826	1	81	n/a	n/a	1	0	0
1504.4826	1	81	n/a	n/a	1	0	0
1504.6826	1	81	n/a	n/a	1	0	0
1504.8826	1	81	n/a	n/a	1	0	0
1506.2716	1	10	-99	-99	1	51	1
1507.555	1	10	-99	-99	1	51	2
1508.6548	1	10	-99	-99	1	51	3
1509.7382	1	10	-99	-99	1	51	4
1510.788	1	10	-99	-99	1	51	5
1511.838	1	21	-99	-99	1	51	0
1513.138	1	10	-99	-99	1	51	1
1514.4378	1	21	-99	-99	1	51	0
1515.671	1	10	290.2	290.2	1	51	1
1516.921	1	10	336.2	336.2	1	51	2
1518.021	1	10	276.3	276.3	1	51	3
1519.2876	1	10	305.7	305.7	1	51	4
1520.4874	1	10	305.7	305.7	1	51	5
1521.6874	1	21	-99	-99	1	51	0
1522.8206	1	10	260.4	260.4	1	51	1
1523.954	1	10	295.2	295.2	1	51	2
1525.0372	1	10	267.9	267.9	1	51	3
1526.1038	1	10	273.3	273.3	1	51	4
1527.337	1	10	303.9	303.9	1	51	5
1528.387	1	10	390	390	1	51	6
1529.4164	1	81	n/a	n/a	1	0	0
1529.6164	1	81	n/a	n/a	1	0	0
1529.8164	1	81	n/a	n/a	1	0	0
1530.0164	1	81	n/a	n/a	1	0	0
1530.2164	1	81	n/a	n/a	1	0	0
1530.4164	1	81	n/a	n/a	1	0	0
1530.6164	1	81	n/a	n/a	1	0	0
1530.8164	1	81	n/a	n/a	1	0	0
1531.0164	1	81	n/a	n/a	1	0	0
1531.2164	1	81	n/a	n/a	1	0	0
1532.57	1	10	478.8	478.8	1	51	1
1533.7034	1	10	353.5	353.5	1	51	2
1534.92	1	10	272.9	272.9	1	51	3
1536.1366	1	21	-99	-99	1	51	0
1537.3864	1	10	398.3	398.3	1	51	1
1538.6364	1	21	-99	-99	1	51	0
1539.7364	1	10	288.5	288.5	1	51	1
1541.0196	1	10	253.1	253.1	1	51	2
1542.2028	1	10	333.8	333.8	1	51	3
1543.3862	1	21	-99	-99	1	51	0
1544.536	1	10	256.6	256.6	1	51	1
1545.7194	1	10	241.3	241.3	1	51	2
1546.836	1	10	452.6	452.6	1	51	3
1547.8858	1	10	650.7	650.7	1	51	4
1549.1192	1	10	601.4	601.4	1	51	5
1550.3524	1	21	-99	-99	1	51	0
1551.6524	1	10	260.2	260.2	1	51	1
1552.769	1	10	311.5	311.5	1	51	2
1554.0356	1	10	260.9	260.9	1	51	3
1555.1354	1	10	296.9	296.9	1	51	4
1605.8602	1	81	n/a	n/a	1	0	0
1606.0602	1	81	n/a	n/a	1	0	0
1606.2602	1	81	n/a	n/a	1	0	0
1606.4602	1	81	n/a	n/a	1	0	0
1606.6602	1	81	n/a	n/a	1	0	0
1606.8604	1	81	n/a	n/a	1	0	0
1607.0604	1	81	n/a	n/a	1	0	0
1607.2604	1	81	n/a	n/a	1	0	0
1607.4604	1	81	n/a	n/a	1	0	0
1607.6604	1	81	n/a	n/a	1	0	0
1608.8088	1	10	382.7	382.7	1	51	1
1609.842	1	10	373.4	373.4	1	51	2
1610.992	1	10	295.5	295.5	1	51	3
1612.3086	1	10	274.8	274.8	1	51	4
1613.5252	1	10	226.2	226.2	1	51	5
1614.7418	1	21	-99	-99	1	51	0
1615.9084	1	10	259	259	1	51	1
1617.075	1	21	-99	-99	1	51	0
1618.1248	1	10	266.4	266.4	1	51	1
1619.4082	1	10	279	279	1	51	2
1620.5748	1	10	264.4	264.4	1	51	3
1621.658	1	10	269.2	269.2	1	51	4
1622.858	1	10	285.2	285.2	1	51	5
1624.0578	1	21	-99	-99	1	51	0
1625.1244	1	10	226.6	226.6	1	51	1
1626.4244	1	10	270.6	270.6	1	51	2
1627.7076	1	10	235.4	235.4	1	51	3
1628.8242	1	10	270.8	270.8	1	51	4
1630.1242	1	10	266.8	266.8	1	51	5
1631.1908	1	10	240.1	240.1	1	51	6
1631.9612	1	81	n/a	n/a	1	0	0
1632.1612	1	81	n/a	n/a	1	0	0
1632.3612	1	81	n/a	n/a	1	0	0
1632.5612	1	81	n/a	n/a	1	0	0
1632.7612	1	81	n/a	n/a	1	0	0
1632.9612	1	81	n/a	n/a	1	0	0
1633.1612	1	81	n/a	n/a	1	0	0
1633.3612	1	81	n/a	n/a	1	0	0
1633.5612	1	81	n/a	n/a	1	0	0
1633.7612	1	81	n/a	n/a	1	0	0
1635.1572	1	10	337.7	337.7	1	51	1
1636.4238	1	10	255.1	255.1	1	51	2
1637.4738	1	10	261	261	1	51	3
1638.5736	1	10	217.1	217.1	1	51	4
1639.707	1	10	315.8	315.8	1	51	5
1640.9402	1	10	250.5	250.5	1	51	6
1642.1734	1	10	313.3	313.3	1	51	7
1643.4068	1	21	-99	-99	1	51	0
1644.49	1	10	252.6	252.6	1	51	1
1645.5232	1	10	227.3	227.3	1	51	2
1646.7566	1	10	242.1	242.1	1	51	3
1647.8398	1	10	214.8	214.8	1	51	4
1649.0564	1	10	246.2	246.2	1	51	5
1650.2896	1	10	228.9	228.9	1	51	6
1651.6062	1	10	224.2	224.2	1	51	7
1652.9228	1	21	-99	-99	1	51	0
1654.0228	1	10	239.7	239.7	1	51	1
1655.1226	1	21	-99	-99	1	51	0
1656.2226	1	10	231.8	231.8	1	51	1
1657.3058	1	10	252.4	252.4	1	51	2
1658.3834	1	81	n/a	n/a	1	0	0
1658.5834	1	81	n/a	n/a	1	0	0
1658.7834	1	81	n/a	n/a	1	0	0
1658.9834	1	81	n/a	n/a	1	0	0
1659.1834	1	81	n/a	n/a	1	0	0
1659.3834	1	81	n/a	n/a	1	0	0
1659.5834	1	81	n/a	n/a	1	0	0
1659.7834	1	81	n/a	n/a	1	0	0
1659.9834	1	81	n/a	n/a	1	0	0
1660.1834	1	81	n/a	n/a	1	0	0
1661.5556	1	10	322.6	322.6	1	51	1
1662.8722	1	10	238	238	1	51	2
1664.0054	1	10	256.7	256.7	1	51	3
1665.2388	1	10	271.4	271.4	1	51	4
1666.3886	1	10	241.5	241.5	1	51	5
1667.5386	1	21	-99	-99	1	51	0
1668.6552	1	10	262.9	262.9	1	51	1
1669.7718	1	21	250.2	250.2	1	51	0
1670.8718	1	10	270.3	270.3	1	51	1
1672.1384	1	10	315.7	315.7	1	51	2
1673.205	1	10	337	337	1	51	3
1674.2716	1	21	230.4	230.4	1	51	0
1675.4214	1	10	248.5	248.5	1	51	1
1676.5048	1	10	461.1	461.1	1	51	2
1677.7214	1	10	332.5	332.5	1	51	3
1678.938	1	21	-99	-99	1	51	0
1680.0712	1	10	238.6	238.6	1	51	1
1681.3712	1	10	362.7	362.7	1	51	2
1682.4378	1	10	304	304	1	51	3
1683.5044	1	21	-99	-99	1	51	0
1684.451	1	81	n/a	n/a	1	0	0
1684.651	1	81	n/a	n/a	1	0	0
1684.851	1	81	n/a	n/a	1	0	0
1685.051	1	81	n/a	n/a	1	0	0
1685.251	1	81	n/a	n/a	1	0	0
1685.451	1	81	n/a	n/a	1	0	0
1685.651	1	81	n/a	n/a	1	0	0
1685.851	1	81	n/a	n/a	1	0	0
1686.051	1	81	n/a	n/a	1	0	0
1686.251	1	81	n/a	n/a	1	0	0
1687.5208	1	10	292.9	292.9	1	51	1
1688.704	1	21	-99	-99	1	51	0
1689.9706	1	10	323	323	1	51	1
1691.2372	1	21	-99	-99	1	51	0
1692.2706	1	10	263.1	263.1	1	51	1
1693.4872	1	10	342.5	342.5	1	51	2
1694.637	1	10	328.5	328.5	1	51	3
1695.787	1	21	-99	-99	1	51	0
1697.0202	1	10	265.2	265.2	1	51	1
1698.2534	1	21	-99	-99	1	51	0
1699.4534	1	10	280	280	1	51	1
1700.7034	1	10	310.1	310.1	1	51	2
1701.77	1	10	315.4	315.4	1	51	3
1703.0866	1	10	326.8	326.8	1	51	4
1704.1364	1	10	316.8	316.8	1	51	5
1705.1864	1	21	-99	-99	1	51	0
1706.403	1	10	274.3	274.3	1	51	1
1707.7362	1	10	334.7	334.7	1	51	2
1708.9362	1	10	301	301	1	51	3
1710.1694	1	21	-99	-99	1	51	0
1711.2772	1	81	n/a	n/a	1	0	0
1711.4772	1	81	n/a	n/a	1	0	0
1711.6772	1	81	n/a	n/a	1	0	0
1711.8772	1	81	n/a	n/a	1	0	0
1712.0772	1	81	n/a	n/a	1	0	0
1712.2772	1	81	n/a	n/a	1	0	0
1712.4772	1	81	n/a	n/a	1	0	0
1712.6772	1	81	n/a	n/a	1	0	0
1712.8772	1	81	n/a	n/a	1	0	0
1713.0772	1	81	n/a	n/a	1	0	0
1714.4692	1	10	303.8	303.8	1	51	1
1715.6524	1	10	304.6	304.6	1	51	2
1716.719	1	10	309.9	309.9	1	51	3
1717.8524	1	10	248.7	248.7	1	51	4
1719.0356	1	10	265.4	265.4	1	51	5
1720.1188	1	10	270.1	270.1	1	51	6
1721.3188	1	10	238.1	238.1	1	51	7
1722.5188	1	21	238.1	238.1	1	51	0
1723.8186	1	10	282.2	282.2	1	51	1
1724.9352	1	10	253.6	253.6	1	51	2
1726.1186	1	10	286.3	286.3	1	51	3
1727.4018	1	10	267	267	1	51	4
1728.7018	1	10	247	247	1	51	5
1730.0016	1	21	259.1	259.1	1	51	0
1731.3182	1	10	302.5	302.5	1	51	1
1732.4514	1	10	257.1	257.1	1	51	2
1733.6848	1	10	287.9	287.9	1	51	3
1734.918	1	21	-99	-99	1	51	0
1736.168	1	10	268.7	268.7	1	51	1
1737.3512	1	10	317.4	317.4	1	51	2
1754.1416	1	82	n/a	n/a	1	0	0
1754.2916	1	82	n/a	n/a	1	0	0
1754.3126	1	82	n/a	n/a	1	0	0
1754.6446	1	82	n/a	n/a	1	0	0
1754.7266	1	82	n/a	n/a	1	0	0
1755.1416	1	82	n/a	n/a	1	0	0
1755.2256	1	82	n/a	n/a	1	0	0
1755.2706	1	82	n/a	n/a	1	0	0
1755.6016	1	82	n/a	n/a	1	0	0
1755.9926	1	82	n/a	n/a	1	0	0
1757.25	1	10	322.1	322.1	1	50	1
1758.5332	1	10	254.8	254.8	1	50	2
1759.6832	1	10	272.8	272.8	1	50	3
1760.9832	1	10	252.9	252.9	1	50	4
1762.2164	1	10	251.6	251.6	1	50	5
1763.4496	1	21	-99	-99	1	50	0
1764.5662	1	10	269.6	269.6	1	50	1
1765.8328	1	10	267	267	1	50	2
1767.0494	1	10	266.4	266.4	1	50	3
1768.266	1	21	-99	-99	1	50	0
1769.366	1	10	237.9	237.9	1	50	1
1770.466	1	21	-99	-99	1	50	0
1771.6658	1	10	241.9	241.9	1	50	1
1772.8324	1	10	243.3	243.3	1	50	2
1773.9824	1	10	245.4	245.4	1	50	3
1775.1324	1	21	-99	-99	1	50	0
1776.4322	1	10	227.4	227.4	1	50	1
1777.4822	1	10	265.5	265.5	1	50	2
1778.7322	1	10	247.5	247.5	1	50	3
1779.9654	1	10	262.2	262.2	1	50	4
1780.7678	1	82	n/a	n/a	1	0	0
1781.0048	1	82	n/a	n/a	1	0	0
1781.1048	1	82	n/a	n/a	1	0	0
1781.1308	1	82	n/a	n/a	1	0	0
1781.4648	1	82	n/a	n/a	1	0	0
1781.7678	1	82	n/a	n/a	1	0	0
1782.1628	1	82	n/a	n/a	1	0	0
1782.2318	1	82	n/a	n/a	1	0	0
1782.2558	1	82	n/a	n/a	1	0	0
1782.5868	1	82	n/a	n/a	1	0	0
1783.7652	1	10	254.3	254.3	1	50	1
1784.8318	1	10	291.7	291.7	1	50	2
1785.9984	1	10	213.1	213.1	1	50	3
1787.165	1	21	246.5	246.5	1	50	0
1788.2982	1	10	281.2	281.2	1	50	1
1789.4482	1	10	235.3	235.3	1	50	2
1790.498	1	10	353.2	353.2	1	50	3
1791.6146	1	10	324.6	324.6	1	50	4
1792.8312	1	10	308	308	1	50	5
1794.0478	1	21	243.4	243.4	1	50	0
1795.1144	1	10	248.7	248.7	1	50	1
1796.381	1	10	262.1	262.1	1	50	2
1797.581	1	10	230.2	230.2	1	50	3
1798.9142	1	10	322.7	322.7	1	50	4
1799.9808	1	10	310.3	310.3	1	50	5
1801.0808	1	21	-99	-99	1	50	0
1917.3574	1	10	435.2	435.2	1	50	1
1918.5406	1	10	291.9	291.9	1	50	2
1919.6406	1	10	264	264	1	50	3
1920.6904	1	10	397.9	397.9	1	50	4
1921.77	1	82	n/a	n/a	1	0	0
1921.905	1	82	n/a	n/a	1	0	0
1922.152	1	82	n/a	n/a	1	0	0
1922.319	1	82	n/a	n/a	1	0	0
1922.616	1	82	n/a	n/a	1	0	0
1922.77	1	82	n/a	n/a	1	0	0
1922.907	1	82	n/a	n/a	1	0	0
1923.222	1	82	n/a	n/a	1	0	0
1923.263	1	82	n/a	n/a	1	0	0
1923.549	1	82	n/a	n/a	1	0	0
1924.7068	1	10	317.5	317.5	1	50	1
1925.9402	1	10	332.2	332.2	1	50	2
1927.14	1	10	284.3	284.3	1	50	3
1928.2566	1	10	287.6	287.6	1	50	4
1929.34	1	10	340.3	340.3	1	50	5
1930.5066	1	10	341.7	341.7	1	50	6
1931.6732	1	10	327.1	327.1	1	50	7
1932.8398	1	21	-99	-99	1	50	0
1934.1396	1	10	260.4	260.4	1	50	1
1935.373	1	10	243.2	243.2	1	50	2
1936.4562	1	10	295.9	295.9	1	50	3
1937.6894	1	10	246.6	246.6	1	50	4
1938.9394	1	10	340.7	340.7	1	50	5
1939.9726	1	10	315.3	315.3	1	50	6
1941.006	1	10	306	306	1	50	7
1942.0392	1	21	-99	-99	1	50	0
1943.3224	1	10	261.5	261.5	1	50	1
1944.6558	1	10	272.2	272.2	1	50	2
1945.7556	1	10	276.2	276.2	1	50	3
1946.8556	1	10	296.2	296.2	1	50	4
1947.6122	1	82	n/a	n/a	1	0	0
1947.7322	1	82	n/a	n/a	1	0	0
1948.1022	1	82	n/a	n/a	1	0	0
1948.149	1	82	n/a	n/a	1	0	0
1948.456	1	82	n/a	n/a	1	0	0
1948.6122	1	82	n/a	n/a	1	0	0
1948.8452	1	82	n/a	n/a	1	0	0
1948.9312	1	82	n/a	n/a	1	0	0
1949.2932	1	82	n/a	n/a	1	0	0
1949.5552	1	82	n/a	n/a	1	0	0
1950.822	1	10	281.8	281.8	1	50	1
1951.9386	1	10	269.2	269.2	1	50	2
1953.0718	1	10	255.8	255.8	1	50	3
1954.1218	1	10	293.9	293.9	1	50	4
1955.3884	1	10	291.3	291.3	1	50	5
1956.6384	1	10	353.3	353.3	1	50	6
1957.9382	1	10	285.3	285.3	1	50	7
1959.2382	1	21	-99	-99	1	50	0
1960.3382	1	10	333.4	333.4	1	50	1
1961.5548	1	10	284.8	284.8	1	50	2
1962.738	1	10	285.5	285.5	1	50	3
1963.9212	1	21	-99	-99	1	50	0
1965.1212	1	10	494.2	494.2	1	50	1
1966.3212	1	21	-99	-99	1	50	0
1967.5376	1	10	381.7	381.7	1	50	1
1968.821	1	10	266.4	266.4	1	50	2
1970.0208	1	10	218.5	218.5	1	50	3
1971.1208	1	10	382.4	382.4	1	50	4
1972.404	1	10	267.2	267.2	1	50	5
1973.6874	1	21	-99	-99	1	50	0
1974.695	1	82	n/a	n/a	1	0	0
1974.856	1	82	n/a	n/a	1	0	0
1974.902	1	82	n/a	n/a	1	0	0
1975.088	1	82	n/a	n/a	1	0	0
1975.45	1	82	n/a	n/a	1	0	0
1975.695	1	82	n/a	n/a	1	0	0
1976.044	1	82	n/a	n/a	1	0	0
1976.295	1	82	n/a	n/a	1	0	0
1976.375	1	82	n/a	n/a	1	0	0
1976.502	1	82	n/a	n/a	1	0	0
1977.8538	1	10	-99	-99	1	50	1
1979.137	1	10	318.1	318.1	1	50	2
1980.3036	1	10	239.5	239.5	1	50	3
1981.3368	1	10	358.2	358.2	1	50	4
1982.4702	1	10	456.9	456.9	1	50	5
1983.67	1	10	376.9	376.9	1	50	6
1984.8534	1	10	281.6	281.6	1	50	7
1986.0366	1	21	298.4	298.4	1	50	0
1987.3366	1	10	246.4	246.4	1	50	1
1988.4032	1	10	315.8	315.8	1	50	2
1989.553	1	10	237.9	237.9	1	50	3
1990.703	1	21	-99	-99	1	50	0
1992.0196	1	10	283.2	283.2	1	50	1
1993.1528	1	10	302	302	1	50	2
1994.1862	1	10	276.7	276.7	1	50	3
1995.3528	1	10	326.1	326.1	1	50	4
1996.636	1	10	306.7	306.7	1	50	5
1997.9192	1	21	-99	-99	1	50	0
1999.0192	1	10	275.5	275.5	1	50	1
2000.2858	1	10	272.9	272.9	1	50	2
2018.6448	1	82	n/a	n/a	1	0	0
2019.0368	1	82	n/a	n/a	1	0	0
2019.2818	1	82	n/a	n/a	1	0	0
2019.3448	1	82	n/a	n/a	1	0	0
2019.4518	1	82	n/a	n/a	1	0	0
2019.6448	1	82	n/a	n/a	1	0	0
2019.9718	1	82	n/a	n/a	1	0	0
2020.0018	1	82	n/a	n/a	1	0	0
2020.0578	1	82	n/a	n/a	1	0	0
2020.4408	1	82	n/a	n/a	1	0	0
2021.7012	1	10	-99	-99	1	52	1
2022.9012	1	10	-99	-99	1	52	2
2023.9344	1	10	511.7	511.7	1	52	3
2025.101	1	10	257.1	257.1	1	52	4
2026.3342	1	10	287.8	287.8	1	52	5
2027.4842	1	10	241.9	241.9	1	52	6
2028.7342	1	10	239.9	239.9	1	52	7
2029.984	1	21	-99	-99	1	52	0
2031.1172	1	10	272.7	272.7	1	52	1
2032.3172	1	10	272.7	272.7	1	52	2
2033.3672	1	10	374.8	374.8	1	52	3
2034.4172	1	21	-99	-99	1	52	0
2035.6838	1	10	266.1	266.1	1	52	1
2036.8836	1	10	250.2	250.2	1	52	2
2038.0668	1	10	314.9	314.9	1	52	3
2039.2668	1	10	75	75	1	52	4
2040.4168	1	10	285	285	1	52	5
2041.5666	1	21	-99	-99	1	52	0
2042.6832	1	10	-99	-99	1	52	1
2043.8666	1	10	323.1	323.1	1	52	2
2044.631	1	82	n/a	n/a	1	0	0
2045.046	1	82	n/a	n/a	1	0	0
2045.405	1	82	n/a	n/a	1	0	0
2045.435	1	82	n/a	n/a	1	0	0
2045.567	1	82	n/a	n/a	1	0	0
2045.631	1	82	n/a	n/a	1	0	0
2046.051	1	82	n/a	n/a	1	0	0
2046.322	1	82	n/a	n/a	1	0	0
2046.384	1	82	n/a	n/a	1	0	0
2046.48	1	82	n/a	n/a	1	0	0
2047.6664	1	10	363.2	363.2	1	52	1
2048.733	1	10	240.6	240.6	1	52	2
2050.0162	1	10	269.3	269.3	1	52	3
2051.2994	1	21	-99	-99	1	52	0
2052.5828	1	10	310.8	310.8	1	52	1
2053.6326	1	10	396.8	396.8	1	52	2
2054.9326	1	10	488.8	488.8	1	52	3
2056.2158	1	10	453.6	453.6	1	52	4
2057.2492	1	10	428.3	428.3	1	52	5
2058.2824	1	21	-99	-99	1	52	0
2059.4324	1	10	-99	-99	1	52	1
2060.5156	1	10	281.7	281.7	1	52	2
2061.8322	1	10	261.1	261.1	1	52	3
2062.8988	1	10	282.5	282.5	1	52	4
2063.9654	1	10	399.9	399.9	1	52	5
2065.082	1	10	291.2	291.2	1	52	6
2066.2486	1	10	292.6	292.6	1	52	7
2067.4152	1	21	309.9	309.9	1	52	0
2068.665	1	10	356	356	1	52	1
2069.715	1	10	250.1	250.1	1	52	2
2070.7566	1	82	n/a	n/a	1	0	0
2070.8496	1	82	n/a	n/a	1	0	0
2071.0816	1	82	n/a	n/a	1	0	0
2071.2256	1	82	n/a	n/a	1	0	0
2071.2496	1	82	n/a	n/a	1	0	0
2071.7566	1	82	n/a	n/a	1	0	0
2071.9106	1	82	n/a	n/a	1	0	0
2072.2296	1	82	n/a	n/a	1	0	0
2072.2836	1	82	n/a	n/a	1	0	0
2072.3756	1	82	n/a	n/a	1	0	0
2073.6814	1	10	315.5	315.5	1	52	1
2074.748	1	10	272.9	272.9	1	52	2
2075.7814	1	10	263.6	263.6	1	52	3
2076.8146	1	21	254.3	254.3	1	52	0
2078.1146	1	10	234.4	234.4	1	52	1
2079.3478	1	10	265.1	265.1	1	52	2
2080.6478	1	10	357.1	357.1	1	52	3
2081.9476	1	21	-99	-99	1	52	0
2083.2476	1	10	253.2	253.2	1	52	1
2084.4808	1	10	363.9	363.9	1	52	2
2085.5142	1	10	338.6	338.6	1	52	3
2086.7974	1	10	351.3	351.3	1	52	4
2088.0472	1	10	365.4	365.4	1	52	5
2089.3306	1	10	-99	-99	1	52	6
2090.5304	1	10	298.2	298.2	1	52	7
2091.7304	1	21	-99	-99	1	52	0
2092.8136	1	10	254.9	254.9	1	52	1
2094.1302	1	10	234.3	234.3	1	52	2
2095.2136	1	10	303	303	1	52	3
2096.2468	1	10	325.7	325.7	1	52	4
2097.1912	1	82	n/a	n/a	1	0	0
2097.3692	1	82	n/a	n/a	1	0	0
2097.4912	1	82	n/a	n/a	1	0	0
2097.8412	1	82	n/a	n/a	1	0	0
2098.1172	1	82	n/a	n/a	1	0	0
2098.1912	1	82	n/a	n/a	1	0	0
2098.3202	1	82	n/a	n/a	1	0	0
2098.4122	1	82	n/a	n/a	1	0	0
2098.8372	1	82	n/a	n/a	1	0	0
2098.8782	1	82	n/a	n/a	1	0	0
2100.1632	1	10	-99	-99	1	52	1
2101.4132	1	10	-99	-99	1	52	2
2102.5798	1	10	328.6	328.6	1	52	3
2103.7464	1	21	-99	-99	1	52	0
2104.8296	1	10	238.6	238.6	1	52	1
2105.913	1	21	-99	-99	1	52	0
2106.9462	1	10	330.1	330.1	1	52	1
2108.2294	1	10	-99	-99	1	52	2
2109.2794	1	10	252.9	252.9	1	52	3
2110.5294	1	10	298.8	298.8	1	52	4
2111.646	1	10	254.2	254.2	1	52	5
2112.7626	1	21	273.6	273.6	1	52	0
2113.9292	1	10	-99	-99	1	52	1
2115.229	1	10	303.1	303.1	1	52	2
2116.2624	1	10	341.7	341.7	1	52	3
2117.2956	1	21	-99	-99	1	52	0
2118.4788	1	10	285.1	285.1	1	52	1
2119.6622	1	21	317.9	317.9	1	52	0
2120.9786	1	10	425.3	425.3	1	52	1
2122.2952	1	21	-99	-99	1	52	0
2123.056	1	82	n/a	n/a	1	0	0
2123.362	1	82	n/a	n/a	1	0	0
2123.427	1	82	n/a	n/a	1	0	0
2123.518	1	82	n/a	n/a	1	0	0
2123.768	1	82	n/a	n/a	1	0	0
2124.056	1	82	n/a	n/a	1	0	0
2124.445	1	82	n/a	n/a	1	0	0
2124.55	1	82	n/a	n/a	1	0	0
2124.89	1	82	n/a	n/a	1	0	0
2124.97	1	82	n/a	n/a	1	0	0
2126.145	1	10	490.8	490.8	1	52	1
2127.245	1	10	-99	-99	1	52	2
2128.5116	1	10	300.2	300.2	1	52	3
2129.6116	1	10	304.2	304.2	1	52	4
2130.8782	1	10	269.6	269.6	1	52	5
2132.1114	1	10	332.3	332.3	1	52	6
2133.3946	1	10	-99	-99	1	52	7
2134.6778	1	21	-99	-99	1	52	0
2135.9278	1	10	-99	-99	1	52	1
2137.1944	1	10	-99	-99	1	52	2
2138.3776	1	10	257.9	257.9	1	52	3
2139.4776	1	10	277.9	277.9	1	52	4
2140.7276	1	10	259.9	259.9	1	52	5
2141.9442	1	10	243.3	243.3	1	52	6
2143.0774	1	10	278	278	1	52	7
2144.2106	1	21	-99	-99	1	52	0
2145.244	1	10	287.5	287.5	1	52	1
2146.4772	1	10	238.2	238.2	1	52	2
2147.7772	1	10	378.2	378.2	1	52	3
2148.9438	1	10	267.5	267.5	1	52	4
