onset	duration	value	response	rt	good	TMS	seq
79.4036	1	81	n/a	n/a	1	0	0
79.6036	1	81	n/a	n/a	1	0	0
79.8036	1	81	n/a	n/a	1	0	0
80.0036	1	81	n/a	n/a	1	0	0
80.2036	1	81	n/a	n/a	1	0	0
80.4036	1	81	n/a	n/a	1	0	0
80.6036	1	81	n/a	n/a	1	0	0
80.8036	1	81	n/a	n/a	1	0	0
81.0036	1	81	n/a	n/a	1	0	0
81.2036	1	81	n/a	n/a	1	0	0
82.5642	1	10	n/a	n/a	1	51	1
83.7308	1	10	n/a	n/a	1	51	2
84.8808	1	10	n/a	n/a	1	51	3
86.0308	1	21	n/a	n/a	1	51	0
87.1806	1	10	n/a	n/a	1	51	1
88.2306	1	10	n/a	n/a	1	51	2
89.2806	1	10	n/a	n/a	1	51	3
90.3304	1	21	n/a	n/a	1	51	0
91.4638	1	10	n/a	n/a	1	51	1
92.697	1	10	n/a	n/a	1	51	2
93.9802	1	10	n/a	n/a	1	51	3
95.1636	1	10	n/a	n/a	1	51	4
96.2634	1	10	n/a	n/a	1	51	5
97.3634	1	21	n/a	n/a	1	51	0
98.5634	1	10	n/a	n/a	1	51	1
99.7632	1	21	n/a	n/a	1	51	0
100.9132	1	10	n/a	n/a	1	51	1
102.2298	1	10	n/a	n/a	1	51	2
103.4296	1	10	n/a	n/a	1	51	3
104.613	1	10	n/a	n/a	1	51	4
105.3644	1	81	n/a	n/a	1	0	0
105.5644	1	81	n/a	n/a	1	0	0
105.7644	1	81	n/a	n/a	1	0	0
105.9644	1	81	n/a	n/a	1	0	0
106.1644	1	81	n/a	n/a	1	0	0
106.3644	1	81	n/a	n/a	1	0	0
106.5644	1	81	n/a	n/a	1	0	0
106.7644	1	81	n/a	n/a	1	0	0
106.9644	1	81	n/a	n/a	1	0	0
107.1644	1	81	n/a	n/a	1	0	0
108.4294	1	10	n/a	n/a	1	51	1
109.4626	1	10	n/a	n/a	1	51	2
110.7792	1	10	n/a	n/a	1	51	3
112.0958	1	21	n/a	n/a	1	51	0
113.4124	1	10	n/a	n/a	1	51	1
114.729	1	21	n/a	n/a	1	51	0
115.9456	1	10	n/a	n/a	1	51	1
117.1622	1	21	n/a	n/a	1	51	0
118.3622	1	10	n/a	n/a	1	51	1
119.512	1	10	n/a	n/a	1	51	2
120.6454	1	10	n/a	n/a	1	51	3
121.8952	1	10	n/a	n/a	1	51	4
123.1618	1	10	n/a	n/a	1	51	5
124.4284	1	21	n/a	n/a	1	51	0
125.5284	1	10	n/a	n/a	1	51	1
126.6784	1	10	n/a	n/a	1	51	2
127.8616	1	10	n/a	n/a	1	51	3
129.0448	1	21	n/a	n/a	1	51	0
130.1448	1	10	n/a	n/a	1	51	1
131.3448	1	10	n/a	n/a	1	51	2
132.2712	1	81	n/a	n/a	1	0	0
132.4712	1	81	n/a	n/a	1	0	0
132.6712	1	81	n/a	n/a	1	0	0
132.8712	1	81	n/a	n/a	1	0	0
133.0712	1	81	n/a	n/a	1	0	0
133.2712	1	81	n/a	n/a	1	0	0
133.4712	1	81	n/a	n/a	1	0	0
133.6712	1	81	n/a	n/a	1	0	0
133.8712	1	81	n/a	n/a	1	0	0
134.0712	1	81	n/a	n/a	1	0	0
135.3112	1	10	n/a	n/a	1	51	1
136.4444	1	10	n/a	n/a	1	51	2
137.5276	1	10	n/a	n/a	1	51	3
138.8442	1	10	n/a	n/a	1	51	4
139.9108	1	10	n/a	n/a	1	51	5
140.9774	1	21	n/a	n/a	1	51	0
142.294	1	10	n/a	n/a	1	51	1
143.344	1	10	n/a	n/a	1	51	2
144.444	1	10	n/a	n/a	1	51	3
145.7438	1	10	n/a	n/a	1	51	4
146.9772	1	10	n/a	n/a	1	51	5
148.1438	1	10	n/a	n/a	1	51	6
149.227	1	10	n/a	n/a	1	51	7
150.3102	1	21	n/a	n/a	1	51	0
151.5602	1	10	n/a	n/a	1	51	1
152.6768	1	10	n/a	n/a	1	51	2
153.9268	1	10	n/a	n/a	1	51	3
155.1766	1	21	n/a	n/a	1	51	0
156.3432	1	10	n/a	n/a	1	51	1
157.6266	1	10	n/a	n/a	1	51	2
158.365	1	81	n/a	n/a	1	0	0
158.565	1	81	n/a	n/a	1	0	0
158.765	1	81	n/a	n/a	1	0	0
158.965	1	81	n/a	n/a	1	0	0
159.165	1	81	n/a	n/a	1	0	0
159.365	1	81	n/a	n/a	1	0	0
159.565	1	81	n/a	n/a	1	0	0
159.765	1	81	n/a	n/a	1	0	0
159.965	1	81	n/a	n/a	1	0	0
160.165	1	81	n/a	n/a	1	0	0
161.3262	1	10	n/a	n/a	1	51	1
162.4596	1	10	n/a	n/a	1	51	2
163.5762	1	10	n/a	n/a	1	51	3
164.676	1	10	n/a	n/a	1	51	4
165.726	1	10	n/a	n/a	1	51	5
166.776	1	21	n/a	n/a	1	51	0
167.8258	1	10	n/a	n/a	1	51	1
168.9592	1	10	n/a	n/a	1	51	2
170.1924	1	10	n/a	n/a	1	51	3
171.2924	1	10	n/a	n/a	1	51	4
172.4756	1	10	n/a	n/a	1	51	5
173.6588	1	21	n/a	n/a	1	51	0
174.8588	1	10	n/a	n/a	1	51	1
176.042	1	10	n/a	n/a	1	51	2
177.2754	1	10	n/a	n/a	1	51	3
178.3086	1	10	n/a	n/a	1	51	4
179.5252	1	10	n/a	n/a	1	51	5
180.6252	1	10	n/a	n/a	1	51	6
181.825	1	10	n/a	n/a	1	51	7
183.025	1	21	n/a	n/a	1	51	0
183.9336	1	81	n/a	n/a	1	0	0
184.1336	1	81	n/a	n/a	1	0	0
184.3336	1	81	n/a	n/a	1	0	0
184.5336	1	81	n/a	n/a	1	0	0
184.7336	1	81	n/a	n/a	1	0	0
184.9336	1	81	n/a	n/a	1	0	0
185.1336	1	81	n/a	n/a	1	0	0
185.3336	1	81	n/a	n/a	1	0	0
185.5336	1	81	n/a	n/a	1	0	0
185.7336	1	81	n/a	n/a	1	0	0
187.0414	1	10	n/a	n/a	1	51	1
188.108	1	10	n/a	n/a	1	51	2
189.3912	1	10	n/a	n/a	1	51	3
190.6912	1	10	n/a	n/a	1	51	4
191.7244	1	10	n/a	n/a	1	51	5
192.7578	1	21	n/a	n/a	1	51	0
193.791	1	10	n/a	n/a	1	51	1
194.9744	1	10	n/a	n/a	1	51	2
196.041	1	10	n/a	n/a	1	51	3
197.1076	1	21	n/a	n/a	1	51	0
198.3408	1	10	n/a	n/a	1	51	1
199.4408	1	10	n/a	n/a	1	51	2
200.724	1	10	n/a	n/a	1	51	3
201.8906	1	10	n/a	n/a	1	51	4
203.1572	1	10	n/a	n/a	1	51	5
204.407	1	10	n/a	n/a	1	51	6
205.507	1	10	n/a	n/a	1	51	7
206.607	1	21	n/a	n/a	1	51	0
207.6568	1	10	n/a	n/a	1	51	1
208.7234	1	10	n/a	n/a	1	51	2
221.7732	1	81	n/a	n/a	1	0	0
221.9732	1	81	n/a	n/a	1	0	0
222.173	1	81	n/a	n/a	1	0	0
222.373	1	81	n/a	n/a	1	0	0
222.573	1	81	n/a	n/a	1	0	0
222.7732	1	81	n/a	n/a	1	0	0
222.9732	1	81	n/a	n/a	1	0	0
223.1732	1	81	n/a	n/a	1	0	0
223.3732	1	81	n/a	n/a	1	0	0
223.5732	1	81	n/a	n/a	1	0	0
224.7058	1	10	n/a	n/a	1	50	1
225.8224	1	10	n/a	n/a	1	50	2
227.139	1	10	n/a	n/a	1	50	3
228.4556	1	21	n/a	n/a	1	50	0
229.5722	1	10	n/a	n/a	1	50	1
230.6888	1	21	n/a	n/a	1	50	0
231.7888	1	10	n/a	n/a	1	50	1
232.9888	1	10	n/a	n/a	1	50	2
234.0554	1	10	n/a	n/a	1	50	3
235.2552	1	10	n/a	n/a	1	50	4
236.4552	1	10	n/a	n/a	1	50	5
237.7218	1	10	n/a	n/a	1	50	6
238.8384	1	10	n/a	n/a	1	50	7
239.955	1	21	n/a	n/a	1	50	0
241.105	1	10	n/a	n/a	1	50	1
242.2382	1	10	n/a	n/a	1	50	2
243.3714	1	10	n/a	n/a	1	50	3
244.4548	1	10	n/a	n/a	1	50	4
245.738	1	10	n/a	n/a	1	50	5
246.8712	1	10	n/a	n/a	1	50	6
247.5976	1	81	n/a	n/a	1	0	0
247.7976	1	81	n/a	n/a	1	0	0
247.9976	1	81	n/a	n/a	1	0	0
248.1976	1	81	n/a	n/a	1	0	0
248.3976	1	81	n/a	n/a	1	0	0
248.5976	1	81	n/a	n/a	1	0	0
248.7976	1	81	n/a	n/a	1	0	0
248.9976	1	81	n/a	n/a	1	0	0
249.1976	1	81	n/a	n/a	1	0	0
249.3976	1	81	n/a	n/a	1	0	0
250.6044	1	10	n/a	n/a	1	50	1
251.671	1	10	n/a	n/a	1	50	2
252.9042	1	10	n/a	n/a	1	50	3
254.0542	1	10	n/a	n/a	1	50	4
255.2374	1	10	n/a	n/a	1	50	5
256.2874	1	10	n/a	n/a	1	50	6
257.3872	1	10	n/a	n/a	1	50	7
258.4872	1	21	n/a	n/a	1	50	0
259.7872	1	10	n/a	n/a	1	50	1
260.9538	1	10	n/a	n/a	1	50	2
262.0704	1	10	n/a	n/a	1	50	3
263.187	1	21	n/a	n/a	1	50	0
264.4536	1	10	n/a	n/a	1	50	1
265.5202	1	10	n/a	n/a	1	50	2
266.62	1	10	n/a	n/a	1	50	3
267.7366	1	10	n/a	n/a	1	50	4
268.9032	1	10	n/a	n/a	1	50	5
270.0698	1	21	n/a	n/a	1	50	0
271.1532	1	10	n/a	n/a	1	50	1
272.1864	1	10	n/a	n/a	1	50	2
273.0018	1	81	n/a	n/a	1	0	0
273.2018	1	81	n/a	n/a	1	0	0
273.4018	1	81	n/a	n/a	1	0	0
273.6018	1	81	n/a	n/a	1	0	0
273.8018	1	81	n/a	n/a	1	0	0
274.002	1	81	n/a	n/a	1	0	0
274.202	1	81	n/a	n/a	1	0	0
274.402	1	81	n/a	n/a	1	0	0
274.602	1	81	n/a	n/a	1	0	0
274.802	1	81	n/a	n/a	1	0	0
276.0528	1	10	n/a	n/a	1	50	1
277.2028	1	21	n/a	n/a	1	50	0
278.4694	1	10	n/a	n/a	1	50	1
279.7194	1	10	n/a	n/a	1	50	2
280.9526	1	10	n/a	n/a	1	50	3
281.9858	1	10	n/a	n/a	1	50	4
283.2024	1	10	n/a	n/a	1	50	5
284.419	1	21	n/a	n/a	1	50	0
285.469	1	10	n/a	n/a	1	50	1
286.6022	1	10	n/a	n/a	1	50	2
287.7688	1	10	n/a	n/a	1	50	3
288.8688	1	10	n/a	n/a	1	50	4
289.9854	1	10	n/a	n/a	1	50	5
291.252	1	10	n/a	n/a	1	50	6
292.5352	1	10	n/a	n/a	1	50	7
293.8184	1	21	n/a	n/a	1	50	0
294.985	1	10	n/a	n/a	1	50	1
296.1684	1	10	n/a	n/a	1	50	2
297.3182	1	10	n/a	n/a	1	50	3
298.6182	1	10	n/a	n/a	1	50	4
299.3626	1	81	n/a	n/a	1	0	0
299.5626	1	81	n/a	n/a	1	0	0
299.7626	1	81	n/a	n/a	1	0	0
299.9626	1	81	n/a	n/a	1	0	0
300.1626	1	81	n/a	n/a	1	0	0
300.3626	1	81	n/a	n/a	1	0	0
300.5626	1	81	n/a	n/a	1	0	0
300.7626	1	81	n/a	n/a	1	0	0
300.9626	1	81	n/a	n/a	1	0	0
301.1626	1	81	n/a	n/a	1	0	0
302.2846	1	10	n/a	n/a	1	50	1
303.318	1	10	n/a	n/a	1	50	2
304.4846	1	10	n/a	n/a	1	50	3
305.6844	1	10	n/a	n/a	1	50	4
306.9344	1	10	n/a	n/a	1	50	5
308.0176	1	10	n/a	n/a	1	50	6
309.051	1	10	n/a	n/a	1	50	7
310.0842	1	21	n/a	n/a	1	50	0
311.1508	1	10	n/a	n/a	1	50	1
312.284	1	10	n/a	n/a	1	50	2
313.3506	1	10	n/a	n/a	1	50	3
314.584	1	10	n/a	n/a	1	50	4
315.6838	1	10	n/a	n/a	1	50	5
316.7838	1	21	n/a	n/a	1	50	0
317.867	1	10	n/a	n/a	1	50	1
319.1836	1	10	n/a	n/a	1	50	2
320.3502	1	10	n/a	n/a	1	50	3
321.3836	1	10	n/a	n/a	1	50	4
322.5334	1	10	n/a	n/a	1	50	5
323.7168	1	10	n/a	n/a	1	50	6
324.7102	1	81	n/a	n/a	1	0	0
324.9102	1	81	n/a	n/a	1	0	0
325.1102	1	81	n/a	n/a	1	0	0
325.3102	1	81	n/a	n/a	1	0	0
325.5102	1	81	n/a	n/a	1	0	0
325.7102	1	81	n/a	n/a	1	0	0
325.9102	1	81	n/a	n/a	1	0	0
326.1102	1	81	n/a	n/a	1	0	0
326.3102	1	81	n/a	n/a	1	0	0
326.5102	1	81	n/a	n/a	1	0	0
327.8164	1	10	n/a	n/a	1	50	1
329.133	1	10	n/a	n/a	1	50	2
330.2164	1	10	n/a	n/a	1	50	3
331.4662	1	10	n/a	n/a	1	50	4
332.7162	1	10	n/a	n/a	1	50	5
333.9662	1	21	n/a	n/a	1	50	0
335.066	1	10	n/a	n/a	1	50	1
336.1826	1	10	n/a	n/a	1	50	2
337.2492	1	10	n/a	n/a	1	50	3
338.4158	1	10	n/a	n/a	1	50	4
339.6658	1	10	n/a	n/a	1	50	5
340.9824	1	10	n/a	n/a	1	50	6
342.1656	1	10	n/a	n/a	1	50	7
343.3488	1	21	n/a	n/a	1	50	0
344.4154	1	10	n/a	n/a	1	50	1
345.682	1	10	n/a	n/a	1	50	2
346.9154	1	10	n/a	n/a	1	50	3
348.0652	1	10	n/a	n/a	1	50	4
349.2986	1	10	n/a	n/a	1	50	5
350.5318	1	21	n/a	n/a	1	50	0
368.3928	1	82	n/a	n/a	1	0	0
368.6398	1	82	n/a	n/a	1	0	0
369.0038	1	82	n/a	n/a	1	0	0
369.0238	1	82	n/a	n/a	1	0	0
369.0778	1	82	n/a	n/a	1	0	0
369.3928	1	82	n/a	n/a	1	0	0
369.5468	1	82	n/a	n/a	1	0	0
369.8268	1	82	n/a	n/a	1	0	0
369.8978	1	82	n/a	n/a	1	0	0
370.2638	1	82	n/a	n/a	1	0	0
371.5306	1	10	n/a	n/a	1	52	1
372.7304	1	10	n/a	n/a	1	52	2
373.847	1	10	n/a	n/a	1	52	3
374.947	1	10	n/a	n/a	1	52	4
376.2136	1	10	n/a	n/a	1	52	5
377.4636	1	10	n/a	n/a	1	52	6
378.7802	1	10	n/a	n/a	1	52	7
380.0968	1	21	n/a	n/a	1	52	0
381.1634	1	10	n/a	n/a	1	52	1
382.38	1	10	n/a	n/a	1	52	2
383.5966	1	10	n/a	n/a	1	52	3
384.8132	1	21	n/a	n/a	1	52	0
385.9298	1	10	n/a	n/a	1	52	1
386.9796	1	10	n/a	n/a	1	52	2
388.2462	1	10	n/a	n/a	1	52	3
389.4794	1	10	n/a	n/a	1	52	4
390.7294	1	10	n/a	n/a	1	52	5
391.9794	1	21	n/a	n/a	1	52	0
393.246	1	10	n/a	n/a	1	52	1
394.5126	1	10	n/a	n/a	1	52	2
395.237	1	82	n/a	n/a	1	0	0
395.629	1	82	n/a	n/a	1	0	0
395.948	1	82	n/a	n/a	1	0	0
396.134	1	82	n/a	n/a	1	0	0
396.162	1	82	n/a	n/a	1	0	0
396.237	1	82	n/a	n/a	1	0	0
396.258	1	82	n/a	n/a	1	0	0
396.384	1	82	n/a	n/a	1	0	0
396.735	1	82	n/a	n/a	1	0	0
396.892	1	82	n/a	n/a	1	0	0
398.2124	1	10	n/a	n/a	1	52	1
399.4956	1	10	n/a	n/a	1	52	2
400.5956	1	10	n/a	n/a	1	52	3
401.6954	1	21	n/a	n/a	1	52	0
402.812	1	10	n/a	n/a	1	52	1
403.9786	1	10	n/a	n/a	1	52	2
405.0952	1	10	n/a	n/a	1	52	3
406.2118	1	10	n/a	n/a	1	52	4
407.2618	1	10	n/a	n/a	1	52	5
408.345	1	10	n/a	n/a	1	52	6
409.495	1	10	n/a	n/a	1	52	7
410.645	1	21	n/a	n/a	1	52	0
411.9116	1	10	n/a	n/a	1	52	1
413.178	1	21	n/a	n/a	1	52	0
414.478	1	10	n/a	n/a	1	52	1
415.7946	1	10	n/a	n/a	1	52	2
416.9778	1	10	n/a	n/a	1	52	3
418.1612	1	21	n/a	n/a	1	52	0
419.4444	1	10	n/a	n/a	1	52	1
420.761	1	10	n/a	n/a	1	52	2
421.6134	1	82	n/a	n/a	1	0	0
422.0044	1	82	n/a	n/a	1	0	0
422.1254	1	82	n/a	n/a	1	0	0
422.4094	1	82	n/a	n/a	1	0	0
422.4664	1	82	n/a	n/a	1	0	0
422.6134	1	82	n/a	n/a	1	0	0
422.7444	1	82	n/a	n/a	1	0	0
423.0794	1	82	n/a	n/a	1	0	0
423.3924	1	82	n/a	n/a	1	0	0
423.5024	1	82	n/a	n/a	1	0	0
424.5608	1	10	n/a	n/a	1	52	1
425.7606	1	10	n/a	n/a	1	52	2
426.9106	1	10	n/a	n/a	1	52	3
427.9772	1	10	n/a	n/a	1	52	4
429.1272	1	10	n/a	n/a	1	52	5
430.277	1	21	n/a	n/a	1	52	0
431.5936	1	10	n/a	n/a	1	52	1
432.677	1	10	n/a	n/a	1	52	2
433.7936	1	10	n/a	n/a	1	52	3
434.9102	1	21	n/a	n/a	1	52	0
435.96	1	10	n/a	n/a	1	52	1
437.1434	1	10	n/a	n/a	1	52	2
438.21	1	10	n/a	n/a	1	52	3
439.4098	1	10	n/a	n/a	1	52	4
440.4432	1	10	n/a	n/a	1	52	5
441.4764	1	10	n/a	n/a	1	52	6
442.7264	1	10	n/a	n/a	1	52	7
443.9762	1	21	n/a	n/a	1	52	0
445.0262	1	10	n/a	n/a	1	52	1
446.0762	1	21	n/a	n/a	1	52	0
446.8548	1	82	n/a	n/a	1	0	0
446.8828	1	82	n/a	n/a	1	0	0
447.0618	1	82	n/a	n/a	1	0	0
447.3028	1	82	n/a	n/a	1	0	0
447.3718	1	82	n/a	n/a	1	0	0
447.8548	1	82	n/a	n/a	1	0	0
448.1228	1	82	n/a	n/a	1	0	0
448.2188	1	82	n/a	n/a	1	0	0
448.6568	1	82	n/a	n/a	1	0	0
448.7188	1	82	n/a	n/a	1	0	0
449.976	1	10	n/a	n/a	1	52	1
451.2092	1	10	n/a	n/a	1	52	2
452.2758	1	10	n/a	n/a	1	52	3
453.4258	1	10	n/a	n/a	1	52	4
454.659	1	10	n/a	n/a	1	52	5
455.859	1	10	n/a	n/a	1	52	6
457.0922	1	10	n/a	n/a	1	52	7
458.3254	1	21	n/a	n/a	1	52	0
459.4754	1	10	n/a	n/a	1	52	1
460.5086	1	10	n/a	n/a	1	52	2
461.8086	1	10	n/a	n/a	1	52	3
462.8918	1	10	n/a	n/a	1	52	4
463.9584	1	10	n/a	n/a	1	52	5
465.175	1	10	n/a	n/a	1	52	6
466.225	1	10	n/a	n/a	1	52	7
467.275	1	21	n/a	n/a	1	52	0
468.3916	1	10	n/a	n/a	1	52	1
469.658	1	10	n/a	n/a	1	52	2
470.7414	1	10	n/a	n/a	1	52	3
472.0246	1	10	n/a	n/a	1	52	4
473.0492	1	82	n/a	n/a	1	0	0
473.2732	1	82	n/a	n/a	1	0	0
473.5222	1	82	n/a	n/a	1	0	0
473.8042	1	82	n/a	n/a	1	0	0
473.9042	1	82	n/a	n/a	1	0	0
474.0492	1	82	n/a	n/a	1	0	0
474.2862	1	82	n/a	n/a	1	0	0
474.5722	1	82	n/a	n/a	1	0	0
474.7882	1	82	n/a	n/a	1	0	0
474.9312	1	82	n/a	n/a	1	0	0
476.0744	1	10	n/a	n/a	1	52	1
477.391	1	10	n/a	n/a	1	52	2
478.4742	1	10	n/a	n/a	1	52	3
479.5908	1	10	n/a	n/a	1	52	4
480.8742	1	10	n/a	n/a	1	52	5
482.024	1	10	n/a	n/a	1	52	6
483.274	1	10	n/a	n/a	1	52	7
484.5238	1	21	n/a	n/a	1	52	0
485.6072	1	10	n/a	n/a	1	52	1
486.8404	1	10	n/a	n/a	1	52	2
488.0236	1	10	n/a	n/a	1	52	3
489.207	1	21	n/a	n/a	1	52	0
490.5402	1	10	n/a	n/a	1	52	1
491.8734	1	21	n/a	n/a	1	52	0
493.1734	1	10	n/a	n/a	1	52	1
494.3234	1	10	n/a	n/a	1	52	2
495.5232	1	10	n/a	n/a	1	52	3
496.6232	1	10	n/a	n/a	1	52	4
497.8064	1	10	n/a	n/a	1	52	5
498.9898	1	10	n/a	n/a	1	52	6
587.5992	1	81	n/a	n/a	1	0	0
587.7992	1	81	n/a	n/a	1	0	0
587.9992	1	81	n/a	n/a	1	0	0
588.1992	1	81	n/a	n/a	1	0	0
588.3992	1	81	n/a	n/a	1	0	0
588.5992	1	81	n/a	n/a	1	0	0
588.7992	1	81	n/a	n/a	1	0	0
588.9992	1	81	n/a	n/a	1	0	0
589.1992	1	81	n/a	n/a	1	0	0
589.3992	1	81	n/a	n/a	1	0	0
590.651	1	10	n/a	n/a	1	51	1
591.8008	1	10	n/a	n/a	1	51	2
592.9508	1	10	n/a	n/a	1	51	3
594.1008	1	21	n/a	n/a	1	51	0
595.334	1	10	n/a	n/a	1	51	1
596.4672	1	10	n/a	n/a	1	51	2
597.5006	1	10	n/a	n/a	1	51	3
598.6004	1	10	n/a	n/a	1	51	4
599.6338	1	10	n/a	n/a	1	51	5
600.667	1	21	n/a	n/a	1	51	0
601.7004	1	10	n/a	n/a	1	51	1
602.917	1	10	n/a	n/a	1	51	2
604.2002	1	10	n/a	n/a	1	51	3
605.4	1	10	n/a	n/a	1	51	4
606.5834	1	10	n/a	n/a	1	51	5
607.8332	1	10	n/a	n/a	1	51	6
609.0998	1	10	n/a	n/a	1	51	7
610.3664	1	21	n/a	n/a	1	51	0
611.5498	1	10	n/a	n/a	1	51	1
612.733	1	10	n/a	n/a	1	51	2
613.8294	1	81	n/a	n/a	1	0	0
614.0294	1	81	n/a	n/a	1	0	0
614.2294	1	81	n/a	n/a	1	0	0
614.4294	1	81	n/a	n/a	1	0	0
614.6294	1	81	n/a	n/a	1	0	0
614.8294	1	81	n/a	n/a	1	0	0
615.0294	1	81	n/a	n/a	1	0	0
615.2294	1	81	n/a	n/a	1	0	0
615.4294	1	81	n/a	n/a	1	0	0
615.6294	1	81	n/a	n/a	1	0	0
616.9494	1	10	n/a	n/a	1	51	1
618.2494	1	10	n/a	n/a	1	51	2
619.4326	1	10	n/a	n/a	1	51	3
620.6158	1	10	n/a	n/a	1	51	4
621.8324	1	10	n/a	n/a	1	51	5
623.049	1	21	n/a	n/a	1	51	0
624.149	1	10	n/a	n/a	1	51	1
625.249	1	21	n/a	n/a	1	51	0
626.4822	1	10	n/a	n/a	1	51	1
627.6488	1	10	n/a	n/a	1	51	2
628.8488	1	10	n/a	n/a	1	51	3
629.9486	1	10	n/a	n/a	1	51	4
631.0152	1	10	n/a	n/a	1	51	5
632.0818	1	21	n/a	n/a	1	51	0
633.1984	1	10	n/a	n/a	1	51	1
634.365	1	10	n/a	n/a	1	51	2
635.6316	1	10	n/a	n/a	1	51	3
636.9648	1	10	n/a	n/a	1	51	4
638.2814	1	10	n/a	n/a	1	51	5
639.4148	1	10	n/a	n/a	1	51	6
640.3902	1	81	n/a	n/a	1	0	0
640.5902	1	81	n/a	n/a	1	0	0
640.7902	1	81	n/a	n/a	1	0	0
640.9902	1	81	n/a	n/a	1	0	0
641.1902	1	81	n/a	n/a	1	0	0
641.3902	1	81	n/a	n/a	1	0	0
641.5902	1	81	n/a	n/a	1	0	0
641.7902	1	81	n/a	n/a	1	0	0
641.9902	1	81	n/a	n/a	1	0	0
642.1902	1	81	n/a	n/a	1	0	0
643.4646	1	10	n/a	n/a	1	51	1
644.4978	1	10	n/a	n/a	1	51	2
645.7478	1	10	n/a	n/a	1	51	3
646.8144	1	10	n/a	n/a	1	51	4
648.131	1	10	n/a	n/a	1	51	5
649.3974	1	10	n/a	n/a	1	51	6
650.5308	1	10	n/a	n/a	1	51	7
651.664	1	21	n/a	n/a	1	51	0
652.7306	1	10	n/a	n/a	1	51	1
653.8806	1	10	n/a	n/a	1	51	2
654.9306	1	10	n/a	n/a	1	51	3
656.097	1	10	n/a	n/a	1	51	4
657.2304	1	10	n/a	n/a	1	51	5
658.3136	1	10	n/a	n/a	1	51	6
659.4136	1	10	n/a	n/a	1	51	7
660.5136	1	21	n/a	n/a	1	51	0
661.83	1	10	n/a	n/a	1	51	1
662.9634	1	10	n/a	n/a	1	51	2
664.1132	1	10	n/a	n/a	1	51	3
665.3798	1	10	n/a	n/a	1	51	4
666.4072	1	81	n/a	n/a	1	0	0
666.6072	1	81	n/a	n/a	1	0	0
666.8072	1	81	n/a	n/a	1	0	0
667.0072	1	81	n/a	n/a	1	0	0
667.2072	1	81	n/a	n/a	1	0	0
667.4074	1	81	n/a	n/a	1	0	0
667.6074	1	81	n/a	n/a	1	0	0
667.8074	1	81	n/a	n/a	1	0	0
668.0074	1	81	n/a	n/a	1	0	0
668.2074	1	81	n/a	n/a	1	0	0
669.4464	1	10	n/a	n/a	1	51	1
670.5962	1	21	n/a	n/a	1	51	0
671.6462	1	10	n/a	n/a	1	51	1
672.6962	1	21	n/a	n/a	1	51	0
673.9794	1	10	n/a	n/a	1	51	1
675.2794	1	10	n/a	n/a	1	51	2
676.5292	1	10	n/a	n/a	1	51	3
677.7792	1	21	n/a	n/a	1	51	0
678.9624	1	10	n/a	n/a	1	51	1
680.1456	1	21	n/a	n/a	1	51	0
681.2622	1	10	n/a	n/a	1	51	1
682.4788	1	10	n/a	n/a	1	51	2
683.7788	1	10	n/a	n/a	1	51	3
684.8454	1	10	n/a	n/a	1	51	4
685.962	1	10	n/a	n/a	1	51	5
687.0786	1	21	n/a	n/a	1	51	0
688.1786	1	10	n/a	n/a	1	51	1
689.2118	1	10	n/a	n/a	1	51	2
690.4784	1	10	n/a	n/a	1	51	3
691.745	1	21	n/a	n/a	1	51	0
692.8416	1	81	n/a	n/a	1	0	0
693.0416	1	81	n/a	n/a	1	0	0
693.2416	1	81	n/a	n/a	1	0	0
693.4416	1	81	n/a	n/a	1	0	0
693.6416	1	81	n/a	n/a	1	0	0
693.8416	1	81	n/a	n/a	1	0	0
694.0416	1	81	n/a	n/a	1	0	0
694.2416	1	81	n/a	n/a	1	0	0
694.4416	1	81	n/a	n/a	1	0	0
694.6416	1	81	n/a	n/a	1	0	0
695.8614	1	10	n/a	n/a	1	51	1
696.9614	1	10	n/a	n/a	1	51	2
698.2612	1	10	n/a	n/a	1	51	3
699.5612	1	21	n/a	n/a	1	51	0
700.7778	1	10	n/a	n/a	1	51	1
701.8278	1	10	n/a	n/a	1	51	2
703.061	1	10	n/a	n/a	1	51	3
704.361	1	10	n/a	n/a	1	51	4
705.5442	1	10	n/a	n/a	1	51	5
706.7274	1	21	n/a	n/a	1	51	0
707.7608	1	10	n/a	n/a	1	51	1
709.0274	1	10	n/a	n/a	1	51	2
710.244	1	10	n/a	n/a	1	51	3
711.4604	1	21	n/a	n/a	1	51	0
712.677	1	10	n/a	n/a	1	51	1
713.7438	1	10	n/a	n/a	1	51	2
714.9102	1	10	n/a	n/a	1	51	3
716.0436	1	10	n/a	n/a	1	51	4
717.3268	1	10	n/a	n/a	1	51	5
718.61	1	21	n/a	n/a	1	51	0
731.7208	1	82	n/a	n/a	1	0	0
731.8368	1	82	n/a	n/a	1	0	0
732.0028	1	82	n/a	n/a	1	0	0
732.0858	1	82	n/a	n/a	1	0	0
732.3738	1	82	n/a	n/a	1	0	0
732.7208	1	82	n/a	n/a	1	0	0
732.7768	1	82	n/a	n/a	1	0	0
733.0738	1	82	n/a	n/a	1	0	0
733.1788	1	82	n/a	n/a	1	0	0
733.5388	1	82	n/a	n/a	1	0	0
734.8758	1	10	n/a	n/a	1	50	1
736.0924	1	10	n/a	n/a	1	50	2
737.3424	1	10	n/a	n/a	1	50	3
738.5922	1	10	n/a	n/a	1	50	4
739.9088	1	10	n/a	n/a	1	50	5
741.1088	1	10	n/a	n/a	1	50	6
742.3086	1	10	n/a	n/a	1	50	7
743.5086	1	21	n/a	n/a	1	50	0
744.5752	1	10	n/a	n/a	1	50	1
745.8918	1	10	n/a	n/a	1	50	2
747.0918	1	10	n/a	n/a	1	50	3
748.1584	1	10	n/a	n/a	1	50	4
749.4416	1	10	n/a	n/a	1	50	5
750.7248	1	21	n/a	n/a	1	50	0
751.8748	1	10	n/a	n/a	1	50	1
752.9748	1	10	n/a	n/a	1	50	2
754.0914	1	10	n/a	n/a	1	50	3
755.3246	1	10	n/a	n/a	1	50	4
756.4246	1	10	n/a	n/a	1	50	5
757.6412	1	10	n/a	n/a	1	50	6
758.5346	1	82	n/a	n/a	1	0	0
758.6106	1	82	n/a	n/a	1	0	0
759.0446	1	82	n/a	n/a	1	0	0
759.2516	1	82	n/a	n/a	1	0	0
759.2876	1	82	n/a	n/a	1	0	0
759.5346	1	82	n/a	n/a	1	0	0
759.5906	1	82	n/a	n/a	1	0	0
759.6676	1	82	n/a	n/a	1	0	0
759.8236	1	82	n/a	n/a	1	0	0
760.2226	1	82	n/a	n/a	1	0	0
761.5576	1	10	n/a	n/a	1	50	1
762.8408	1	10	n/a	n/a	1	50	2
763.8908	1	10	n/a	n/a	1	50	3
764.9406	1	21	n/a	n/a	1	50	0
766.024	1	10	n/a	n/a	1	50	1
767.2406	1	10	n/a	n/a	1	50	2
768.3572	1	10	n/a	n/a	1	50	3
769.4738	1	21	n/a	n/a	1	50	0
770.557	1	10	n/a	n/a	1	50	1
771.607	1	10	n/a	n/a	1	50	2
772.8902	1	10	n/a	n/a	1	50	3
774.1734	1	21	n/a	n/a	1	50	0
775.44	1	10	n/a	n/a	1	50	1
776.7234	1	10	n/a	n/a	1	50	2
777.9232	1	10	n/a	n/a	1	50	3
779.1232	1	21	n/a	n/a	1	50	0
780.3564	1	10	n/a	n/a	1	50	1
781.523	1	10	n/a	n/a	1	50	2
782.8062	1	10	n/a	n/a	1	50	3
784.0896	1	21	n/a	n/a	1	50	0
785.1092	1	82	n/a	n/a	1	0	0
785.3852	1	82	n/a	n/a	1	0	0
785.5492	1	82	n/a	n/a	1	0	0
785.8872	1	82	n/a	n/a	1	0	0
785.9912	1	82	n/a	n/a	1	0	0
786.1092	1	82	n/a	n/a	1	0	0
786.3742	1	82	n/a	n/a	1	0	0
786.3972	1	82	n/a	n/a	1	0	0
786.8372	1	82	n/a	n/a	1	0	0
786.9412	1	82	n/a	n/a	1	0	0
788.2226	1	10	n/a	n/a	1	50	1
789.306	1	10	n/a	n/a	1	50	2
790.4724	1	10	n/a	n/a	1	50	3
791.6058	1	10	n/a	n/a	1	50	4
792.789	1	10	n/a	n/a	1	50	5
793.9722	1	21	n/a	n/a	1	50	0
795.1722	1	10	n/a	n/a	1	50	1
796.3554	1	10	n/a	n/a	1	50	2
797.4054	1	10	n/a	n/a	1	50	3
798.4554	1	21	n/a	n/a	1	50	0
799.6386	1	10	n/a	n/a	1	50	1
800.8052	1	10	n/a	n/a	1	50	2
801.9218	1	10	n/a	n/a	1	50	3
803.205	1	10	n/a	n/a	1	50	4
804.455	1	10	n/a	n/a	1	50	5
805.705	1	10	n/a	n/a	1	50	6
806.8716	1	10	n/a	n/a	1	50	7
808.0382	1	21	n/a	n/a	1	50	0
809.0714	1	10	n/a	n/a	1	50	1
810.3714	1	10	n/a	n/a	1	50	2
811.1588	1	82	n/a	n/a	1	0	0
811.4658	1	82	n/a	n/a	1	0	0
811.8958	1	82	n/a	n/a	1	0	0
812.0038	1	82	n/a	n/a	1	0	0
812.0698	1	82	n/a	n/a	1	0	0
812.1588	1	82	n/a	n/a	1	0	0
812.3858	1	82	n/a	n/a	1	0	0
812.4678	1	82	n/a	n/a	1	0	0
812.5038	1	82	n/a	n/a	1	0	0
812.7748	1	82	n/a	n/a	1	0	0
814.2712	1	10	n/a	n/a	1	50	1
815.4044	1	10	n/a	n/a	1	50	2
816.521	1	10	n/a	n/a	1	50	3
817.8208	1	10	n/a	n/a	1	50	4
818.9542	1	10	n/a	n/a	1	50	5
820.154	1	10	n/a	n/a	1	50	6
821.2206	1	10	n/a	n/a	1	50	7
822.2872	1	21	n/a	n/a	1	50	0
823.3372	1	10	n/a	n/a	1	50	1
824.4372	1	10	n/a	n/a	1	50	2
825.6038	1	10	n/a	n/a	1	50	3
826.7704	1	10	n/a	n/a	1	50	4
828.0202	1	10	n/a	n/a	1	50	5
829.2702	1	21	n/a	n/a	1	50	0
830.4034	1	10	n/a	n/a	1	50	1
831.67	1	10	n/a	n/a	1	50	2
832.8866	1	10	n/a	n/a	1	50	3
834.1032	1	21	n/a	n/a	1	50	0
835.2032	1	10	n/a	n/a	1	50	1
836.4032	1	10	n/a	n/a	1	50	2
837.4226	1	82	n/a	n/a	1	0	0
837.5926	1	82	n/a	n/a	1	0	0
837.8886	1	82	n/a	n/a	1	0	0
838.1316	1	82	n/a	n/a	1	0	0
838.2336	1	82	n/a	n/a	1	0	0
838.4226	1	82	n/a	n/a	1	0	0
838.7016	1	82	n/a	n/a	1	0	0
838.7856	1	82	n/a	n/a	1	0	0
839.1186	1	82	n/a	n/a	1	0	0
839.2706	1	82	n/a	n/a	1	0	0
840.3862	1	10	n/a	n/a	1	50	1
841.4528	1	21	n/a	n/a	1	50	0
842.736	1	10	n/a	n/a	1	50	1
844.0194	1	21	n/a	n/a	1	50	0
845.2692	1	10	n/a	n/a	1	50	1
846.5358	1	10	n/a	n/a	1	50	2
847.7858	1	10	n/a	n/a	1	50	3
848.819	1	10	n/a	n/a	1	50	4
850.0356	1	10	n/a	n/a	1	50	5
851.119	1	10	n/a	n/a	1	50	6
852.3356	1	10	n/a	n/a	1	50	7
853.5522	1	21	n/a	n/a	1	50	0
854.6188	1	10	n/a	n/a	1	50	1
855.6686	1	10	n/a	n/a	1	50	2
856.8852	1	10	n/a	n/a	1	50	3
858.1018	1	21	n/a	n/a	1	50	0
859.2018	1	10	n/a	n/a	1	50	1
860.3018	1	21	n/a	n/a	1	50	0
861.485	1	10	n/a	n/a	1	50	1
862.6016	1	10	n/a	n/a	1	50	2
893.3372	1	82	n/a	n/a	1	0	0
893.7112	1	82	n/a	n/a	1	0	0
894.0542	1	82	n/a	n/a	1	0	0
894.1112	1	82	n/a	n/a	1	0	0
894.2132	1	82	n/a	n/a	1	0	0
894.3372	1	82	n/a	n/a	1	0	0
894.6612	1	82	n/a	n/a	1	0	0
894.7742	1	82	n/a	n/a	1	0	0
895.0252	1	82	n/a	n/a	1	0	0
895.0522	1	82	n/a	n/a	1	0	0
896.483	1	10	n/a	n/a	1	52	1
897.7328	1	21	n/a	n/a	1	52	0
898.9662	1	10	n/a	n/a	1	52	1
900.1994	1	21	n/a	n/a	1	52	0
901.2994	1	10	n/a	n/a	1	52	1
902.4992	1	10	n/a	n/a	1	52	2
903.7992	1	10	n/a	n/a	1	52	3
904.849	1	10	n/a	n/a	1	52	4
906.0824	1	10	n/a	n/a	1	52	5
907.3156	1	21	n/a	n/a	1	52	0
908.6322	1	10	n/a	n/a	1	52	1
909.9154	1	10	n/a	n/a	1	52	2
911.132	1	10	n/a	n/a	1	52	3
912.3486	1	21	n/a	n/a	1	52	0
913.682	1	10	n/a	n/a	1	52	1
914.7986	1	10	n/a	n/a	1	52	2
915.8318	1	10	n/a	n/a	1	52	3
916.865	1	21	n/a	n/a	1	52	0
918.0816	1	10	n/a	n/a	1	52	1
919.1982	1	10	n/a	n/a	1	52	2
920.1898	1	82	n/a	n/a	1	0	0
920.4378	1	82	n/a	n/a	1	0	0
920.7968	1	82	n/a	n/a	1	0	0
920.8518	1	82	n/a	n/a	1	0	0
921.0158	1	82	n/a	n/a	1	0	0
921.1898	1	82	n/a	n/a	1	0	0
921.5248	1	82	n/a	n/a	1	0	0
921.5538	1	82	n/a	n/a	1	0	0
921.7438	1	82	n/a	n/a	1	0	0
921.8408	1	82	n/a	n/a	1	0	0
923.398	1	10	n/a	n/a	1	52	1
924.648	1	10	n/a	n/a	1	52	2
925.9312	1	10	n/a	n/a	1	52	3
927.2312	1	10	n/a	n/a	1	52	4
928.281	1	10	n/a	n/a	1	52	5
929.4644	1	10	n/a	n/a	1	52	6
930.5142	1	10	n/a	n/a	1	52	7
931.5642	1	21	n/a	n/a	1	52	0
932.6308	1	10	n/a	n/a	1	52	1
933.6974	1	21	n/a	n/a	1	52	0
934.914	1	10	n/a	n/a	1	52	1
936.1306	1	21	n/a	n/a	1	52	0
937.1638	1	10	n/a	n/a	1	52	1
938.3804	1	10	n/a	n/a	1	52	2
939.5638	1	10	n/a	n/a	1	52	3
940.6136	1	10	n/a	n/a	1	52	4
941.7136	1	10	n/a	n/a	1	52	5
942.7468	1	10	n/a	n/a	1	52	6
943.8468	1	10	n/a	n/a	1	52	7
944.9468	1	21	n/a	n/a	1	52	0
945.8524	1	82	n/a	n/a	1	0	0
945.9094	1	82	n/a	n/a	1	0	0
946.2794	1	82	n/a	n/a	1	0	0
946.3654	1	82	n/a	n/a	1	0	0
946.5274	1	82	n/a	n/a	1	0	0
946.8524	1	82	n/a	n/a	1	0	0
947.1114	1	82	n/a	n/a	1	0	0
947.1334	1	82	n/a	n/a	1	0	0
947.5334	1	82	n/a	n/a	1	0	0
947.5974	1	82	n/a	n/a	1	0	0
949.0798	1	10	n/a	n/a	1	52	1
950.1798	1	10	n/a	n/a	1	52	2
951.413	1	10	n/a	n/a	1	52	3
952.5796	1	10	n/a	n/a	1	52	4
953.8462	1	10	n/a	n/a	1	52	5
955.1128	1	21	n/a	n/a	1	52	0
956.396	1	10	n/a	n/a	1	52	1
957.4794	1	10	n/a	n/a	1	52	2
958.746	1	10	n/a	n/a	1	52	3
960.0626	1	10	n/a	n/a	1	52	4
961.2458	1	10	n/a	n/a	1	52	5
962.429	1	21	n/a	n/a	1	52	0
963.6956	1	10	n/a	n/a	1	52	1
964.9622	1	21	n/a	n/a	1	52	0
966.2454	1	10	n/a	n/a	1	52	1
967.5288	1	21	n/a	n/a	1	52	0
968.7454	1	10	n/a	n/a	1	52	1
969.962	1	10	n/a	n/a	1	52	2
971.2452	1	10	n/a	n/a	1	52	3
972.4784	1	10	n/a	n/a	1	52	4
973.5918	1	82	n/a	n/a	1	0	0
973.9278	1	82	n/a	n/a	1	0	0
974.0208	1	82	n/a	n/a	1	0	0
974.2368	1	82	n/a	n/a	1	0	0
974.5298	1	82	n/a	n/a	1	0	0
974.592	1	82	n/a	n/a	1	0	0
974.86	1	82	n/a	n/a	1	0	0
974.975	1	82	n/a	n/a	1	0	0
975.024	1	82	n/a	n/a	1	0	0
975.405	1	82	n/a	n/a	1	0	0
976.6782	1	10	n/a	n/a	1	52	1
977.9448	1	10	n/a	n/a	1	52	2
979.078	1	10	n/a	n/a	1	52	3
980.378	1	10	n/a	n/a	1	52	4
981.478	1	10	n/a	n/a	1	52	5
982.5778	1	10	n/a	n/a	1	52	6
983.7612	1	10	n/a	n/a	1	52	7
984.9444	1	21	n/a	n/a	1	52	0
986.1776	1	10	n/a	n/a	1	52	1
987.261	1	10	n/a	n/a	1	52	2
988.4108	1	10	n/a	n/a	1	52	3
989.594	1	10	n/a	n/a	1	52	4
990.7106	1	10	n/a	n/a	1	52	5
991.8274	1	21	n/a	n/a	1	52	0
993.1272	1	10	n/a	n/a	1	52	1
994.2272	1	10	n/a	n/a	1	52	2
995.2938	1	10	n/a	n/a	1	52	3
996.5604	1	10	n/a	n/a	1	52	4
997.7436	1	10	n/a	n/a	1	52	5
998.8602	1	10	n/a	n/a	1	52	6
999.7446	1	82	n/a	n/a	1	0	0
1000.1146	1	82	n/a	n/a	1	0	0
1000.1966	1	82	n/a	n/a	1	0	0
1000.4086	1	82	n/a	n/a	1	0	0
1000.6706	1	82	n/a	n/a	1	0	0
1000.7446	1	82	n/a	n/a	1	0	0
1000.9756	1	82	n/a	n/a	1	0	0
1001.0946	1	82	n/a	n/a	1	0	0
1001.1746	1	82	n/a	n/a	1	0	0
1001.4616	1	82	n/a	n/a	1	0	0
1002.8934	1	10	n/a	n/a	1	52	1
1004.1432	1	10	n/a	n/a	1	52	2
1005.2932	1	10	n/a	n/a	1	52	3
1006.4432	1	21	n/a	n/a	1	52	0
1007.6764	1	10	n/a	n/a	1	52	1
1008.8262	1	10	n/a	n/a	1	52	2
1010.0928	1	10	n/a	n/a	1	52	3
1011.3594	1	21	n/a	n/a	1	52	0
1012.676	1	10	n/a	n/a	1	52	1
1013.9926	1	21	n/a	n/a	1	52	0
1015.3092	1	10	n/a	n/a	1	52	1
1016.3926	1	10	n/a	n/a	1	52	2
1017.6092	1	10	n/a	n/a	1	52	3
1018.8258	1	21	n/a	n/a	1	52	0
1020.0924	1	10	n/a	n/a	1	52	1
1021.3588	1	21	n/a	n/a	1	52	0
1022.6588	1	10	n/a	n/a	1	52	1
1023.7254	1	10	n/a	n/a	1	52	2
1024.7754	1	10	n/a	n/a	1	52	3
1025.8252	1	21	n/a	n/a	1	52	0
1066.0704	1	81	n/a	n/a	1	0	0
1066.2704	1	81	n/a	n/a	1	0	0
1066.4704	1	81	n/a	n/a	1	0	0
1066.6704	1	81	n/a	n/a	1	0	0
1066.8704	1	81	n/a	n/a	1	0	0
1067.0704	1	81	n/a	n/a	1	0	0
1067.2704	1	81	n/a	n/a	1	0	0
1067.4704	1	81	n/a	n/a	1	0	0
1067.6704	1	81	n/a	n/a	1	0	0
1067.8704	1	81	n/a	n/a	1	0	0
1069.2536	1	10	n/a	n/a	1	51	1
1070.4034	1	10	n/a	n/a	1	51	2
1071.4534	1	10	n/a	n/a	1	51	3
1072.67	1	10	n/a	n/a	1	51	4
1073.9032	1	10	n/a	n/a	1	51	5
1075.1366	1	21	n/a	n/a	1	51	0
1076.3032	1	10	n/a	n/a	1	51	1
1077.503	1	10	n/a	n/a	1	51	2
1078.753	1	10	n/a	n/a	1	51	3
1080.0362	1	10	n/a	n/a	1	51	4
1081.2696	1	10	n/a	n/a	1	51	5
1082.3694	1	10	n/a	n/a	1	51	6
1083.436	1	10	n/a	n/a	1	51	7
1084.5026	1	21	n/a	n/a	1	51	0
1085.7192	1	10	n/a	n/a	1	51	1
1086.9358	1	21	n/a	n/a	1	51	0
1088.1692	1	10	n/a	n/a	1	51	1
1089.2358	1	10	n/a	n/a	1	51	2
1090.269	1	10	n/a	n/a	1	51	3
1091.3022	1	21	n/a	n/a	1	51	0
1092.184	1	81	n/a	n/a	1	0	0
1092.384	1	81	n/a	n/a	1	0	0
1092.584	1	81	n/a	n/a	1	0	0
1092.784	1	81	n/a	n/a	1	0	0
1092.984	1	81	n/a	n/a	1	0	0
1093.184	1	81	n/a	n/a	1	0	0
1093.384	1	81	n/a	n/a	1	0	0
1093.584	1	81	n/a	n/a	1	0	0
1093.784	1	81	n/a	n/a	1	0	0
1093.984	1	81	n/a	n/a	1	0	0
1095.1686	1	10	n/a	n/a	1	51	1
1096.2686	1	21	n/a	n/a	1	51	0
1097.5352	1	10	n/a	n/a	1	51	1
1098.8518	1	10	n/a	n/a	1	51	2
1100.0184	1	10	n/a	n/a	1	51	3
1101.3184	1	10	n/a	n/a	1	51	4
1102.6016	1	10	n/a	n/a	1	51	5
1103.7516	1	10	n/a	n/a	1	51	6
1104.9848	1	10	n/a	n/a	1	51	7
1106.218	1	21	n/a	n/a	1	51	0
1107.5012	1	10	n/a	n/a	1	51	1
1108.6846	1	10	n/a	n/a	1	51	2
1109.7678	1	10	n/a	n/a	1	51	3
1110.8844	1	10	n/a	n/a	1	51	4
1112.001	1	10	n/a	n/a	1	51	5
1113.051	1	10	n/a	n/a	1	51	6
1114.1342	1	10	n/a	n/a	1	51	7
1115.2176	1	21	n/a	n/a	1	51	0
1116.4674	1	10	n/a	n/a	1	51	1
1117.6174	1	10	n/a	n/a	1	51	2
1118.576	1	81	n/a	n/a	1	0	0
1118.776	1	81	n/a	n/a	1	0	0
1118.976	1	81	n/a	n/a	1	0	0
1119.176	1	81	n/a	n/a	1	0	0
1119.376	1	81	n/a	n/a	1	0	0
1119.576	1	81	n/a	n/a	1	0	0
1119.776	1	81	n/a	n/a	1	0	0
1119.976	1	81	n/a	n/a	1	0	0
1120.176	1	81	n/a	n/a	1	0	0
1120.376	1	81	n/a	n/a	1	0	0
1121.5004	1	10	n/a	n/a	1	51	1
1122.767	1	10	n/a	n/a	1	51	2
1123.8004	1	10	n/a	n/a	1	51	3
1124.9836	1	10	n/a	n/a	1	51	4
1126.2336	1	10	n/a	n/a	1	51	5
1127.3834	1	10	n/a	n/a	1	51	6
1128.5	1	10	n/a	n/a	1	51	7
1129.6166	1	21	n/a	n/a	1	51	0
1130.7332	1	10	n/a	n/a	1	51	1
1131.8832	1	10	n/a	n/a	1	51	2
1133.0832	1	10	n/a	n/a	1	51	3
1134.3998	1	10	n/a	n/a	1	51	4
1135.7162	1	10	n/a	n/a	1	51	5
1137.0328	1	21	n/a	n/a	1	51	0
1138.1662	1	10	n/a	n/a	1	51	1
1139.3828	1	10	n/a	n/a	1	51	2
1140.6494	1	10	n/a	n/a	1	51	3
1141.8992	1	10	n/a	n/a	1	51	4
1143.1326	1	10	n/a	n/a	1	51	5
1144.3824	1	10	n/a	n/a	1	51	6
1145.166	1	81	n/a	n/a	1	0	0
1145.366	1	81	n/a	n/a	1	0	0
1145.566	1	81	n/a	n/a	1	0	0
1145.766	1	81	n/a	n/a	1	0	0
1145.966	1	81	n/a	n/a	1	0	0
1146.166	1	81	n/a	n/a	1	0	0
1146.366	1	81	n/a	n/a	1	0	0
1146.566	1	81	n/a	n/a	1	0	0
1146.766	1	81	n/a	n/a	1	0	0
1146.966	1	81	n/a	n/a	1	0	0
1148.1822	1	10	n/a	n/a	1	51	1
1149.2322	1	10	n/a	n/a	1	51	2
1150.482	1	10	n/a	n/a	1	51	3
1151.732	1	21	n/a	n/a	1	51	0
1152.8486	1	10	n/a	n/a	1	51	1
1154.0152	1	10	n/a	n/a	1	51	2
1155.0984	1	10	n/a	n/a	1	51	3
1156.3484	1	10	n/a	n/a	1	51	4
1157.5816	1	10	n/a	n/a	1	51	5
1158.815	1	21	n/a	n/a	1	51	0
1159.8816	1	10	n/a	n/a	1	51	1
1161.0314	1	10	n/a	n/a	1	51	2
1162.2314	1	10	n/a	n/a	1	51	3
1163.4314	1	21	n/a	n/a	1	51	0
1164.598	1	10	n/a	n/a	1	51	1
1165.7146	1	10	n/a	n/a	1	51	2
1166.9312	1	10	n/a	n/a	1	51	3
1168.1978	1	10	n/a	n/a	1	51	4
1169.4644	1	10	n/a	n/a	1	51	5
1170.7476	1	10	n/a	n/a	1	51	6
1171.854	1	81	n/a	n/a	1	0	0
1172.054	1	81	n/a	n/a	1	0	0
1172.254	1	81	n/a	n/a	1	0	0
1172.454	1	81	n/a	n/a	1	0	0
1172.654	1	81	n/a	n/a	1	0	0
1172.854	1	81	n/a	n/a	1	0	0
1173.054	1	81	n/a	n/a	1	0	0
1173.254	1	81	n/a	n/a	1	0	0
1173.454	1	81	n/a	n/a	1	0	0
1173.654	1	81	n/a	n/a	1	0	0
1174.914	1	10	n/a	n/a	1	51	1
1176.064	1	10	n/a	n/a	1	51	2
1177.3138	1	10	n/a	n/a	1	51	3
1178.5638	1	21	n/a	n/a	1	51	0
1179.697	1	10	n/a	n/a	1	51	1
1180.9802	1	10	n/a	n/a	1	51	2
1182.1636	1	10	n/a	n/a	1	51	3
1183.3468	1	21	n/a	n/a	1	51	0
1184.38	1	10	n/a	n/a	1	51	1
1185.4134	1	21	n/a	n/a	1	51	0
1186.53	1	10	n/a	n/a	1	51	1
1187.58	1	10	n/a	n/a	1	51	2
1188.6298	1	10	n/a	n/a	1	51	3
1189.9298	1	10	n/a	n/a	1	51	4
1191.063	1	10	n/a	n/a	1	51	5
1192.1962	1	21	n/a	n/a	1	51	0
1193.3628	1	10	n/a	n/a	1	51	1
1194.4128	1	10	n/a	n/a	1	51	2
1195.6128	1	10	n/a	n/a	1	51	3
1196.8126	1	21	n/a	n/a	1	51	0
1205.6052	1	81	n/a	n/a	1	0	0
1205.8052	1	81	n/a	n/a	1	0	0
1206.0052	1	81	n/a	n/a	1	0	0
1206.2052	1	81	n/a	n/a	1	0	0
1206.4052	1	81	n/a	n/a	1	0	0
1206.6052	1	81	n/a	n/a	1	0	0
1206.8052	1	81	n/a	n/a	1	0	0
1207.0052	1	81	n/a	n/a	1	0	0
1207.2052	1	81	n/a	n/a	1	0	0
1207.4052	1	81	n/a	n/a	1	0	0
1208.612	1	10	n/a	n/a	1	50	1
1209.7286	1	21	n/a	n/a	1	50	0
1210.8452	1	10	n/a	n/a	1	50	1
1211.9618	1	21	n/a	n/a	1	50	0
1213.1284	1	10	n/a	n/a	1	50	1
1214.295	1	21	n/a	n/a	1	50	0
1215.345	1	10	n/a	n/a	1	50	1
1216.5282	1	10	n/a	n/a	1	50	2
1217.5948	1	10	n/a	n/a	1	50	3
1218.7948	1	10	n/a	n/a	1	50	4
1219.9446	1	10	n/a	n/a	1	50	5
1221.0946	1	21	n/a	n/a	1	50	0
1222.2446	1	10	n/a	n/a	1	50	1
1223.3612	1	10	n/a	n/a	1	50	2
1224.611	1	10	n/a	n/a	1	50	3
1225.7944	1	10	n/a	n/a	1	50	4
1226.9276	1	10	n/a	n/a	1	50	5
1228.0108	1	10	n/a	n/a	1	50	6
1229.0608	1	10	n/a	n/a	1	50	7
1230.1108	1	21	n/a	n/a	1	50	0
1230.9884	1	81	n/a	n/a	1	0	0
1231.1884	1	81	n/a	n/a	1	0	0
1231.3884	1	81	n/a	n/a	1	0	0
1231.5884	1	81	n/a	n/a	1	0	0
1231.7884	1	81	n/a	n/a	1	0	0
1231.9884	1	81	n/a	n/a	1	0	0
1232.1884	1	81	n/a	n/a	1	0	0
1232.3884	1	81	n/a	n/a	1	0	0
1232.5884	1	81	n/a	n/a	1	0	0
1232.7884	1	81	n/a	n/a	1	0	0
1234.0104	1	10	n/a	n/a	1	50	1
1235.177	1	10	n/a	n/a	1	50	2
1236.4436	1	10	n/a	n/a	1	50	3
1237.7436	1	10	n/a	n/a	1	50	4
1238.9768	1	10	n/a	n/a	1	50	5
1240.2102	1	21	n/a	n/a	1	50	0
1241.46	1	10	n/a	n/a	1	50	1
1242.76	1	10	n/a	n/a	1	50	2
1244.0266	1	10	n/a	n/a	1	50	3
1245.2932	1	21	n/a	n/a	1	50	0
1246.4098	1	10	n/a	n/a	1	50	1
1247.6596	1	10	n/a	n/a	1	50	2
1248.7762	1	10	n/a	n/a	1	50	3
1249.9262	1	10	n/a	n/a	1	50	4
1251.0094	1	10	n/a	n/a	1	50	5
1252.0428	1	10	n/a	n/a	1	50	6
1253.3094	1	10	n/a	n/a	1	50	7
1254.576	1	21	n/a	n/a	1	50	0
1255.7092	1	10	n/a	n/a	1	50	1
1257.0092	1	10	n/a	n/a	1	50	2
1258.1236	1	81	n/a	n/a	1	0	0
1258.3236	1	81	n/a	n/a	1	0	0
1258.5236	1	81	n/a	n/a	1	0	0
1258.7236	1	81	n/a	n/a	1	0	0
1258.9236	1	81	n/a	n/a	1	0	0
1259.1236	1	81	n/a	n/a	1	0	0
1259.3236	1	81	n/a	n/a	1	0	0
1259.5236	1	81	n/a	n/a	1	0	0
1259.7236	1	81	n/a	n/a	1	0	0
1259.9236	1	81	n/a	n/a	1	0	0
1261.0588	1	10	n/a	n/a	1	50	1
1262.1422	1	10	n/a	n/a	1	50	2
1263.4588	1	10	n/a	n/a	1	50	3
1264.7754	1	21	n/a	n/a	1	50	0
1266.042	1	10	n/a	n/a	1	50	1
1267.3086	1	21	n/a	n/a	1	50	0
1268.4418	1	10	n/a	n/a	1	50	1
1269.575	1	10	n/a	n/a	1	50	2
1270.875	1	10	n/a	n/a	1	50	3
1272.0082	1	10	n/a	n/a	1	50	4
1273.1416	1	10	n/a	n/a	1	50	5
1274.3748	1	10	n/a	n/a	1	50	6
1275.408	1	10	n/a	n/a	1	50	7
1276.4414	1	21	n/a	n/a	1	50	0
1277.5746	1	10	n/a	n/a	1	50	1
1278.7412	1	10	n/a	n/a	1	50	2
1280.0078	1	10	n/a	n/a	1	50	3
1281.2744	1	21	n/a	n/a	1	50	0
1282.491	1	10	n/a	n/a	1	50	1
1283.7076	1	21	n/a	n/a	1	50	0
1284.5482	1	81	n/a	n/a	1	0	0
1284.7482	1	81	n/a	n/a	1	0	0
1284.9482	1	81	n/a	n/a	1	0	0
1285.1482	1	81	n/a	n/a	1	0	0
1285.3482	1	81	n/a	n/a	1	0	0
1285.5482	1	81	n/a	n/a	1	0	0
1285.7482	1	81	n/a	n/a	1	0	0
1285.9482	1	81	n/a	n/a	1	0	0
1286.1482	1	81	n/a	n/a	1	0	0
1286.3482	1	81	n/a	n/a	1	0	0
1287.524	1	10	n/a	n/a	1	50	1
1288.824	1	10	n/a	n/a	1	50	2
1289.9072	1	10	n/a	n/a	1	50	3
1291.1572	1	10	n/a	n/a	1	50	4
1292.2738	1	10	n/a	n/a	1	50	5
1293.3904	1	21	n/a	n/a	1	50	0
1294.6902	1	10	n/a	n/a	1	50	1
1295.8568	1	10	n/a	n/a	1	50	2
1296.9902	1	10	n/a	n/a	1	50	3
1298.2568	1	10	n/a	n/a	1	50	4
1299.3234	1	10	n/a	n/a	1	50	5
1300.54	1	10	n/a	n/a	1	50	6
1301.5898	1	10	n/a	n/a	1	50	7
1302.6398	1	21	n/a	n/a	1	50	0
1303.9564	1	10	n/a	n/a	1	50	1
1305.273	1	21	n/a	n/a	1	50	0
1306.4728	1	10	n/a	n/a	1	50	1
1307.7562	1	10	n/a	n/a	1	50	2
1309.056	1	10	n/a	n/a	1	50	3
1310.256	1	10	n/a	n/a	1	50	4
1311.3404	1	81	n/a	n/a	1	0	0
1311.5404	1	81	n/a	n/a	1	0	0
1311.7404	1	81	n/a	n/a	1	0	0
1311.9404	1	81	n/a	n/a	1	0	0
1312.1404	1	81	n/a	n/a	1	0	0
1312.3404	1	81	n/a	n/a	1	0	0
1312.5404	1	81	n/a	n/a	1	0	0
1312.7404	1	81	n/a	n/a	1	0	0
1312.9404	1	81	n/a	n/a	1	0	0
1313.1404	1	81	n/a	n/a	1	0	0
1314.5058	1	10	n/a	n/a	1	50	1
1315.8224	1	10	n/a	n/a	1	50	2
1317.0722	1	10	n/a	n/a	1	50	3
1318.3222	1	21	n/a	n/a	1	50	0
1319.5054	1	10	n/a	n/a	1	50	1
1320.7554	1	10	n/a	n/a	1	50	2
1321.9554	1	10	n/a	n/a	1	50	3
1323.072	1	10	n/a	n/a	1	50	4
1324.1218	1	10	n/a	n/a	1	50	5
1325.4384	1	10	n/a	n/a	1	50	6
1326.6884	1	10	n/a	n/a	1	50	7
1327.9382	1	21	n/a	n/a	1	50	0
1329.0882	1	10	n/a	n/a	1	50	1
1330.2382	1	10	n/a	n/a	1	50	2
1331.2714	1	10	n/a	n/a	1	50	3
1332.5214	1	10	n/a	n/a	1	50	4
1333.7712	1	10	n/a	n/a	1	50	5
1334.9046	1	10	n/a	n/a	1	50	6
1336.0878	1	10	n/a	n/a	1	50	7
1337.271	1	21	n/a	n/a	1	50	0
1359.6332	1	82	n/a	n/a	1	0	0
1360.0022	1	82	n/a	n/a	1	0	0
1360.1742	1	82	n/a	n/a	1	0	0
1360.3972	1	82	n/a	n/a	1	0	0
1360.4282	1	82	n/a	n/a	1	0	0
1360.6332	1	82	n/a	n/a	1	0	0
1361.0152	1	82	n/a	n/a	1	0	0
1361.1342	1	82	n/a	n/a	1	0	0
1361.4062	1	82	n/a	n/a	1	0	0
1361.4912	1	82	n/a	n/a	1	0	0
1362.6696	1	10	n/a	n/a	1	52	1
1363.8862	1	10	n/a	n/a	1	52	2
1365.2028	1	10	n/a	n/a	1	52	3
1366.5194	1	21	n/a	n/a	1	52	0
1367.736	1	10	n/a	n/a	1	52	1
1368.9526	1	10	n/a	n/a	1	52	2
1370.1524	1	10	n/a	n/a	1	52	3
1371.469	1	10	n/a	n/a	1	52	4
1372.5856	1	10	n/a	n/a	1	52	5
1373.619	1	10	n/a	n/a	1	52	6
1374.6522	1	10	n/a	n/a	1	52	7
1375.6854	1	21	n/a	n/a	1	52	0
1376.8688	1	10	n/a	n/a	1	52	1
1378.0854	1	10	n/a	n/a	1	52	2
1379.2852	1	10	n/a	n/a	1	52	3
1380.4852	1	21	n/a	n/a	1	52	0
1381.6518	1	10	n/a	n/a	1	52	1
1382.8184	1	21	n/a	n/a	1	52	0
1384.0516	1	10	n/a	n/a	1	52	1
1385.2182	1	10	n/a	n/a	1	52	2
1386.1698	1	82	n/a	n/a	1	0	0
1386.2538	1	82	n/a	n/a	1	0	0
1386.3778	1	82	n/a	n/a	1	0	0
1386.7738	1	82	n/a	n/a	1	0	0
1386.8138	1	82	n/a	n/a	1	0	0
1387.1698	1	82	n/a	n/a	1	0	0
1387.2138	1	82	n/a	n/a	1	0	0
1387.4538	1	82	n/a	n/a	1	0	0
1387.7338	1	82	n/a	n/a	1	0	0
1387.8968	1	82	n/a	n/a	1	0	0
1389.218	1	10	n/a	n/a	1	52	1
1390.368	1	21	n/a	n/a	1	52	0
1391.6512	1	10	n/a	n/a	1	52	1
1392.9344	1	21	n/a	n/a	1	52	0
1394.051	1	10	n/a	n/a	1	52	1
1395.251	1	10	n/a	n/a	1	52	2
1396.5342	1	10	n/a	n/a	1	52	3
1397.6176	1	10	n/a	n/a	1	52	4
1398.8508	1	10	n/a	n/a	1	52	5
1400.1006	1	10	n/a	n/a	1	52	6
1401.4006	1	10	n/a	n/a	1	52	7
1402.7006	1	21	n/a	n/a	1	52	0
1403.9338	1	10	n/a	n/a	1	52	1
1405.2338	1	10	n/a	n/a	1	52	2
1406.2836	1	10	n/a	n/a	1	52	3
1407.5836	1	10	n/a	n/a	1	52	4
1408.8836	1	10	n/a	n/a	1	52	5
1410.1502	1	10	n/a	n/a	1	52	6
1411.3	1	10	n/a	n/a	1	52	7
1412.45	1	21	n/a	n/a	1	52	0
1413.5266	1	82	n/a	n/a	1	0	0
1413.7536	1	82	n/a	n/a	1	0	0
1413.8016	1	82	n/a	n/a	1	0	0
1414.1786	1	82	n/a	n/a	1	0	0
1414.2946	1	82	n/a	n/a	1	0	0
1414.5266	1	82	n/a	n/a	1	0	0
1414.9616	1	82	n/a	n/a	1	0	0
1415.0606	1	82	n/a	n/a	1	0	0
1415.2576	1	82	n/a	n/a	1	0	0
1415.4146	1	82	n/a	n/a	1	0	0
1416.683	1	10	n/a	n/a	1	52	1
1417.8496	1	10	n/a	n/a	1	52	2
1419.083	1	10	n/a	n/a	1	52	3
1420.3328	1	10	n/a	n/a	1	52	4
1421.3828	1	10	n/a	n/a	1	52	5
1422.4328	1	21	n/a	n/a	1	52	0
1423.466	1	10	n/a	n/a	1	52	1
1424.6492	1	10	n/a	n/a	1	52	2
1425.8326	1	10	n/a	n/a	1	52	3
1426.8992	1	10	n/a	n/a	1	52	4
1428.099	1	10	n/a	n/a	1	52	5
1429.299	1	10	n/a	n/a	1	52	6
1430.549	1	10	n/a	n/a	1	52	7
1431.7988	1	21	n/a	n/a	1	52	0
1432.9488	1	10	n/a	n/a	1	52	1
1434.1654	1	10	n/a	n/a	1	52	2
1435.3986	1	10	n/a	n/a	1	52	3
1436.6818	1	10	n/a	n/a	1	52	4
1437.8984	1	10	n/a	n/a	1	52	5
1439.115	1	21	n/a	n/a	1	52	0
1439.9028	1	82	n/a	n/a	1	0	0
1439.9238	1	82	n/a	n/a	1	0	0
1440.2728	1	82	n/a	n/a	1	0	0
1440.3998	1	82	n/a	n/a	1	0	0
1440.7058	1	82	n/a	n/a	1	0	0
1440.9028	1	82	n/a	n/a	1	0	0
1441.0758	1	82	n/a	n/a	1	0	0
1441.1188	1	82	n/a	n/a	1	0	0
1441.2418	1	82	n/a	n/a	1	0	0
1441.5878	1	82	n/a	n/a	1	0	0
1443.0982	1	10	n/a	n/a	1	52	1
1444.3814	1	10	n/a	n/a	1	52	2
1445.6646	1	10	n/a	n/a	1	52	3
1446.948	1	21	n/a	n/a	1	52	0
1448.2312	1	10	n/a	n/a	1	52	1
1449.2644	1	10	n/a	n/a	1	52	2
1450.531	1	10	n/a	n/a	1	52	3
1451.831	1	10	n/a	n/a	1	52	4
1453.031	1	10	n/a	n/a	1	52	5
1454.2974	1	10	n/a	n/a	1	52	6
1455.564	1	10	n/a	n/a	1	52	7
1456.8306	1	21	n/a	n/a	1	52	0
1457.914	1	10	n/a	n/a	1	52	1
1458.9972	1	21	n/a	n/a	1	52	0
1460.2138	1	10	n/a	n/a	1	52	1
1461.3804	1	10	n/a	n/a	1	52	2
1462.447	1	10	n/a	n/a	1	52	3
1463.4802	1	10	n/a	n/a	1	52	4
1464.7468	1	10	n/a	n/a	1	52	5
1465.8468	1	10	n/a	n/a	1	52	6
1466.9412	1	82	n/a	n/a	1	0	0
1467.1142	1	82	n/a	n/a	1	0	0
1467.2002	1	82	n/a	n/a	1	0	0
1467.2272	1	82	n/a	n/a	1	0	0
1467.5832	1	82	n/a	n/a	1	0	0
1467.9412	1	82	n/a	n/a	1	0	0
1467.9622	1	82	n/a	n/a	1	0	0
1468.0262	1	82	n/a	n/a	1	0	0
1468.1232	1	82	n/a	n/a	1	0	0
1468.5262	1	82	n/a	n/a	1	0	0
1469.93	1	10	n/a	n/a	1	52	1
1470.9798	1	10	n/a	n/a	1	52	2
1472.1798	1	10	n/a	n/a	1	52	3
1473.3964	1	10	n/a	n/a	1	52	4
1474.6296	1	10	n/a	n/a	1	52	5
1475.7962	1	10	n/a	n/a	1	52	6
1476.9294	1	10	n/a	n/a	1	52	7
1478.0628	1	21	n/a	n/a	1	52	0
1479.1128	1	10	n/a	n/a	1	52	1
1480.3792	1	10	n/a	n/a	1	52	2
1481.4792	1	10	n/a	n/a	1	52	3
1482.6292	1	10	n/a	n/a	1	52	4
1483.8124	1	10	n/a	n/a	1	52	5
1484.9956	1	21	n/a	n/a	1	52	0
1486.3122	1	10	n/a	n/a	1	52	1
1487.6288	1	10	n/a	n/a	1	52	2
1488.6788	1	10	n/a	n/a	1	52	3
1489.712	1	10	n/a	n/a	1	52	4
1490.9286	1	10	n/a	n/a	1	52	5
1492.1452	1	21	n/a	n/a	1	52	0
1555.6126	1	82	n/a	n/a	1	0	0
1555.9806	1	82	n/a	n/a	1	0	0
1556.1556	1	82	n/a	n/a	1	0	0
1556.4016	1	82	n/a	n/a	1	0	0
1556.4556	1	82	n/a	n/a	1	0	0
1556.6126	1	82	n/a	n/a	1	0	0
1556.6656	1	82	n/a	n/a	1	0	0
1556.9396	1	82	n/a	n/a	1	0	0
1557.1416	1	82	n/a	n/a	1	0	0
1557.2706	1	82	n/a	n/a	1	0	0
1558.7598	1	10	n/a	n/a	1	52	1
1559.8098	1	10	n/a	n/a	1	52	2
1560.993	1	10	n/a	n/a	1	52	3
1562.1764	1	21	n/a	n/a	1	52	0
1563.3596	1	10	n/a	n/a	1	52	1
1564.6262	1	10	n/a	n/a	1	52	2
1565.8428	1	10	n/a	n/a	1	52	3
1567.1594	1	10	n/a	n/a	1	52	4
1568.4426	1	10	n/a	n/a	1	52	5
1569.7258	1	21	n/a	n/a	1	52	0
1570.8092	1	10	n/a	n/a	1	52	1
1571.8424	1	10	n/a	n/a	1	52	2
1572.909	1	10	n/a	n/a	1	52	3
1573.9424	1	10	n/a	n/a	1	52	4
1575.1422	1	10	n/a	n/a	1	52	5
1576.3422	1	21	n/a	n/a	1	52	0
1577.5088	1	10	n/a	n/a	1	52	1
1578.6754	1	21	n/a	n/a	1	52	0
1579.7586	1	10	n/a	n/a	1	52	1
1580.8418	1	21	n/a	n/a	1	52	0
1581.7166	1	82	n/a	n/a	1	0	0
1581.9396	1	82	n/a	n/a	1	0	0
1582.2816	1	82	n/a	n/a	1	0	0
1582.3576	1	82	n/a	n/a	1	0	0
1582.6726	1	82	n/a	n/a	1	0	0
1582.7166	1	82	n/a	n/a	1	0	0
1582.8736	1	82	n/a	n/a	1	0	0
1583.2196	1	82	n/a	n/a	1	0	0
1583.2716	1	82	n/a	n/a	1	0	0
1583.6536	1	82	n/a	n/a	1	0	0
1584.7916	1	10	n/a	n/a	1	52	1
1585.9916	1	21	n/a	n/a	1	52	0
1587.2748	1	10	n/a	n/a	1	52	1
1588.5582	1	21	n/a	n/a	1	52	0
1589.6748	1	10	n/a	n/a	1	52	1
1590.7914	1	21	n/a	n/a	1	52	0
1592.008	1	10	n/a	n/a	1	52	1
1593.1578	1	10	n/a	n/a	1	52	2
1594.2078	1	10	n/a	n/a	1	52	3
1595.4744	1	10	n/a	n/a	1	52	4
1596.7076	1	10	n/a	n/a	1	52	5
1597.9076	1	10	n/a	n/a	1	52	6
1599.1408	1	10	n/a	n/a	1	52	7
1600.374	1	21	n/a	n/a	1	52	0
1601.4406	1	10	n/a	n/a	1	52	1
1602.7072	1	10	n/a	n/a	1	52	2
1603.8072	1	10	n/a	n/a	1	52	3
1605.1238	1	10	n/a	n/a	1	52	4
1606.357	1	10	n/a	n/a	1	52	5
1607.5904	1	21	n/a	n/a	1	52	0
1608.375	1	82	n/a	n/a	1	0	0
1608.648	1	82	n/a	n/a	1	0	0
1608.946	1	82	n/a	n/a	1	0	0
1609.005	1	82	n/a	n/a	1	0	0
1609.039	1	82	n/a	n/a	1	0	0
1609.375	1	82	n/a	n/a	1	0	0
1609.476	1	82	n/a	n/a	1	0	0
1609.755	1	82	n/a	n/a	1	0	0
1609.893	1	82	n/a	n/a	1	0	0
1609.914	1	82	n/a	n/a	1	0	0
1611.3568	1	10	n/a	n/a	1	52	1
1612.44	1	21	n/a	n/a	1	52	0
1613.54	1	10	n/a	n/a	1	52	1
1614.8232	1	10	n/a	n/a	1	52	2
1615.9564	1	10	n/a	n/a	1	52	3
1617.0898	1	21	n/a	n/a	1	52	0
1618.3896	1	10	n/a	n/a	1	52	1
1619.5396	1	10	n/a	n/a	1	52	2
1620.6062	1	10	n/a	n/a	1	52	3
1621.6728	1	21	n/a	n/a	1	52	0
1622.7394	1	10	n/a	n/a	1	52	1
1623.9894	1	10	n/a	n/a	1	52	2
1625.2226	1	10	n/a	n/a	1	52	3
1626.2892	1	10	n/a	n/a	1	52	4
1627.5058	1	10	n/a	n/a	1	52	5
1628.5724	1	10	n/a	n/a	1	52	6
1629.8556	1	10	n/a	n/a	1	52	7
1631.139	1	21	n/a	n/a	1	52	0
1632.3722	1	10	n/a	n/a	1	52	1
1633.5388	1	10	n/a	n/a	1	52	2
1634.2594	1	82	n/a	n/a	1	0	0
1634.4184	1	82	n/a	n/a	1	0	0
1634.7314	1	82	n/a	n/a	1	0	0
1634.7734	1	82	n/a	n/a	1	0	0
1634.8454	1	82	n/a	n/a	1	0	0
1635.2594	1	82	n/a	n/a	1	0	0
1635.3584	1	82	n/a	n/a	1	0	0
1635.4784	1	82	n/a	n/a	1	0	0
1635.6994	1	82	n/a	n/a	1	0	0
1636.0724	1	82	n/a	n/a	1	0	0
1637.4052	1	10	n/a	n/a	1	52	1
1638.6552	1	21	n/a	n/a	1	52	0
1639.905	1	10	n/a	n/a	1	52	1
1641.2216	1	10	n/a	n/a	1	52	2
1642.3382	1	10	n/a	n/a	1	52	3
1643.4548	1	21	n/a	n/a	1	52	0
1644.7548	1	10	n/a	n/a	1	52	1
1646.0548	1	21	n/a	n/a	1	52	0
1647.1214	1	10	n/a	n/a	1	52	1
1648.1712	1	10	n/a	n/a	1	52	2
1649.3378	1	10	n/a	n/a	1	52	3
1650.4212	1	10	n/a	n/a	1	52	4
1651.671	1	10	n/a	n/a	1	52	5
1652.9544	1	10	n/a	n/a	1	52	6
1654.221	1	10	n/a	n/a	1	52	7
1655.4874	1	21	n/a	n/a	1	52	0
1656.6874	1	10	n/a	n/a	1	52	1
1657.954	1	10	n/a	n/a	1	52	2
1659.1206	1	10	n/a	n/a	1	52	3
1660.1538	1	10	n/a	n/a	1	52	4
1660.9234	1	82	n/a	n/a	1	0	0
1661.0404	1	82	n/a	n/a	1	0	0
1661.4074	1	82	n/a	n/a	1	0	0
1661.6184	1	82	n/a	n/a	1	0	0
1661.7004	1	82	n/a	n/a	1	0	0
1661.9234	1	82	n/a	n/a	1	0	0
1662.3514	1	82	n/a	n/a	1	0	0
1662.5194	1	82	n/a	n/a	1	0	0
1662.6624	1	82	n/a	n/a	1	0	0
1662.7394	1	82	n/a	n/a	1	0	0
1663.9204	1	10	n/a	n/a	1	52	1
1665.2202	1	10	n/a	n/a	1	52	2
1666.4536	1	10	n/a	n/a	1	52	3
1667.6868	1	21	n/a	n/a	1	52	0
1668.97	1	10	n/a	n/a	1	52	1
1670.2532	1	21	n/a	n/a	1	52	0
1671.4198	1	10	n/a	n/a	1	52	1
1672.4698	1	10	n/a	n/a	1	52	2
1673.703	1	10	n/a	n/a	1	52	3
1674.9364	1	21	n/a	n/a	1	52	0
1676.1196	1	10	n/a	n/a	1	52	1
1677.3028	1	21	n/a	n/a	1	52	0
1678.4194	1	10	n/a	n/a	1	52	1
1679.4694	1	10	n/a	n/a	1	52	2
1680.686	1	10	n/a	n/a	1	52	3
1681.9026	1	21	n/a	n/a	1	52	0
1683.2192	1	10	n/a	n/a	1	52	1
1684.4858	1	10	n/a	n/a	1	52	2
1685.719	1	10	n/a	n/a	1	52	3
1686.9524	1	10	n/a	n/a	1	52	4
1698.6558	1	82	n/a	n/a	1	0	0
1698.7088	1	82	n/a	n/a	1	0	0
1698.7308	1	82	n/a	n/a	1	0	0
1698.9848	1	82	n/a	n/a	1	0	0
1699.2818	1	82	n/a	n/a	1	0	0
1699.6558	1	82	n/a	n/a	1	0	0
1699.7418	1	82	n/a	n/a	1	0	0
1699.7938	1	82	n/a	n/a	1	0	0
1700.0808	1	82	n/a	n/a	1	0	0
1700.1038	1	82	n/a	n/a	1	0	0
1701.7848	1	10	n/a	n/a	1	50	1
1703.0846	1	10	n/a	n/a	1	50	2
1704.1512	1	10	n/a	n/a	1	50	3
1705.2178	1	21	n/a	n/a	1	50	0
1706.5012	1	10	n/a	n/a	1	50	1
1707.6178	1	10	n/a	n/a	1	50	2
1708.6676	1	10	n/a	n/a	1	50	3
1709.7842	1	10	n/a	n/a	1	50	4
1710.8676	1	10	n/a	n/a	1	50	5
1711.9508	1	21	n/a	n/a	1	50	0
1713.2008	1	10	n/a	n/a	1	50	1
1714.4506	1	21	n/a	n/a	1	50	0
1715.6506	1	10	n/a	n/a	1	50	1
1716.7672	1	10	n/a	n/a	1	50	2
1717.9004	1	10	n/a	n/a	1	50	3
1719.117	1	10	n/a	n/a	1	50	4
1720.167	1	10	n/a	n/a	1	50	5
1721.217	1	21	n/a	n/a	1	50	0
1722.2502	1	10	n/a	n/a	1	50	1
1723.5002	1	10	n/a	n/a	1	50	2
1724.5226	1	82	n/a	n/a	1	0	0
1724.8746	1	82	n/a	n/a	1	0	0
1724.9226	1	82	n/a	n/a	1	0	0
1725.0086	1	82	n/a	n/a	1	0	0
1725.1496	1	82	n/a	n/a	1	0	0
1725.5226	1	82	n/a	n/a	1	0	0
1725.5786	1	82	n/a	n/a	1	0	0
1725.6796	1	82	n/a	n/a	1	0	0
1725.8606	1	82	n/a	n/a	1	0	0
1725.9946	1	82	n/a	n/a	1	0	0
1727.45	1	10	n/a	n/a	1	50	1
1728.6998	1	10	n/a	n/a	1	50	2
1729.8664	1	10	n/a	n/a	1	50	3
1731.183	1	10	n/a	n/a	1	50	4
1732.3996	1	10	n/a	n/a	1	50	5
1733.4328	1	10	n/a	n/a	1	50	6
1734.6828	1	10	n/a	n/a	1	50	7
1735.9328	1	21	n/a	n/a	1	50	0
1737.0494	1	10	n/a	n/a	1	50	1
1738.2326	1	10	n/a	n/a	1	50	2
1739.3158	1	10	n/a	n/a	1	50	3
1740.3992	1	21	n/a	n/a	1	50	0
1741.5158	1	10	n/a	n/a	1	50	1
1742.6324	1	21	n/a	n/a	1	50	0
1743.9656	1	10	n/a	n/a	1	50	1
1745.2988	1	21	n/a	n/a	1	50	0
1746.6154	1	10	n/a	n/a	1	50	1
1747.6488	1	10	n/a	n/a	1	50	2
1748.7654	1	10	n/a	n/a	1	50	3
1749.8652	1	10	n/a	n/a	1	50	4
1750.6608	1	82	n/a	n/a	1	0	0
1750.8388	1	82	n/a	n/a	1	0	0
1751.1938	1	82	n/a	n/a	1	0	0
1751.2178	1	82	n/a	n/a	1	0	0
1751.3298	1	82	n/a	n/a	1	0	0
1751.6608	1	82	n/a	n/a	1	0	0
1751.7038	1	82	n/a	n/a	1	0	0
1751.7698	1	82	n/a	n/a	1	0	0
1752.2008	1	82	n/a	n/a	1	0	0
1752.3188	1	82	n/a	n/a	1	0	0
1753.8484	1	10	n/a	n/a	1	50	1
1754.9482	1	10	n/a	n/a	1	50	2
1756.0816	1	10	n/a	n/a	1	50	3
1757.2148	1	21	n/a	n/a	1	50	0
1758.5148	1	10	n/a	n/a	1	50	1
1759.6146	1	10	n/a	n/a	1	50	2
1760.8312	1	10	n/a	n/a	1	50	3
1762.0478	1	21	n/a	n/a	1	50	0
1763.2478	1	10	n/a	n/a	1	50	1
1764.4144	1	10	n/a	n/a	1	50	2
1765.5144	1	10	n/a	n/a	1	50	3
1766.5642	1	10	n/a	n/a	1	50	4
1767.7142	1	10	n/a	n/a	1	50	5
1768.9808	1	10	n/a	n/a	1	50	6
1770.014	1	10	n/a	n/a	1	50	7
1771.0474	1	21	n/a	n/a	1	50	0
1772.1806	1	10	n/a	n/a	1	50	1
1773.3138	1	21	n/a	n/a	1	50	0
1774.3804	1	10	n/a	n/a	1	50	1
1775.5804	1	10	n/a	n/a	1	50	2
1776.5238	1	82	n/a	n/a	1	0	0
1776.9028	1	82	n/a	n/a	1	0	0
1776.9308	1	82	n/a	n/a	1	0	0
1777.0358	1	82	n/a	n/a	1	0	0
1777.2088	1	82	n/a	n/a	1	0	0
1777.5238	1	82	n/a	n/a	1	0	0
1777.8598	1	82	n/a	n/a	1	0	0
1777.9218	1	82	n/a	n/a	1	0	0
1778.0998	1	82	n/a	n/a	1	0	0
1778.2208	1	82	n/a	n/a	1	0	0
1779.4468	1	10	n/a	n/a	1	50	1
1780.5468	1	10	n/a	n/a	1	50	2
1781.58	1	10	n/a	n/a	1	50	3
1782.7966	1	10	n/a	n/a	1	50	4
1783.8632	1	10	n/a	n/a	1	50	5
1785.1132	1	10	n/a	n/a	1	50	6
1786.3464	1	10	n/a	n/a	1	50	7
1787.5796	1	21	n/a	n/a	1	50	0
1788.863	1	10	n/a	n/a	1	50	1
1789.9462	1	10	n/a	n/a	1	50	2
1791.1794	1	10	n/a	n/a	1	50	3
1792.2628	1	10	n/a	n/a	1	50	4
1793.446	1	10	n/a	n/a	1	50	5
1794.7626	1	10	n/a	n/a	1	50	6
1795.8458	1	10	n/a	n/a	1	50	7
1796.9292	1	21	n/a	n/a	1	50	0
1798.1458	1	10	n/a	n/a	1	50	1
1799.2956	1	10	n/a	n/a	1	50	2
1800.329	1	10	n/a	n/a	1	50	3
1801.4622	1	10	n/a	n/a	1	50	4
1802.4438	1	82	n/a	n/a	1	0	0
1802.5788	1	82	n/a	n/a	1	0	0
1802.9898	1	82	n/a	n/a	1	0	0
1803.0118	1	82	n/a	n/a	1	0	0
1803.1068	1	82	n/a	n/a	1	0	0
1803.4438	1	82	n/a	n/a	1	0	0
1803.7568	1	82	n/a	n/a	1	0	0
1803.9038	1	82	n/a	n/a	1	0	0
1804.2548	1	82	n/a	n/a	1	0	0
1804.3728	1	82	n/a	n/a	1	0	0
1805.362	1	10	n/a	n/a	1	50	1
1806.462	1	10	n/a	n/a	1	50	2
1807.6618	1	10	n/a	n/a	1	50	3
1808.8784	1	10	n/a	n/a	1	50	4
1809.9118	1	10	n/a	n/a	1	50	5
1811.195	1	10	n/a	n/a	1	50	6
1812.3616	1	10	n/a	n/a	1	50	7
1813.5282	1	21	n/a	n/a	1	50	0
1814.5948	1	10	n/a	n/a	1	50	1
1815.678	1	10	n/a	n/a	1	50	2
1816.7614	1	10	n/a	n/a	1	50	3
1817.8446	1	21	n/a	n/a	1	50	0
1818.8946	1	10	n/a	n/a	1	50	1
1820.0444	1	10	n/a	n/a	1	50	2
1821.211	1	10	n/a	n/a	1	50	3
1822.3776	1	21	n/a	n/a	1	50	0
1823.561	1	10	n/a	n/a	1	50	1
1824.8276	1	10	n/a	n/a	1	50	2
1825.8942	1	10	n/a	n/a	1	50	3
1826.9608	1	10	n/a	n/a	1	50	4
1861.6218	1	81	n/a	n/a	1	0	0
1861.8218	1	81	n/a	n/a	1	0	0
1862.0218	1	81	n/a	n/a	1	0	0
1862.2218	1	81	n/a	n/a	1	0	0
1862.4218	1	81	n/a	n/a	1	0	0
1862.6218	1	81	n/a	n/a	1	0	0
1862.8218	1	81	n/a	n/a	1	0	0
1863.0218	1	81	n/a	n/a	1	0	0
1863.2218	1	81	n/a	n/a	1	0	0
1863.4218	1	81	n/a	n/a	1	0	0
1864.5584	1	10	n/a	n/a	1	51	1
1865.7584	1	10	n/a	n/a	1	51	2
1866.9416	1	10	n/a	n/a	1	51	3
1868.125	1	21	n/a	n/a	1	51	0
1869.4082	1	10	n/a	n/a	1	51	1
1870.6082	1	10	n/a	n/a	1	51	2
1871.658	1	10	n/a	n/a	1	51	3
1872.708	1	10	n/a	n/a	1	51	4
1874.0412	1	10	n/a	n/a	1	51	5
1875.3746	1	21	n/a	n/a	1	51	0
1876.5244	1	10	n/a	n/a	1	51	1
1877.791	1	10	n/a	n/a	1	51	2
1878.9076	1	10	n/a	n/a	1	51	3
1880.2242	1	10	n/a	n/a	1	51	4
1881.3908	1	10	n/a	n/a	1	51	5
1882.6408	1	10	n/a	n/a	1	51	6
1883.724	1	10	n/a	n/a	1	51	7
1884.8074	1	21	n/a	n/a	1	51	0
1885.874	1	10	n/a	n/a	1	51	1
1886.9572	1	10	n/a	n/a	1	51	2
1888.0306	1	81	n/a	n/a	1	0	0
1888.2306	1	81	n/a	n/a	1	0	0
1888.4306	1	81	n/a	n/a	1	0	0
1888.6306	1	81	n/a	n/a	1	0	0
1888.8306	1	81	n/a	n/a	1	0	0
1889.0306	1	81	n/a	n/a	1	0	0
1889.2306	1	81	n/a	n/a	1	0	0
1889.4306	1	81	n/a	n/a	1	0	0
1889.6306	1	81	n/a	n/a	1	0	0
1889.8306	1	81	n/a	n/a	1	0	0
1891.007	1	10	n/a	n/a	1	51	1
1892.0902	1	21	n/a	n/a	1	51	0
1893.2568	1	10	n/a	n/a	1	51	1
1894.34	1	10	n/a	n/a	1	51	2
1895.5234	1	10	n/a	n/a	1	51	3
1896.7066	1	21	n/a	n/a	1	51	0
1897.8566	1	10	n/a	n/a	1	51	1
1899.0398	1	10	n/a	n/a	1	51	2
1900.2064	1	10	n/a	n/a	1	51	3
1901.373	1	21	n/a	n/a	1	51	0
1902.5396	1	10	n/a	n/a	1	51	1
1903.7896	1	10	n/a	n/a	1	51	2
1905.1062	1	10	n/a	n/a	1	51	3
1906.1894	1	10	n/a	n/a	1	51	4
1907.456	1	10	n/a	n/a	1	51	5
1908.7226	1	21	n/a	n/a	1	51	0
1910.0224	1	10	n/a	n/a	1	51	1
1911.2224	1	10	n/a	n/a	1	51	2
1912.289	1	10	n/a	n/a	1	51	3
1913.389	1	10	n/a	n/a	1	51	4
1914.4334	1	81	n/a	n/a	1	0	0
1914.6334	1	81	n/a	n/a	1	0	0
1914.8334	1	81	n/a	n/a	1	0	0
1915.0334	1	81	n/a	n/a	1	0	0
1915.2334	1	81	n/a	n/a	1	0	0
1915.4334	1	81	n/a	n/a	1	0	0
1915.6334	1	81	n/a	n/a	1	0	0
1915.8334	1	81	n/a	n/a	1	0	0
1916.0334	1	81	n/a	n/a	1	0	0
1916.2334	1	81	n/a	n/a	1	0	0
1917.4888	1	10	n/a	n/a	1	51	1
1918.572	1	10	n/a	n/a	1	51	2
1919.722	1	10	n/a	n/a	1	51	3
1920.8386	1	10	n/a	n/a	1	51	4
1921.9884	1	10	n/a	n/a	1	51	5
1923.1384	1	21	n/a	n/a	1	51	0
1924.2384	1	10	n/a	n/a	1	51	1
1925.3382	1	21	n/a	n/a	1	51	0
1926.5548	1	10	n/a	n/a	1	51	1
1927.6048	1	10	n/a	n/a	1	51	2
1928.6548	1	10	n/a	n/a	1	51	3
1929.7046	1	21	n/a	n/a	1	51	0
1930.838	1	10	n/a	n/a	1	51	1
1931.9878	1	10	n/a	n/a	1	51	2
1933.2378	1	10	n/a	n/a	1	51	3
1934.4876	1	21	n/a	n/a	1	51	0
1935.6376	1	10	n/a	n/a	1	51	1
1936.9376	1	10	n/a	n/a	1	51	2
1938.1208	1	10	n/a	n/a	1	51	3
1939.4208	1	10	n/a	n/a	1	51	4
1940.2002	1	81	n/a	n/a	1	0	0
1940.4002	1	81	n/a	n/a	1	0	0
1940.6002	1	81	n/a	n/a	1	0	0
1940.8002	1	81	n/a	n/a	1	0	0
1941.0002	1	81	n/a	n/a	1	0	0
1941.2002	1	81	n/a	n/a	1	0	0
1941.4002	1	81	n/a	n/a	1	0	0
1941.6002	1	81	n/a	n/a	1	0	0
1941.8002	1	81	n/a	n/a	1	0	0
1942.0002	1	81	n/a	n/a	1	0	0
1943.2206	1	10	n/a	n/a	1	51	1
1944.3538	1	21	n/a	n/a	1	51	0
1945.387	1	10	n/a	n/a	1	51	1
1946.5536	1	10	n/a	n/a	1	51	2
1947.8202	1	10	n/a	n/a	1	51	3
1948.9868	1	10	n/a	n/a	1	51	4
1950.2202	1	10	n/a	n/a	1	51	5
1951.4534	1	21	n/a	n/a	1	51	0
1952.6866	1	10	n/a	n/a	1	51	1
1953.8198	1	10	n/a	n/a	1	51	2
1954.9698	1	10	n/a	n/a	1	51	3
1956.0864	1	10	n/a	n/a	1	51	4
1957.3864	1	10	n/a	n/a	1	51	5
1958.453	1	10	n/a	n/a	1	51	6
1959.5528	1	10	n/a	n/a	1	51	7
1960.6528	1	21	n/a	n/a	1	51	0
1961.936	1	10	n/a	n/a	1	51	1
1963.0194	1	10	n/a	n/a	1	51	2
1964.1692	1	10	n/a	n/a	1	51	3
1965.3192	1	10	n/a	n/a	1	51	4
1966.1276	1	81	n/a	n/a	1	0	0
1966.3276	1	81	n/a	n/a	1	0	0
1966.5276	1	81	n/a	n/a	1	0	0
1966.7276	1	81	n/a	n/a	1	0	0
1966.9276	1	81	n/a	n/a	1	0	0
1967.1276	1	81	n/a	n/a	1	0	0
1967.3276	1	81	n/a	n/a	1	0	0
1967.5276	1	81	n/a	n/a	1	0	0
1967.7276	1	81	n/a	n/a	1	0	0
1967.9276	1	81	n/a	n/a	1	0	0
1969.0856	1	10	n/a	n/a	1	51	1
1970.2356	1	10	n/a	n/a	1	51	2
1971.3522	1	10	n/a	n/a	1	51	3
1972.5522	1	10	n/a	n/a	1	51	4
1973.8354	1	10	n/a	n/a	1	51	5
1975.1186	1	21	n/a	n/a	1	51	0
1976.4186	1	10	n/a	n/a	1	51	1
1977.5684	1	10	n/a	n/a	1	51	2
1978.685	1	10	n/a	n/a	1	51	3
1979.9184	1	10	n/a	n/a	1	51	4
1980.985	1	10	n/a	n/a	1	51	5
1982.0516	1	21	n/a	n/a	1	51	0
1983.1182	1	10	n/a	n/a	1	51	1
1984.1848	1	10	n/a	n/a	1	51	2
1985.2514	1	10	n/a	n/a	1	51	3
1986.468	1	10	n/a	n/a	1	51	4
1987.7678	1	10	n/a	n/a	1	51	5
1988.8178	1	10	n/a	n/a	1	51	6
1989.901	1	10	n/a	n/a	1	51	7
1990.9844	1	21	n/a	n/a	1	51	0
